Time,AccelX1,AccelY1,AccelZ1,AccelX2,AccelY2,AccelZ2
0.000194997,0,0,0,0,0,1.070159912109375
0.000531845,0,0,0,0,0,0.611519992351532
0.000754397,0,0,0,0,0,0.9172800183296204
0.001087411,0,0,0,0,0,0.6879600286483765
0.001419555,0,0,0,0,0,0.7644000053405762
0.001755329,0,0,0,0,0,0.8408399820327759
0.002087046,0,0,0,0,0,0.5350799560546875
0.002419135,0,0,0,0,0,0.4586400091648102
0.002752593,0,0,0,0,0,0.8408399820327759
0.003087033,0,0,0,0,0,0.7644000053405762
0.00344601,0,0,0,0,0,0.6879600286483765
0.003765543,0,0,0,0,0,0.9172800183296204
0.004107668,0,0,0,0,0,0.611519992351532
0.004432905,0,0,0,0,0,0.8408399820327759
0.004753882,0,0,0,0,0,0.7644000053405762
0.005086563,0,0,0,0,0,0.2293200045824051
0.005420799,0,0,0,0,0,0.5350799560546875
0.006113753,0,0,0,0,0,0.5350799560546875
0.006137716,0,0,0,0,0,-0.4586400091648102
0.006432545,0,0,0,0,0,0.152879998087883
0.006759744,0,0,0,0,0,0.2293200045824051
0.007095555,0,0,0,0,0,1.6816799640655518
0.007442161,0,0,0,0,0,1.9874399900436401
0.007756176,0,0,0,0,0,0.8408399820327759
0.008095338,0,0,1.482010841369629,0,0,0.5350799560546875
0.008422056,0,0,1.482010841369629,0,0,0.611519992351532
0.008755329,0,0,1.482010841369629,0,0,0.4586400091648102
0.009093584,0,0,1.482010841369629,0,0,0.9937199950218201
0.009422302,0,0,1.482010841369629,0,0,0.9937199950218201
0.009759001,0,0,1.482010841369629,0,0,1.070159912109375
0.010113478,0,0,1.4508862495422363,0,0,0.9172800183296204
0.01044127,0,0,1.4508862495422363,0,0,0.8408399820327759
0.010763488,0,0,1.4508862495422363,0,0,0.7644000053405762
0.01153096,0,0,1.4508862495422363,0,0,0.7644000053405762
0.011556182,0,0,1.4508862495422363,0,0,0.9172800183296204
0.011759512,0,0,1.4700398445129395,0,0,0.611519992351532
0.012089304,0,0,1.4700398445129395,0,0,0.8408399820327759
0.012722,0,0,1.4700398445129395,0,0,0.8408399820327759
0.012745518,0,0,1.4700398445129395,0,0,0.6879600286483765
0.013106495,0,0,1.4700398445129395,0,0,0.9172800183296204
0.013434342,0,0,1.4700398445129395,0,0,1.1466000080108643
0.01376993,0,0,1.4700398445129395,0,0,0.152879998087883
0.014088889,0,0,1.5490485429763794,0,0,0.8408399820327759
0.014422051,0,0,1.5490485429763794,0,0,0.5350799560546875
0.014764936,0,0,1.5490485429763794,0,0,0.7644000053405762
0.015088858,0,0,1.5490485429763794,0,0,0.9172800183296204
0.015447334,0,0,1.5490485429763794,0,0,1.1466000080108643
0.015760219,0,0,1.5490485429763794,0,0,1.070159912109375
0.016098492,0,0,1.5490485429763794,0,0,0.152879998087883
0.016421951,0,0,1.256955862045288,0,0,0.9172800183296204
0.016754965,0,0,1.256955862045288,0,0,0.9172800183296204
0.017093183,0,0,1.256955862045288,0,0,0
0.017422012,0,0,1.256955862045288,0,0,0.9937199950218201
0.017759415,0,0,1.256955862045288,0,0,0.6879600286483765
0.018093244,0,0,1.256955862045288,0,0,1.223039984703064
0.018422203,0,0,1.256955862045288,0,0,0.611519992351532
0.018759495,0,0,1.2306196689605713,0,0,-0.152879998087883
0.019093583,0,0,1.2306196689605713,0,0,0.8408399820327759
0.019434449,0,0,1.2306196689605713,0,0,0.8408399820327759
0.019755648,0,0,1.2306196689605713,0,0,1.452359914779663
0.020093385,0,0,1.2306196689605713,0,0,0.4586400091648102
0.020421899,0,0,1.2306196689605713,0,0,2.2932000160217285
0.020764339,0,0,1.2306196689605713,0,0,0.9937199950218201
0.021097853,0,0,1.1444283723831177,0,0,0.9172800183296204
0.021422145,0,0,1.1444283723831177,0,0,0.611519992351532
0.021777085,0,0,1.1444283723831177,0,0,0.9172800183296204
0.022092673,0,0,1.1444283723831177,0,0,0.9172800183296204
0.022426576,0,0,1.1444283723831177,0,0,0.611519992351532
0.022755646,0,0,1.213860273361206,0,0,0.8408399820327759
0.023092493,0,0,1.213860273361206,0,0,1.070159912109375
0.023438155,0,0,1.213860273361206,0,0,0.9172800183296204
0.023754077,0,0,1.213860273361206,0,0,0.5350799560546875
0.02409061,0,0,1.213860273361206,0,0,0.8408399820327759
0.024421513,0,0,1.3527239561080933,0,0,0.4586400091648102
0.024753953,0,0,1.3527239561080933,0,0,0.305759996175766
0.0250908,0,0,1.2952631711959839,0,0,0.7644000053405762
0.025421648,0,0,1.2952631711959839,0,0,0.4586400091648102
0.025753773,0,0,1.2952631711959839,0,0,0.9172800183296204
0.026090917,0,0,1.2952631711959839,0,0,0.9937199950218201
0.02642195,0,0,1.2952631711959839,0,0,0.9937199950218201
0.026753742,0,0,1.2952631711959839,0,0,0.3822000026702881
0.027091034,0,0,1.2952631711959839,0,0,0.6879600286483765
0.027450603,0,0,1.4484920501708984,0,0,0.611519992351532
0.027754266,0,0,1.4484920501708984,0,0,0.3822000026702881
0.028091076,0,0,1.4484920501708984,0,0,1.1466000080108643
0.028425553,0,0,1.4484920501708984,0,0,0.611519992351532
0.028759289,0,0,1.4484920501708984,0,0,0.7644000053405762
0.029117192,0,0,1.4484920501708984,0,0,0.0764399990439415
0.029433021,0,0,1.4484920501708984,0,0,0.9172800183296204
0.029770961,0,0,1.4844050407409668,0,0,1.452359914779663
0.030093457,0,0,1.4844050407409668,0,0,0.9937199950218201
0.030423008,0,0,1.4844050407409668,0,0,0.305759996175766
0.030762893,0,0,1.4844050407409668,0,0,1.223039984703064
0.031099499,0,0,1.4844050407409668,0,0,0.4586400091648102
0.031452106,0,0,1.4844050407409668,0,0,0.5350799560546875
0.031762139,0,0,1.4844050407409668,0,0,0.305759996175766
0.032112523,0,0,1.436521053314209,0,0,1.9874399900436401
0.032428075,0,0,1.436521053314209,0,0,0
0.032763218,0,0,1.436521053314209,0,0,0.9172800183296204
0.033126066,0,0,1.436521053314209,0,0,0.9172800183296204
0.033435117,0,0,1.436521053314209,0,0,0.6879600286483765
0.034379808,0,0,1.436521053314209,0,0,0.3822000026702881
0.034404401,0,0,1.436521053314209,0,0,0.3822000026702881
0.034427678,0,0,1.4748282432556152,0,0,0.9937199950218201
0.034774933,0,0,1.4748282432556152,0,0,0.6879600286483765
0.035093614,0,0,1.4748282432556152,0,0,0.611519992351532
0.035476627,0,0,1.4748282432556152,0,0,0.6879600286483765
0.035776809,0,0,1.4748282432556152,0,0,0.5350799560546875
0.036136508,0,0,1.4748282432556152,0,0,0.9172800183296204
0.036450207,0,0,1.4748282432556152,0,0,0.5350799560546875
0.036806925,0,0,1.3670891523361206,0,0,0.9937199950218201
0.037094643,0,0,1.3670891523361206,0,0,1.070159912109375
0.037436287,0,0,1.3670891523361206,0,0,0.2293200045824051
0.037756968,0,0,1.3670891523361206,0,0,0.3822000026702881
0.038100482,0,0,1.3670891523361206,0,0,0.8408399820327759
0.038463662,0,0,1.3670891523361206,0,0,0.7644000053405762
0.038798232,0,0,1.3670891523361206,0,0,0.8408399820327759
0.03912895,0,0,1.2832920551300049,0,0,0.7644000053405762
0.039489223,0,0,1.2832920551300049,0,0,1.1466000080108643
0.0397877,0,0,1.2832920551300049,0,0,0.611519992351532
0.040108326,0,0,1.2832920551300049,0,0,0.5350799560546875
0.040427118,0,0,1.2832920551300049,0,0,0.9937199950218201
0.04080978,0,0,1.2832920551300049,0,0,0.6879600286483765
0.04111035,0,0,1.2832920551300049,0,0,1.452359914779663
0.041527104,0,0,1.357512354850769,0,0,1.070159912109375
0.041780156,0,0,1.357512354850769,0,0,0.7644000053405762
0.042119374,0,0,1.357512354850769,0,0,1.452359914779663
0.042473961,0,0,1.357512354850769,0,0,-0.152879998087883
0.042785624,0,0,1.357512354850769,0,0,1.6816799640655518
0.043155804,0,0,1.357512354850769,0,0,0
0.043474726,0,0,1.357512354850769,0,0,0.0764399990439415
0.043779537,0,0,1.3934253454208374,0,0,0.305759996175766
0.044114033,0,0,1.3934253454208374,0,0,0.7644000053405762
0.044463361,0,0,1.3934253454208374,0,0,0.5350799560546875
0.044793876,0,0,1.3934253454208374,0,0,0.8408399820327759
0.045125075,0,0,1.3934253454208374,0,0,0.7644000053405762
0.045455145,0,0,1.3934253454208374,0,0,0.7644000053405762
0.045795881,0,0,1.3000515699386597,0,0,0.6879600286483765
0.046119506,0,0,1.3000515699386597,0,0,0.4586400091648102
0.046457391,0,0,1.3000515699386597,0,0,0.6879600286483765
0.046793053,0,0,1.3000515699386597,0,0,0.9172800183296204
0.047141382,0,0,1.3000515699386597,0,0,0.7644000053405762
0.047503099,0,0,1.3000515699386597,0,0,0.9937199950218201
0.04778967,0,0,1.3000515699386597,0,0,0.3822000026702881
0.04870088,0,0,1.3215993642807007,0,0,0.3822000026702881
0.048724602,0,0,1.3215993642807007,0,0,0.3822000026702881
0.048747713,0,0,1.3215993642807007,0,0,0.5350799560546875
0.049191651,0,0,1.3215993642807007,0,0,0.8408399820327759
0.049462925,0,0,1.3215993642807007,0,0,0.611519992351532
0.049779514,0,0,1.3215993642807007,0,0,0.9937199950218201
0.050111417,0,0,1.3215993642807007,0,0,0.611519992351532
0.050436246,0,0,1.3623007535934448,0,0,0.9172800183296204
0.050788723,0,0,1.3623007535934448,0,0,0.6879600286483765
0.051128144,0,0,1.3623007535934448,0,0,1.070159912109375
0.051499621,0,0,1.3623007535934448,0,0,0.4586400091648102
0.051779247,0,0,1.3623007535934448,0,0,0.7644000053405762
0.05210528,0,0,1.3623007535934448,0,0,0.7644000053405762
0.052447442,0,0,1.3623007535934448,0,0,0.5350799560546875
0.052797493,0,0,1.4460978507995605,0,0,1.2994799613952637
0.053124414,0,0,1.4460978507995605,0,0,1.223039984703064
0.053485391,0,0,1.4460978507995605,0,0,0.5350799560546875
0.053799683,0,0,1.4460978507995605,0,0,1.2994799613952637
0.054115087,0,0,1.4460978507995605,0,0,0.5350799560546875
0.054447267,0,0,1.4460978507995605,0,0,0.8408399820327759
0.05479243,0,0,1.4460978507995605,0,0,0.152879998087883
0.055136147,0,0,1.4413094520568848,0,0,0.6879600286483765
0.055500976,0,0,1.4413094520568848,0,0,0.6879600286483765
0.05578712,0,0,1.4413094520568848,0,0,0.9937199950218201
0.056138968,0,0,1.4413094520568848,0,0,0.9937199950218201
0.056456371,0,0,1.4413094520568848,0,0,0.6879600286483765
0.056801107,0,0,1.4413094520568848,0,0,0.4586400091648102
0.057140362,0,0,1.4413094520568848,0,0,0.5350799560546875
0.05748258,0,0,1.4437036514282227,0,0,0.5350799560546875
0.057809816,0,0,1.4437036514282227,0,0,0.7644000053405762
0.058127571,0,0,1.4437036514282227,0,0,0.9172800183296204
0.058466085,0,0,1.4437036514282227,0,0,0.9937199950218201
0.058779951,0,0,1.4437036514282227,0,0,0.7644000053405762
0.059126206,0,0,1.4437036514282227,0,0,0.6879600286483765
0.059519034,0,0,1.4437036514282227,0,0,0.6879600286483765
0.059786364,0,0,1.5849615335464478,0,0,0.4586400091648102
0.06010199,0,0,1.5849615335464478,0,0,0.7644000053405762
0.060439578,0,0,1.5849615335464478,0,0,0.9937199950218201
0.060780055,0,0,1.5849615335464478,0,0,1.1466000080108643
0.061128513,0,0,1.5849615335464478,0,0,0.9937199950218201
0.061456731,0,0,1.5849615335464478,0,0,0.6879600286483765
0.061784634,0,0,1.5849615335464478,0,0,1.070159912109375
0.062114334,0,0,1.455674648284912,0,0,0.611519992351532
0.062460014,0,0,1.455674648284912,0,0,0.4586400091648102
0.06278338,0,0,1.455674648284912,0,0,0.6879600286483765
0.063116728,0,0,1.455674648284912,0,0,1.070159912109375
0.063471594,0,0,1.455674648284912,0,0,0.5350799560546875
0.063794201,0,0,1.455674648284912,0,0,0.8408399820327759
0.064125067,0,0,1.455674648284912,0,0,0.611519992351532
0.064447025,0,0,1.2521674633026123,0,0,0.305759996175766
0.064807206,0,0,1.2521674633026123,0,0,0.611519992351532
0.065146109,0,0,1.2521674633026123,0,0,0.5350799560546875
0.065468827,0,0,1.2521674633026123,0,0,1.6816799640655518
0.065777452,0,0,1.2521674633026123,0,0,0.6879600286483765
0.066134781,0,0,1.2521674633026123,0,0,1.5288000106811523
0.066452332,0,0,1.2521674633026123,0,0,0.5350799560546875
0.066805828,0,0,1.41257905960083,0,0,1.375920057296753
0.067122824,0,0,1.41257905960083,0,0,0.152879998087883
0.067470226,0,0,1.41257905960083,0,0,0
0.067787093,0,0,1.41257905960083,0,0,0.4586400091648102
0.068163643,0,0,1.41257905960083,0,0,0.5350799560546875
0.068460825,0,0,1.41257905960083,0,0,0.5350799560546875
0.068768246,0,0,1.41257905960083,0,0,1.070159912109375
0.06910889,0,0,1.3479355573654175,0,0,0.9937199950218201
0.069452849,0,0,1.3479355573654175,0,0,0.7644000053405762
0.069759493,0,0,1.3479355573654175,0,0,0.4586400091648102
0.070088637,0,0,1.3479355573654175,0,0,0.6879600286483765
0.070445187,0,0,1.3479355573654175,0,0,0.8408399820327759
0.070755054,0,0,1.3479355573654175,0,0,0.611519992351532
0.071088253,0,0,1.3479355573654175,0,0,0.6879600286483765
0.071469063,0,0,1.2617442607879639,0,0,0.611519992351532
0.0717553,0,0,1.2617442607879639,0,0,0.5350799560546875
0.072088333,0,0,1.2617442607879639,0,0,0.8408399820327759
0.07243968,0,0,1.2617442607879639,0,0,0.8408399820327759
0.072755176,0,0,1.2521674633026123,0,0,1.1466000080108643
0.073088153,0,0,1.2521674633026123,0,0,0.611519992351532
0.073430556,0,0,1.2521674633026123,0,0,0.611519992351532
0.073755107,0,0,1.2521674633026123,0,0,0.4586400091648102
0.074088269,0,0,1.3239935636520386,0,0,0.6879600286483765
0.074428135,0,0,1.3239935636520386,0,0,1.452359914779663
0.074755205,0,0,1.3239935636520386,0,0,0.8408399820327759
0.075110719,0,0,1.3239935636520386,0,0,0.9172800183296204
0.075433178,0,0,1.3239935636520386,0,0,0.9937199950218201
0.075755544,0,0,1.3239935636520386,0,0,1.070159912109375
0.076110724,0,0,1.3239935636520386,0,0,0.6879600286483765
0.076421961,0,0,1.4676456451416016,0,0,0.3822000026702881
0.076754901,0,0,1.4676456451416016,0,0,0.611519992351532
0.077107748,0,0,1.4676456451416016,0,0,0
0.077421985,0,0,1.4676456451416016,0,0,0.3822000026702881
0.077755462,0,0,1.4676456451416016,0,0,0
0.07810455,0,0,1.4676456451416016,0,0,1.375920057296753
0.078421842,0,0,1.534683346748352,0,0,1.2994799613952637
0.078754838,0,0,1.534683346748352,0,0,1.6816799640655518
0.079098426,0,0,1.534683346748352,0,0,1.2994799613952637
0.07943107,0,0,1.534683346748352,0,0,0.4586400091648102
0.079755454,0,0,1.534683346748352,0,0,0.7644000053405762
0.080093746,0,0,1.534683346748352,0,0,0.4586400091648102
0.080421816,0,0,1.534683346748352,0,0,9.325679779052734
0.080777052,0,0,1.4101848602294922,0,0,0.611519992351532
0.081088715,0,0,1.4101848602294922,0,0,0.8408399820327759
0.081421692,0,0,1.4101848602294922,0,0,0.7644000053405762
0.081777576,0,0,1.4101848602294922,0,0,0.6879600286483765
0.082088498,0,0,1.4101848602294922,0,0,0.9937199950218201
0.082421642,0,0,1.4101848602294922,0,0,0.9937199950218201
0.082784581,0,0,1.53707754611969,0,0,0.9937199950218201
0.083089633,0,0,1.53707754611969,0,0,0.6879600286483765
0.08343848,0,0,1.53707754611969,0,0,0.9172800183296204
0.083776383,0,0,1.53707754611969,0,0,0.3822000026702881
0.084088694,0,0,1.53707754611969,0,0,0.611519992351532
0.084421541,0,0,1.53707754611969,0,0,0.8408399820327759
0.084767963,0,0,1.335964560508728,0,0,0.6879600286483765
0.085088718,0,0,1.335964560508728,0,0,1.1466000080108643
0.085421547,0,0,1.335964560508728,0,0,1.070159912109375
0.085788616,0,0,1.335964560508728,0,0,0.9172800183296204
0.086089186,0,0,1.335964560508728,0,0,0.6879600286483765
0.086444163,0,0,1.335964560508728,0,0,0.7644000053405762
0.086754825,0,0,1.2449848651885986,0,0,0.5350799560546875
0.087088469,0,0,1.2449848651885986,0,0,0.7644000053405762
0.087456372,0,0,1.2449848651885986,0,0,0.8408399820327759
0.08776659,0,0,1.2449848651885986,0,0,1.1466000080108643
0.088088419,0,0,1.2449848651885986,0,0,1.2994799613952637
0.0884216,0,0,1.2449848651885986,0,0,0.9172800183296204
0.08875941,0,0,1.3479355573654175,0,0,1.070159912109375
0.089088221,0,0,1.3479355573654175,0,0,0.3822000026702881
0.089443827,0,0,1.3479355573654175,0,0,0
0.089754879,0,0,1.3479355573654175,0,0,0
0.090088319,0,0,1.3479355573654175,0,0,0.9172800183296204
0.090443481,0,0,1.3479355573654175,0,0,1.375920057296753
0.090755032,0,0,1.290474772453308,0,0,1.223039984703064
0.09108825,0,0,1.290474772453308,0,0,1.5288000106811523
0.091453764,0,0,1.290474772453308,0,0,0.6879600286483765
0.091755149,0,0,1.290474772453308,0,0,0
0.092088441,0,0,1.290474772453308,0,0,0
0.092438269,0,0,1.290474772453308,0,0,0.6879600286483765
0.092755006,0,0,1.292868971824646,0,0,0.7644000053405762
0.093090483,0,0,1.292868971824646,0,0,0.9172800183296204
0.093432312,0,0,1.292868971824646,0,0,0.7644000053405762
0.093754937,0,0,1.292868971824646,0,0,0.7644000053405762
0.094088118,0,0,1.292868971824646,0,0,0.8408399820327759
0.094426188,0,0,1.292868971824646,0,0,0.9172800183296204
0.094755035,0,0,1.2976573705673218,0,0,0.611519992351532
0.095110271,0,0,1.2976573705673218,0,0,0.611519992351532
0.095421156,0,0,1.2976573705673218,0,0,0.9172800183296204
0.095765133,0,0,1.2976573705673218,0,0,0.6879600286483765
0.096110203,0,0,1.2976573705673218,0,0,1.1466000080108643
0.096422921,0,0,1.2976573705673218,0,0,0.6879600286483765
0.096754991,0,0,1.3670891523361206,0,0,0.9172800183296204
0.097108856,0,0,1.3670891523361206,0,0,0.9172800183296204
0.097421704,0,0,1.3670891523361206,0,0,0.9937199950218201
0.098735224,0,0,1.3670891523361206,0,0,0.9172800183296204
0.098771927,0,0,1.3670891523361206,0,0,0.9172800183296204
0.09879489,0,0,1.3670891523361206,0,0,0.9172800183296204
0.098817834,0,0,1.4389152526855469,0,0,0.9937199950218201
0.099109145,0,0,1.4389152526855469,0,0,0.9172800183296204
0.099465974,0,0,1.4389152526855469,0,0,1.223039984703064
0.09976484,0,0,1.4389152526855469,0,0,0.2293200045824051
0.100129039,0,0,1.4389152526855469,0,0,0.0764399990439415
0.100427128,0,0,1.4389152526855469,0,0,0.2293200045824051
0.100755327,0,0,1.3646949529647827,0,0,1.2994799613952637
0.101114063,0,0,1.3646949529647827,0,0,1.070159912109375
0.101421652,0,0,1.3646949529647827,0,0,0.7644000053405762
0.10175511,0,0,1.4389152526855469,0,0,0.611519992351532
0.102103365,0,0,1.4389152526855469,0,0,1.452359914779663
0.102421953,0,0,1.4389152526855469,0,0,-0.305759996175766
0.102754949,0,0,1.4389152526855469,0,0,1.070159912109375
0.103096148,0,0,1.4389152526855469,0,0,1.758120059967041
0.103447477,0,0,1.4389152526855469,0,0,1.2994799613952637
0.103778917,0,0,1.4389152526855469,0,0,1.9109998941421509
0.104090672,0,0,1.601720929145813,0,0,1.5288000106811523
0.10442152,0,0,1.601720929145813,0,0,0.6879600286483765
0.104778756,0,0,1.601720929145813,0,0,0.6879600286483765
0.105088326,0,0,1.601720929145813,0,0,0.7644000053405762
0.105421655,0,0,1.601720929145813,0,0,0.4586400091648102
0.105765169,0,0,1.601720929145813,0,0,0.7644000053405762
0.10608822,0,0,1.3503297567367554,0,0,0.8408399820327759
0.106446956,0,0,1.3503297567367554,0,0,0.9937199950218201
0.106756063,0,0,1.3503297567367554,0,0,1.070159912109375
0.107087985,0,0,1.3503297567367554,0,0,0.9937199950218201
0.107458036,0,0,1.3503297567367554,0,0,0.8408399820327759
0.107755069,0,0,1.3503297567367554,0,0,0.9937199950218201
0.10808812,0,0,1.3287819623947144,0,0,0.8408399820327759
0.108435708,0,0,1.3287819623947144,0,0,0.5350799560546875
0.108754722,0,0,1.3287819623947144,0,0,0.7644000053405762
0.109113588,0,0,1.3287819623947144,0,0,0.9172800183296204
0.109424991,0,0,1.3287819623947144,0,0,0.5350799560546875
0.109755913,0,0,1.3287819623947144,0,0,1.1466000080108643
0.110113297,0,0,1.278503656387329,0,0,0.5350799560546875
0.11042283,0,0,1.278503656387329,0,0,0.5350799560546875
0.110755048,0,0,1.278503656387329,0,0,0.5350799560546875
0.111106154,0,0,1.278503656387329,0,0,0.5350799560546875
0.111445224,0,0,1.278503656387329,0,0,0.6879600286483765
0.111788571,0,0,1.278503656387329,0,0,0.9172800183296204
0.112099178,0,0,1.1755530834197998,0,0,1.375920057296753
0.112423193,0,0,1.1755530834197998,0,0,0.9172800183296204
0.112780558,0,0,1.1755530834197998,0,0,0.5350799560546875
0.113089388,0,0,1.1755530834197998,0,0,1.1466000080108643
0.113421735,0,0,1.1755530834197998,0,0,0.4586400091648102
0.113787416,0,0,1.1755530834197998,0,0,0.6879600286483765
0.114089763,0,0,1.2497732639312744,0,0,0.5350799560546875
0.114426185,0,0,1.2497732639312744,0,0,0.305759996175766
0.114776254,0,0,1.2497732639312744,0,0,1.375920057296753
0.115106676,0,0,1.2497732639312744,0,0,0.305759996175766
0.115486486,0,0,1.2497732639312744,0,0,0.7644000053405762
0.115789056,0,0,1.2497732639312744,0,0,0.7644000053405762
0.11609157,0,0,1.2880805730819702,0,0,1.2994799613952637
0.116423844,0,0,1.2880805730819702,0,0,0.8408399820327759
0.116773969,0,0,1.2880805730819702,0,0,0.7644000053405762
0.117092076,0,0,1.2880805730819702,0,0,0.7644000053405762
0.117423516,0,0,1.2880805730819702,0,0,1.070159912109375
0.117781882,0,0,1.2880805730819702,0,0,1.070159912109375
0.118089822,0,0,1.3886369466781616,0,0,1.1466000080108643
0.118449965,0,0,1.3886369466781616,0,0,0.9172800183296204
0.118758073,0,0,1.3886369466781616,0,0,0.6879600286483765
0.119088679,0,0,1.3886369466781616,0,0,0.9172800183296204
0.119473989,0,0,1.3886369466781616,0,0,0.9172800183296204
0.119755504,0,0,1.3886369466781616,0,0,0.9172800183296204
0.120093314,0,0,1.5083470344543457,0,0,0.7644000053405762
0.120444958,0,0,1.5083470344543457,0,0,0.611519992351532
0.120762972,0,0,1.5083470344543457,0,0,0.611519992351532
0.12112406,0,0,1.5083470344543457,0,0,0.7644000053405762
0.121436537,0,0,1.5083470344543457,0,0,0.5350799560546875
0.121755144,0,0,1.5083470344543457,0,0,0.7644000053405762
0.122112992,0,0,1.50355863571167,0,0,0.5350799560546875
0.122448524,0,0,1.50355863571167,0,0,0.9937199950218201
0.122755983,0,0,1.50355863571167,0,0,1.223039984703064
0.123113404,0,0,1.50355863571167,0,0,1.6816799640655518
0.123444159,0,0,1.50355863571167,0,0,0.4586400091648102
0.123755192,0,0,1.50355863571167,0,0,0
0.124116558,0,0,1.4939818382263184,0,0,0.305759996175766
0.124422146,0,0,1.4939818382263184,0,0,0.4586400091648102
0.124755161,0,0,1.4939818382263184,0,0,1.070159912109375
0.125094323,0,0,1.4939818382263184,0,0,0.6879600286483765
0.125421448,0,0,1.4939818382263184,0,0,1.5288000106811523
0.125780018,0,0,1.4939818382263184,0,0,0.8408399820327759
0.12608831,0,0,1.4460978507995605,0,0,0.611519992351532
0.126421546,0,0,1.4460978507995605,0,0,0.4586400091648102
0.126774801,0,0,1.4460978507995605,0,0,-0.3822000026702881
0.127088093,0,0,1.4460978507995605,0,0,0
0.127457514,0,0,1.4460978507995605,0,0,0.0764399990439415
0.127766936,0,0,1.4460978507995605,0,0,-0.0764399990439415
0.128088302,0,0,1.2425906658172607,0,0,1.375920057296753
0.128448834,0,0,1.2425906658172607,0,0,2.446079969406128
0.128754423,0,0,1.2425906658172607,0,0,0.6879600286483765
0.129088159,0,0,1.2425906658172607,0,0,0.7644000053405762
0.129443599,0,0,1.2425906658172607,0,0,0.6879600286483765
0.129755058,0,0,1.2425906658172607,0,0,0.6879600286483765
0.13008822,0,0,1.3335703611373901,0,0,0.4586400091648102
0.130436494,0,0,1.3335703611373901,0,0,0.6879600286483765
0.130755323,0,0,1.3335703611373901,0,0,1.070159912109375
0.131114114,0,0,1.3335703611373901,0,0,1.070159912109375
0.131433184,0,0,1.3335703611373901,0,0,0.6879600286483765
0.131755161,0,0,1.3335703611373901,0,0,0.6879600286483765
0.132111268,0,0,1.2641384601593018,0,0,0.8408399820327759
0.132422245,0,0,1.2641384601593018,0,0,0.5350799560546875
0.132754908,0,0,1.2641384601593018,0,0,0.611519992351532
0.13310744,0,0,1.2641384601593018,0,0,0.4586400091648102
0.133421806,0,0,1.2641384601593018,0,0,0.6879600286483765
0.133754913,0,0,1.2641384601593018,0,0,0.8408399820327759
0.13409152,0,0,1.216254472732544,0,0,0.611519992351532
0.13442396,0,0,1.216254472732544,0,0,0.6879600286483765
0.134780622,0,0,1.216254472732544,0,0,0.611519992351532
0.135088581,0,0,1.216254472732544,0,0,1.223039984703064
0.135433243,0,0,1.216254472732544,0,0,0.8408399820327759
0.135774775,0,0,1.216254472732544,0,0,0.7644000053405762
0.136088271,0,0,1.2880805730819702,0,0,1.070159912109375
0.136421545,0,0,1.2880805730819702,0,0,0.5350799560546875
0.136760651,0,0,1.2880805730819702,0,0,1.6816799640655518
0.137088332,0,0,1.2880805730819702,0,0,1.375920057296753
0.137443105,0,0,1.2880805730819702,0,0,1.070159912109375
0.137756212,0,0,1.2880805730819702,0,0,1.070159912109375
0.138088078,0,0,1.314416766166687,0,0,1.452359914779663
0.13844437,0,0,1.314416766166687,0,0,1.223039984703064
0.138755088,0,0,1.314416766166687,0,0,0.5350799560546875
0.139088251,0,0,1.314416766166687,0,0,0.8408399820327759
0.139441616,0,0,1.314416766166687,0,0,1.223039984703064
0.139754223,0,0,1.314416766166687,0,0,-0.4586400091648102
0.140109774,0,0,1.314416766166687,0,0,1.452359914779663
0.140420418,0,0,1.4077905416488647,0,0,2.3696401119232178
0.140753469,0,0,1.4077905416488647,0,0,0.9937199950218201
0.141102428,0,0,1.4077905416488647,0,0,0.6879600286483765
0.14142009,0,0,1.4077905416488647,0,0,0.611519992351532
0.141777974,0,0,1.4077905416488647,0,0,0.9937199950218201
0.142086767,0,0,1.4077905416488647,0,0,0.8408399820327759
0.142420114,0,0,1.4077905416488647,0,0,0.611519992351532
0.142775721,0,0,1.4939818382263184,0,0,0.5350799560546875
0.143086976,0,0,1.4939818382263184,0,0,0.4586400091648102
0.143420083,0,0,1.4939818382263184,0,0,0.9172800183296204
0.143798429,0,0,1.4939818382263184,0,0,0.611519992351532
0.144088148,0,0,1.4939818382263184,0,0,1.1466000080108643
0.144443754,0,0,1.4939818382263184,0,0,0.9937199950218201
0.144757861,0,0,1.4939818382263184,0,0,0.9937199950218201
0.145087968,0,0,1.3000515699386597,0,0,0.4586400091648102
0.145444408,0,0,1.3000515699386597,0,0,0.5350799560546875
0.145754626,0,0,1.3000515699386597,0,0,0.3822000026702881
0.146088437,0,0,1.3000515699386597,0,0,0.3822000026702881
0.146431154,0,0,1.3000515699386597,0,0,0.7644000053405762
0.14675478,0,0,1.3000515699386597,0,0,0.7644000053405762
0.147112608,0,0,1.3000515699386597,0,0,1.452359914779663
0.147419289,0,0,1.4987702369689941,0,0,0.7644000053405762
0.147754674,0,0,1.4987702369689941,0,0,0.3822000026702881
0.148111836,0,0,1.4987702369689941,0,0,1.070159912109375
0.148421184,0,0,1.4987702369689941,0,0,0.611519992351532
0.148753309,0,0,1.4987702369689941,0,0,0.0764399990439415
0.14909636,0,0,1.4987702369689941,0,0,1.375920057296753
0.149420022,0,0,1.4987702369689941,0,0,1.375920057296753
0.149778499,0,0,1.45806884765625,0,0,1.2994799613952637
0.150086847,0,0,1.45806884765625,0,0,1.605239987373352
0.150420454,0,0,1.45806884765625,0,0,1.5288000106811523
0.150776801,0,0,1.45806884765625,0,0,0.5350799560546875
0.15108676,0,0,1.45806884765625,0,0,0.5350799560546875
0.151419941,0,0,1.45806884765625,0,0,0.7644000053405762
0.151790843,0,0,1.45806884765625,0,0,0.7644000053405762
0.152087932,0,0,1.2617442607879639,0,0,0
0.152444112,0,0,1.2617442607879639,0,0,0.6879600286483765
0.152756127,0,0,1.2617442607879639,0,0,1.070159912109375
0.153087808,0,0,1.2617442607879639,0,0,0.611519992351532
0.153444933,0,0,1.2617442607879639,0,0,0.5350799560546875
0.153754503,0,0,1.2617442607879639,0,0,0.5350799560546875
0.154087869,0,0,1.2617442607879639,0,0,0.4586400091648102
0.154432012,0,0,1.2665326595306396,0,0,0.6879600286483765
0.154754841,0,0,1.2665326595306396,0,0,0.611519992351532
0.155115281,0,0,1.2665326595306396,0,0,0.7644000053405762
0.155420351,0,0,1.2665326595306396,0,0,0.9937199950218201
0.155882882,0,0,1.2665326595306396,0,0,0.2293200045824051
0.156112657,0,0,1.2665326595306396,0,0,0.152879998087883
0.156419764,0,0,1.2665326595306396,0,0,0.611519992351532
0.156754963,0,0,1.237802267074585,0,0,0.9172800183296204
0.157112107,0,0,1.237802267074585,0,0,0.8408399820327759
0.15742151,0,0,1.237802267074585,0,0,0.611519992351532
0.157754876,0,0,1.237802267074585,0,0,1.070159912109375
0.158101186,0,0,1.237802267074585,0,0,0.8408399820327759
0.158421423,0,0,1.237802267074585,0,0,0.611519992351532
0.158780215,0,0,1.237802267074585,0,0,0.8408399820327759
0.159089211,0,0,1.278503656387329,0,0,0.8408399820327759
0.159430428,0,0,1.278503656387329,0,0,0.6879600286483765
0.159777979,0,0,1.278503656387329,0,0,1.452359914779663
0.160088327,0,0,1.278503656387329,0,0,1.375920057296753
0.160421452,0,0,1.278503656387329,0,0,0.611519992351532
0.160771244,0,0,1.278503656387329,0,0,1.452359914779663
0.16108824,0,0,1.278503656387329,0,0,0.3822000026702881
0.161421365,0,0,1.3694833517074585,0,0,0.152879998087883
0.16177899,0,0,1.3694833517074585,0,0,0.6879600286483765
0.162088208,0,0,1.3694833517074585,0,0,0.611519992351532
0.16281731,0,0,1.3694833517074585,0,0,0.611519992351532
0.16284068,0,0,1.3694833517074585,0,0,0.611519992351532
0.16308914,0,0,1.3694833517074585,0,0,1.6816799640655518
0.163434579,0,0,1.3694833517074585,0,0,0.2293200045824051
0.163780168,0,0,1.4077905416488647,0,0,0.8408399820327759
0.164088608,0,0,1.4077905416488647,0,0,8.790599822998047
0.164421511,0,0,1.4077905416488647,0,0,0.5350799560546875
0.16477084,0,0,1.4077905416488647,0,0,0.4586400091648102
0.165100224,0,0,1.4077905416488647,0,0,0.7644000053405762
0.165450701,0,0,1.4077905416488647,0,0,0.8408399820327759
0.165756623,0,0,1.4077905416488647,0,0,1.070159912109375
0.166088415,0,0,1.5729905366897583,0,0,1.070159912109375
0.166445799,0,0,1.5729905366897583,0,0,0.5350799560546875
0.166755129,0,0,1.5729905366897583,0,0,0.5350799560546875
0.167088087,0,0,1.5729905366897583,0,0,0.611519992351532
0.167448953,0,0,1.5729905366897583,0,0,0.8408399820327759
0.167754856,0,0,1.5729905366897583,0,0,0.7644000053405762
0.168089278,0,0,1.5729905366897583,0,0,0.8408399820327759
0.168445088,0,0,1.4963760375976563,0,0,0.611519992351532
0.16875475,0,0,1.4963760375976563,0,0,1.1466000080108643
0.169112431,0,0,1.4963760375976563,0,0,0.8408399820327759
0.169421705,0,0,1.4963760375976563,0,0,0.7644000053405762
0.169754608,0,0,1.4963760375976563,0,0,0.3822000026702881
0.170103955,0,0,1.4963760375976563,0,0,0.9172800183296204
0.170421525,0,0,1.4963760375976563,0,0,0.7644000053405762
0.17075478,0,0,1.4963760375976563,0,0,0.9172800183296204
0.17114083,0,0,1.4413094520568848,0,0,0.5350799560546875
0.171434086,0,0,1.4413094520568848,0,0,1.223039984703064
0.171778452,0,0,1.4413094520568848,0,0,1.5288000106811523
0.172088281,0,0,1.4413094520568848,0,0,1.070159912109375
0.172421591,0,0,1.4413094520568848,0,0,0.611519992351532
0.172770531,0,0,1.4413094520568848,0,0,0.9937199950218201
0.173088305,0,0,1.4413094520568848,0,0,0.152879998087883
0.173421578,0,0,1.6543933153152466,0,0,0.2293200045824051
0.173778055,0,0,1.6543933153152466,0,0,0.152879998087883
0.174088384,0,0,1.6543933153152466,0,0,1.1466000080108643
0.174447509,0,0,1.6543933153152466,0,0,0.0764399990439415
0.174754968,0,0,1.6543933153152466,0,0,1.605239987373352
0.175088056,0,0,1.6543933153152466,0,0,1.2994799613952637
0.175447089,0,0,1.6543933153152466,0,0,0.7644000053405762
0.175757103,0,0,1.37906014919281,0,0,0.2293200045824051
0.176111728,0,0,1.37906014919281,0,0,0
0.176420076,0,0,1.37906014919281,0,0,1.070159912109375
0.17675372,0,0,1.37906014919281,0,0,0.8408399820327759
0.177110178,0,0,1.37906014919281,0,0,0.2293200045824051
0.177420118,0,0,1.37906014919281,0,0,0.305759996175766
0.177753392,0,0,1.37906014919281,0,0,0.6879600286483765
0.178096295,0,0,1.2090718746185303,0,0,0.611519992351532
0.178428457,0,0,1.2090718746185303,0,0,1.070159912109375
0.178805415,0,0,1.2090718746185303,0,0,0.8408399820327759
0.179099337,0,0,1.2090718746185303,0,0,0.8408399820327759
0.179490202,0,0,1.2090718746185303,0,0,0.7644000053405762
0.179787235,0,0,1.2090718746185303,0,0,0.6879600286483765
0.180087306,0,0,1.2090718746185303,0,0,0.9937199950218201
0.180421523,0,0,1.2952631711959839,0,0,0.611519992351532
0.180778667,0,0,1.2952631711959839,0,0,0.5350799560546875
0.181093459,0,0,1.2952631711959839,0,0,0.7644000053405762
0.181424399,0,0,1.2952631711959839,0,0,0.9937199950218201
0.181780376,0,0,1.2952631711959839,0,0,1.070159912109375
0.182091279,0,0,1.2952631711959839,0,0,0.9937199950218201
0.182456201,0,0,1.2952631711959839,0,0,1.1466000080108643
0.182772289,0,0,1.2234370708465576,0,0,0.8408399820327759
0.18309134,0,0,1.2234370708465576,0,0,0.3822000026702881
0.183480502,0,0,1.2234370708465576,0,0,0.8408399820327759
0.183785331,0,0,1.2234370708465576,0,0,0.9172800183296204
0.184091494,0,0,1.2234370708465576,0,0,0.611519992351532
0.184425027,0,0,1.2234370708465576,0,0,1.2994799613952637
0.184776022,0,0,1.2234370708465576,0,0,0.5350799560546875
0.18509137,0,0,1.3048399686813354,0,0,0.6879600286483765
0.185425143,0,0,1.3048399686813354,0,0,0.305759996175766
0.185775324,0,0,1.3048399686813354,0,0,1.1466000080108643
0.186098838,0,0,1.3048399686813354,0,0,1.070159912109375
0.187598448,0,0,1.3048399686813354,0,0,1.070159912109375
0.187623114,0,0,1.3048399686813354,0,0,1.070159912109375
0.187646169,0,0,1.3048399686813354,0,0,1.070159912109375
0.187668947,0,0,1.3407529592514038,0,0,1.070159912109375
0.187691817,0,0,1.3407529592514038,0,0,0.6879600286483765
0.188136108,0,0,1.3407529592514038,0,0,0.4586400091648102
0.188450659,0,0,1.3407529592514038,0,0,0.611519992351532
0.188782025,0,0,1.3407529592514038,0,0,0.5350799560546875
0.189158094,0,0,1.3407529592514038,0,0,0.6879600286483765
0.189437924,0,0,1.3407529592514038,0,0,0.6879600286483765
0.189760679,0,0,1.400607943534851,0,0,0.9172800183296204
0.190097267,0,0,1.400607943534851,0,0,0.6879600286483765
0.190449892,0,0,1.400607943534851,0,0,0.7644000053405762
0.190768888,0,0,1.400607943534851,0,0,0.7644000053405762
0.191094532,0,0,1.400607943534851,0,0,0.8408399820327759
0.191477508,0,0,1.400607943534851,0,0,0.6879600286483765
0.191762912,0,0,1.400607943534851,0,0,0.9172800183296204
0.192093482,0,0,1.4939818382263184,0,0,0.7644000053405762
0.192447736,0,0,1.4939818382263184,0,0,0.9937199950218201
0.192760565,0,0,1.4939818382263184,0,0,0.8408399820327759
0.193092043,0,0,1.4939818382263184,0,0,0.8408399820327759
0.193447019,0,0,1.4939818382263184,0,0,1.375920057296753
0.193757312,0,0,1.4939818382263184,0,0,0.9937199950218201
0.194091511,0,0,1.4939818382263184,0,0,0.4586400091648102
0.194446117,0,0,1.5298948287963867,0,0,0.5350799560546875
0.194764613,0,0,1.5298948287963867,0,0,0.2293200045824051
0.195091609,0,0,1.5298948287963867,0,0,0.2293200045824051
0.195473122,0,0,1.5298948287963867,0,0,0.6879600286483765
0.199644771,0,0,1.5298948287963867,0,0,0.6879600286483765
0.199669623,0,0,1.5298948287963867,0,0,0.6879600286483765
0.199699419,0,0,1.5298948287963867,0,0,0.6879600286483765
0.199765418,0,0,1.4484920501708984,0,0,-1.1466000080108643
0.19979301,0,0,1.4484920501708984,0,0,-1.1466000080108643
0.199815751,0,0,1.4484920501708984,0,0,-1.1466000080108643
0.199838417,0,0,1.4484920501708984,0,0,-1.1466000080108643
0.199868287,0,0,1.4484920501708984,0,0,-1.1466000080108643
0.199894805,0,0,1.4484920501708984,0,0,-1.1466000080108643
0.199917972,0,0,1.4484920501708984,0,0,-1.1466000080108643
0.19994099,0,0,1.522712230682373,0,0,-1.1466000080108643
0.199963656,0,0,1.522712230682373,0,0,-1.1466000080108643
0.199986674,0,0,1.522712230682373,0,0,8.637720108032227
0.200101932,0,0,1.522712230682373,0,0,0.6879600286483765
0.200434057,0,0,1.522712230682373,0,0,0.8408399820327759
0.200773738,0,0,1.522712230682373,0,0,1.070159912109375
0.201093345,0,0,1.522712230682373,0,0,0.8408399820327759
0.2014231,0,0,1.3958195447921753,0,0,1.070159912109375
0.201764059,0,0,1.3958195447921753,0,0,0.6879600286483765
0.202091258,0,0,1.3958195447921753,0,0,0.5350799560546875
0.202423291,0,0,1.3958195447921753,0,0,0.6879600286483765
0.202763619,0,0,1.3958195447921753,0,0,0.9937199950218201
0.203090708,0,0,1.3958195447921753,0,0,0.8408399820327759
0.203458184,0,0,1.3958195447921753,0,0,0.9172800183296204
0.20376881,0,0,1.3694833517074585,0,0,0.9937199950218201
0.20408975,0,0,1.3694833517074585,0,0,0.8408399820327759
0.204421338,0,0,1.3694833517074585,0,0,0.5350799560546875
0.204760778,0,0,1.3694833517074585,0,0,0.9172800183296204
0.205089756,0,0,1.3694833517074585,0,0,0.9937199950218201
0.205424196,0,0,1.3694833517074585,0,0,0.8408399820327759
0.205886745,0,0,1.3694833517074585,0,0,1.375920057296753
0.206094872,0,0,1.290474772453308,0,0,0.6879600286483765
0.206425609,0,0,1.290474772453308,0,0,0.9172800183296204
0.206765289,0,0,1.290474772453308,0,0,0.611519992351532
0.207087859,0,0,1.290474772453308,0,0,0.611519992351532
0.207419947,0,0,1.290474772453308,0,0,0.9172800183296204
0.20778085,0,0,1.290474772453308,0,0,0.305759996175766
0.208087013,0,0,1.290474772453308,0,0,0.8408399820327759
0.208419805,0,0,1.213860273361206,0,0,0.305759996175766
0.208755245,0,0,1.213860273361206,0,0,0.7644000053405762
0.209086796,0,0,1.213860273361206,0,0,0.305759996175766
0.209419773,0,0,1.213860273361206,0,0,0
0.209757731,0,0,1.213860273361206,0,0,0
0.210087061,0,0,1.3048399686813354,0,0,1.223039984703064
0.210424019,0,0,1.3048399686813354,0,0,1.1466000080108643
0.210755218,0,0,1.3048399686813354,0,0,1.223039984703064
0.211103399,0,0,1.3048399686813354,0,0,1.223039984703064
0.21143458,0,0,1.3048399686813354,0,0,2.446079969406128
0.211753816,0,0,1.3048399686813354,0,0,0.9172800183296204
0.212086442,0,0,1.4221558570861816,0,0,9.172800064086914
0.212422104,0,0,1.4221558570861816,0,0,0.7644000053405762
0.212753248,0,0,1.4221558570861816,0,0,0.9172800183296204
0.213086558,0,0,1.4221558570861816,0,0,0.8408399820327759
0.213422183,0,0,1.4221558570861816,0,0,0.6879600286483765
0.213753124,0,0,1.4221558570861816,0,0,1.1466000080108643
0.214090545,0,0,1.4221558570861816,0,0,1.070159912109375
0.214420559,0,0,1.5298948287963867,0,0,1.1466000080108643
0.214753129,0,0,1.5298948287963867,0,0,0.611519992351532
0.215090736,0,0,1.5298948287963867,0,0,0.611519992351532
0.215420417,0,0,1.5298948287963867,0,0,0.611519992351532
0.215763801,0,0,1.5298948287963867,0,0,0.6879600286483765
0.21609176,0,0,1.5298948287963867,0,0,0.611519992351532
0.21642044,0,0,1.5298948287963867,0,0,0.7644000053405762
0.216753158,0,0,1.4748282432556152,0,0,0.8408399820327759
0.217090987,0,0,1.4748282432556152,0,0,0.7644000053405762
0.217420409,0,0,1.4748282432556152,0,0,0.8408399820327759
0.217757034,0,0,1.4748282432556152,0,0,0.7644000053405762
0.218086993,0,0,1.4748282432556152,0,0,0.3822000026702881
0.218420173,0,0,1.4748282432556152,0,0,0.4586400091648102
0.218756873,0,0,1.4748282432556152,0,0,0.2293200045824051
0.219089035,0,0,1.4317326545715332,0,0,0.305759996175766
0.219419771,0,0,1.4317326545715332,0,0,0.7644000053405762
0.219759119,0,0,1.4317326545715332,0,0,0.7644000053405762
0.220086578,0,0,1.4317326545715332,0,0,1.375920057296753
0.220419684,0,0,1.4317326545715332,0,0,0.2293200045824051
0.220756069,0,0,1.4317326545715332,0,0,1.070159912109375
0.221086453,0,0,1.4317326545715332,0,0,0.5350799560546875
0.221419856,0,0,1.434126853942871,0,0,0
0.221758056,0,0,1.434126853942871,0,0,0.9172800183296204
0.222086366,0,0,1.434126853942871,0,0,1.5288000106811523
0.222423677,0,0,1.434126853942871,0,0,1.1466000080108643
0.222754135,0,0,1.434126853942871,0,0,1.223039984703064
0.223086501,0,0,1.434126853942871,0,0,1.605239987373352
0.223434219,0,0,1.434126853942871,0,0,0.8408399820327759
0.223755011,0,0,1.434126853942871,0,0,1.9874399900436401
0.22408647,0,0,1.2306196689605713,0,0,0.3822000026702881
0.224423521,0,0,1.2306196689605713,0,0,0.9172800183296204
0.22475359,0,0,1.2306196689605713,0,0,1.1466000080108643
0.225086475,0,0,1.2306196689605713,0,0,1.375920057296753
0.225425063,0,0,1.2306196689605713,0,0,0.8408399820327759
0.225753522,0,0,1.2306196689605713,0,0,0.9172800183296204
0.226086425,0,0,1.2306196689605713,0,0,0.7644000053405762
0.226422124,0,0,1.2425906658172607,0,0,0.9172800183296204
0.226753046,0,0,1.2425906658172607,0,0,0.4586400091648102
0.227086486,0,0,1.2425906658172607,0,0,0.611519992351532
0.227435018,0,0,1.2425906658172607,0,0,0.5350799560546875
0.227753366,0,0,1.2425906658172607,0,0,0.6879600286483765
0.228087954,0,0,1.2425906658172607,0,0,0.5350799560546875
0.228554022,0,0,1.2425906658172607,0,0,1.758120059967041
0.228753853,0,0,1.2042834758758545,0,0,0.6879600286483765
0.229092793,0,0,1.2042834758758545,0,0,0.6879600286483765
0.229418733,0,0,1.2042834758758545,0,0,0.5350799560546875
0.229751969,0,0,1.2042834758758545,0,0,0.611519992351532
0.23009078,0,0,1.2042834758758545,0,0,0.6879600286483765
0.230418646,0,0,1.2042834758758545,0,0,0.8408399820327759
0.230751938,0,0,1.2042834758758545,0,0,0.6879600286483765
0.231087304,0,0,1.2521674633026123,0,0,0
0.231418596,0,0,1.2521674633026123,0,0,0.5350799560546875
0.23175711,0,0,1.2521674633026123,0,0,1.223039984703064
0.23208705,0,0,1.2521674633026123,0,0,1.1466000080108643
0.232418657,0,0,1.2521674633026123,0,0,0.5350799560546875
0.232755411,0,0,1.2521674633026123,0,0,1.2994799613952637
0.233085759,0,0,1.2521674633026123,0,0,0.0764399990439415
0.233418403,0,0,1.290474772453308,0,0,0.5350799560546875
0.233757324,0,0,1.290474772453308,0,0,0.4586400091648102
0.234085135,0,0,1.290474772453308,0,0,0.9937199950218201
0.23441863,0,0,1.290474772453308,0,0,0.8408399820327759
0.234751941,0,0,1.290474772453308,0,0,1.6816799640655518
0.235086214,0,0,1.290474772453308,0,0,1.452359914779663
0.235419191,0,0,1.290474772453308,0,0,0.3822000026702881
0.23575452,0,0,1.278503656387329,0,0,1.6816799640655518
0.236085609,0,0,1.278503656387329,0,0,9.554999351501465
0.236425308,0,0,1.278503656387329,0,0,0.9172800183296204
0.23675197,0,0,1.278503656387329,0,0,0.7644000053405762
0.237085207,0,0,1.278503656387329,0,0,0.8408399820327759
0.237421591,0,0,1.278503656387329,0,0,0.611519992351532
0.23775505,0,0,1.278503656387329,0,0,0.7644000053405762
0.238086712,0,0,1.3096283674240112,0,0,0.9172800183296204
0.238419263,0,0,1.3096283674240112,0,0,0.5350799560546875
0.238751888,0,0,1.3096283674240112,0,0,0.611519992351532
0.239087217,0,0,1.3096283674240112,0,0,0.8408399820327759
0.239419065,0,0,1.3096283674240112,0,0,0.7644000053405762
0.239752764,0,0,1.3096283674240112,0,0,0.3822000026702881
0.240087075,0,0,1.3096283674240112,0,0,0.611519992351532
0.240419052,0,0,1.4628572463989258,0,0,0.7644000053405762
0.24075327,0,0,1.4628572463989258,0,0,0.8408399820327759
0.241085599,0,0,1.4628572463989258,0,0,1.1466000080108643
0.241418576,0,0,1.4628572463989258,0,0,0.7644000053405762
0.241755997,0,0,1.4628572463989258,0,0,0.611519992351532
0.242085141,0,0,1.4628572463989258,0,0,0.0764399990439415
0.242418618,0,0,1.4628572463989258,0,0,0.0764399990439415
0.242755114,0,0,1.37906014919281,0,0,0.5350799560546875
0.243085295,0,0,1.37906014919281,0,0,0.8408399820327759
0.243418457,0,0,1.37906014919281,0,0,0.9937199950218201
0.243756841,0,0,1.37906014919281,0,0,0.305759996175766
0.2440868,0,0,1.37906014919281,0,0,1.223039984703064
0.244423592,0,0,1.37906014919281,0,0,1.1466000080108643
0.244753902,0,0,1.37906014919281,0,0,1.2994799613952637
0.245086935,0,0,1.37906014919281,0,0,0.305759996175766
0.245425097,0,0,1.4772224426269531,0,0,1.2994799613952637
0.245753463,0,0,1.4772224426269531,0,0,0
0.246086496,0,0,1.4772224426269531,0,0,0.0764399990439415
0.24642514,0,0,1.4772224426269531,0,0,0
0.246753747,0,0,1.4772224426269531,0,0,1.5288000106811523
0.247086483,0,0,1.4772224426269531,0,0,1.758120059967041
0.247429034,0,0,1.4772224426269531,0,0,1.6816799640655518
0.247754011,0,0,1.4293384552001953,0,0,1.9109998941421509
0.248092896,0,0,1.4293384552001953,0,0,0.5350799560546875
0.248480002,0,0,1.4293384552001953,0,0,0.6879600286483765
0.248754387,0,0,1.4293384552001953,0,0,0.5350799560546875
0.249093364,0,0,1.4293384552001953,0,0,0.7644000053405762
0.249419934,0,0,1.4293384552001953,0,0,0.7644000053405762
0.249753466,0,0,1.4293384552001953,0,0,0.9172800183296204
0.250102999,0,0,1.2545616626739502,0,0,0.5350799560546875
0.250420476,0,0,1.2545616626739502,0,0,0.6879600286483765
0.25075312,0,0,1.2545616626739502,0,0,0.5350799560546875
0.251088949,0,0,1.2545616626739502,0,0,0.611519992351532
0.251419648,0,0,1.2545616626739502,0,0,0.611519992351532
0.251757403,0,0,1.2545616626739502,0,0,0.8408399820327759
0.252087714,0,0,1.2545616626739502,0,0,0.9937199950218201
0.252419783,0,0,1.37906014919281,0,0,0.6879600286483765
0.252757112,0,0,1.37906014919281,0,0,0.305759996175766
0.253088978,0,0,1.37906014919281,0,0,0.7644000053405762
0.253419863,0,0,1.37906014919281,0,0,1.1466000080108643
0.253758562,0,0,1.37906014919281,0,0,0.9937199950218201
0.254087058,0,0,1.37906014919281,0,0,0.8408399820327759
0.254419868,0,0,1.37906014919281,0,0,0.8408399820327759
0.254755475,0,0,1.292868971824646,0,0,0.8408399820327759
0.255086378,0,0,1.292868971824646,0,0,0.5350799560546875
0.255419966,0,0,1.292868971824646,0,0,0.9172800183296204
0.255858775,0,0,1.292868971824646,0,0,-0.4586400091648102
0.256090661,0,0,1.292868971824646,0,0,0.5350799560546875
0.256420361,0,0,1.292868971824646,0,0,0.611519992351532
0.257101296,0,0,1.292868971824646,0,0,0.611519992351532
0.257348626,0,0,1.1994950771331787,0,0,0.5350799560546875
0.257376848,0,0,1.1994950771331787,0,0,0.6879600286483765
0.257762917,0,0,1.1994950771331787,0,0,0.7644000053405762
0.258098524,0,0,1.1994950771331787,0,0,0
0.258426279,0,0,1.1994950771331787,0,0,0.2293200045824051
0.258755404,0,0,1.1994950771331787,0,0,-0.152879998087883
0.259094103,0,0,1.1994950771331787,0,0,0.0764399990439415
0.259440025,0,0,1.280897855758667,0,0,1.8345600366592407
0.259760132,0,0,1.280897855758667,0,0,0.7644000053405762
0.260108757,0,0,1.280897855758667,0,0,0.7644000053405762
0.260422678,0,0,1.280897855758667,0,0,0.9937199950218201
0.260755711,0,0,1.280897855758667,0,0,0.3822000026702881
0.26109917,0,0,1.280897855758667,0,0,0.4586400091648102
0.261421832,0,0,1.280897855758667,0,0,0.6879600286483765
0.261755068,0,0,1.37906014919281,0,0,0.611519992351532
0.262094045,0,0,1.37906014919281,0,0,0.5350799560546875
0.262421652,0,0,1.37906014919281,0,0,1.375920057296753
0.262759148,0,0,1.37906014919281,0,0,1.070159912109375
0.263093421,0,0,1.37906014919281,0,0,0.8408399820327759
0.26343375,0,0,1.37906014919281,0,0,0.305759996175766
0.263759209,0,0,1.37906014919281,0,0,0.4586400091648102
0.264093686,0,0,1.4077905416488647,0,0,0.611519992351532
0.26442157,0,0,1.4077905416488647,0,0,0.5350799560546875
0.264758936,0,0,1.4077905416488647,0,0,0.8408399820327759
0.265093191,0,0,1.4077905416488647,0,0,0.9937199950218201
0.265421594,0,0,1.4077905416488647,0,0,1.1466000080108643
0.265758738,0,0,1.4077905416488647,0,0,0.9172800183296204
0.266094252,0,0,1.4077905416488647,0,0,0.4586400091648102
0.266421748,0,0,1.434126853942871,0,0,0.6879600286483765
0.266758984,0,0,1.434126853942871,0,0,0.611519992351532
0.267093184,0,0,1.434126853942871,0,0,0.9937199950218201
0.267432068,0,0,1.434126853942871,0,0,0.6879600286483765
0.267772471,0,0,1.434126853942871,0,0,0.5350799560546875
0.26810217,0,0,1.434126853942871,0,0,1.070159912109375
0.268421462,0,0,1.434126853942871,0,0,1.5288000106811523
0.268757495,0,0,1.3886369466781616,0,0,1.2994799613952637
0.269095194,0,0,1.3886369466781616,0,0,0.611519992351532
0.26942156,0,0,1.3886369466781616,0,0,0.6879600286483765
0.269754926,0,0,1.3886369466781616,0,0,0.0764399990439415
0.270091626,0,0,1.3886369466781616,0,0,1.223039984703064
0.270421714,0,0,1.3886369466781616,0,0,0.2293200045824051
0.270758061,0,0,1.3886369466781616,0,0,0.7644000053405762
0.271092205,0,0,1.50355863571167,0,0,0.611519992351532
0.271439608,0,0,1.50355863571167,0,0,1.375920057296753
0.271759196,0,0,1.50355863571167,0,0,1.452359914779663
0.272092951,0,0,1.50355863571167,0,0,0.4586400091648102
0.272421484,0,0,1.50355863571167,0,0,0.6879600286483765
0.272758813,0,0,1.50355863571167,0,0,0.5350799560546875
0.273092346,0,0,1.50355863571167,0,0,1.223039984703064
0.273421564,0,0,1.3646949529647827,0,0,0.6879600286483765
0.273758707,0,0,1.3646949529647827,0,0,0.9172800183296204
0.27409224,0,0,1.3646949529647827,0,0,0.7644000053405762
0.27442168,0,0,1.3646949529647827,0,0,0.5350799560546875
0.274758805,0,0,1.3646949529647827,0,0,0.5350799560546875
0.275093708,0,0,1.3646949529647827,0,0,0.6879600286483765
0.275432648,0,0,1.3646949529647827,0,0,0.9172800183296204
0.275759107,0,0,1.3646949529647827,0,0,0.7644000053405762
0.276092751,0,0,1.259350061416626,0,0,1.1466000080108643
0.276421617,0,0,1.259350061416626,0,0,0.7644000053405762
0.276758835,0,0,1.259350061416626,0,0,0.305759996175766
0.277092219,0,0,1.259350061416626,0,0,0.9172800183296204
0.277421789,0,0,1.259350061416626,0,0,1.070159912109375
0.277758822,0,0,1.259350061416626,0,0,0.8408399820327759
0.278092354,0,0,1.259350061416626,0,0,0.611519992351532
0.278421554,0,0,1.3742717504501343,0,0,1.1466000080108643
0.278758883,0,0,1.3742717504501343,0,0,0.9172800183296204
0.279094841,0,0,1.3742717504501343,0,0,1.2994799613952637
0.279431651,0,0,1.3742717504501343,0,0,0.4586400091648102
0.279759221,0,0,1.3742717504501343,0,0,0.305759996175766
0.280092624,0,0,1.3742717504501343,0,0,0.7644000053405762
0.280421472,0,0,1.3742717504501343,0,0,0.8408399820327759
0.280759264,0,0,1.3048399686813354,0,0,0.8408399820327759
0.281092704,0,0,1.3048399686813354,0,0,0.152879998087883
0.281421644,0,0,1.3048399686813354,0,0,1.070159912109375
0.281759195,0,0,1.3048399686813354,0,0,0.5350799560546875
0.282092561,0,0,1.3048399686813354,0,0,1.1466000080108643
0.282421668,0,0,1.3048399686813354,0,0,0.152879998087883
0.282759367,0,0,1.3048399686813354,0,0,-0.3822000026702881
0.283092752,0,0,1.2832920551300049,0,0,0.152879998087883
0.283431692,0,0,1.2832920551300049,0,0,1.375920057296753
0.283755632,0,0,1.2832920551300049,0,0,0.305759996175766
0.284093405,0,0,1.2832920551300049,0,0,0.9937199950218201
0.28442153,0,0,1.2832920551300049,0,0,0.9172800183296204
0.284758933,0,0,1.2832920551300049,0,0,0.5350799560546875
0.28509317,0,0,1.2832920551300049,0,0,0.5350799560546875
0.285421499,0,0,1.3886369466781616,0,0,0.6879600286483765
0.285758846,0,0,1.3886369466781616,0,0,0.5350799560546875
0.286092805,0,0,1.3886369466781616,0,0,0.3822000026702881
0.286421375,0,0,1.3886369466781616,0,0,0.6879600286483765
0.286758815,0,0,1.3886369466781616,0,0,0.9172800183296204
0.287092884,0,0,1.3886369466781616,0,0,0.8408399820327759
0.287431584,0,0,1.3886369466781616,0,0,0.9172800183296204
0.287758894,0,0,1.4317326545715332,0,0,0.6879600286483765
0.28809476,0,0,1.4317326545715332,0,0,1.070159912109375
0.28842183,0,0,1.4317326545715332,0,0,0.5350799560546875
0.288758844,0,0,1.4317326545715332,0,0,0.5350799560546875
0.289092951,0,0,1.4317326545715332,0,0,0.7644000053405762
0.289423928,0,0,1.4317326545715332,0,0,1.070159912109375
0.289758868,0,0,1.4317326545715332,0,0,1.070159912109375
0.290092308,0,0,1.479616641998291,0,0,0.305759996175766
0.290421581,0,0,1.479616641998291,0,0,0.9172800183296204
0.290758836,0,0,1.479616641998291,0,0,0.6879600286483765
0.291092202,0,0,1.479616641998291,0,0,1.452359914779663
0.291432087,0,0,1.479616641998291,0,0,0.152879998087883
0.291759119,0,0,1.479616641998291,0,0,0
0.292092708,0,0,1.479616641998291,0,0,0.5350799560546875
0.292421592,0,0,1.460463047027588,0,0,1.223039984703064
0.292765069,0,0,1.460463047027588,0,0,1.5288000106811523
0.293098324,0,0,1.460463047027588,0,0,1.452359914779663
0.293422246,0,0,1.460463047027588,0,0,1.070159912109375
0.293754853,0,0,1.460463047027588,0,0,0.4586400091648102
0.294092681,0,0,1.460463047027588,0,0,1.5288000106811523
0.294421677,0,0,1.460463047027588,0,0,0
0.294758821,0,0,1.3910311460494995,0,0,0
0.295092168,0,0,1.3910311460494995,0,0,0.9937199950218201
0.295432497,0,0,1.3910311460494995,0,0,1.2994799613952637
0.295758826,0,0,1.3910311460494995,0,0,1.8345600366592407
0.296092507,0,0,1.3910311460494995,0,0,0.5350799560546875
0.296422095,0,0,1.3910311460494995,0,0,0.7644000053405762
0.296759017,0,0,1.3910311460494995,0,0,0.9172800183296204
0.297093864,0,0,1.3910311460494995,0,0,0.8408399820327759
0.29742149,0,0,1.4676456451416016,0,0,0.6879600286483765
0.297758652,0,0,1.4676456451416016,0,0,0.7644000053405762
0.298091888,0,0,1.4676456451416016,0,0,0.611519992351532
0.298421384,0,0,1.4676456451416016,0,0,0.9172800183296204
0.298758546,0,0,1.4676456451416016,0,0,0.8408399820327759
0.299091875,0,0,1.4676456451416016,0,0,0.6879600286483765
0.299433574,0,0,1.4676456451416016,0,0,0.611519992351532
0.299761385,0,0,1.2689268589019775,0,0,0.7644000053405762
0.300094714,0,0,1.2689268589019775,0,0,0.9937199950218201
0.30042171,0,0,1.2689268589019775,0,0,0.9172800183296204
0.300759224,0,0,1.2689268589019775,0,0,0.8408399820327759
0.301092442,0,0,1.2689268589019775,0,0,0.7644000053405762
0.301421789,0,0,1.2689268589019775,0,0,0.7644000053405762
0.301759229,0,0,1.2689268589019775,0,0,1.223039984703064
0.302092243,0,0,1.3120225667953491,0,0,0.5350799560546875
0.30242148,0,0,1.3120225667953491,0,0,0.152879998087883
0.30275929,0,0,1.3120225667953491,0,0,0.611519992351532
0.30309286,0,0,1.3120225667953491,0,0,1.375920057296753
0.303428855,0,0,1.3120225667953491,0,0,0.5350799560546875
0.303759258,0,0,1.3120225667953491,0,0,0.2293200045824051
0.304092958,0,0,1.3120225667953491,0,0,0.3822000026702881
0.304421472,0,0,1.3838485479354858,0,0,1.223039984703064
0.304759375,0,0,1.3838485479354858,0,0,1.375920057296753
0.305092815,0,0,1.3838485479354858,0,0,0.0764399990439415
0.305421459,0,0,1.3838485479354858,0,0,0.5350799560546875
0.305759047,0,0,1.3838485479354858,0,0,0.8408399820327759
0.306093802,0,0,1.3838485479354858,0,0,1.070159912109375
0.306421631,0,0,1.3838485479354858,0,0,0
0.306758627,0,0,1.2425906658172607,0,0,0.6879600286483765
0.307092344,0,0,1.2425906658172607,0,0,0.0764399990439415
0.307431044,0,0,1.2425906658172607,0,0,2.2932000160217285
0.307758743,0,0,1.2425906658172607,0,0,2.3696401119232178
0.308092924,0,0,1.2425906658172607,0,0,0.9937199950218201
0.308421734,0,0,1.2425906658172607,0,0,0.6879600286483765
0.308758878,0,0,1.2425906658172607,0,0,0.6879600286483765
0.309092781,0,0,1.316810965538025,0,0,0.9172800183296204
0.309421388,0,0,1.316810965538025,0,0,0.6879600286483765
0.309758884,0,0,1.316810965538025,0,0,0.5350799560546875
0.310095342,0,0,1.316810965538025,0,0,0.6879600286483765
0.310421671,0,0,1.316810965538025,0,0,0.8408399820327759
0.310759056,0,0,1.316810965538025,0,0,0.9172800183296204
0.311093107,0,0,1.316810965538025,0,0,0.9172800183296204
0.31143175,0,0,1.3311761617660522,0,0,0.6879600286483765
0.311758802,0,0,1.3311761617660522,0,0,0.7644000053405762
0.312092353,0,0,1.3311761617660522,0,0,0.7644000053405762
0.312421515,0,0,1.3311761617660522,0,0,0.611519992351532
0.312758752,0,0,1.3311761617660522,0,0,0.6879600286483765
0.313092229,0,0,1.3311761617660522,0,0,0.5350799560546875
0.313421595,0,0,1.3311761617660522,0,0,0.9172800183296204
0.313758609,0,0,1.3311761617660522,0,0,1.1466000080108643
0.314098327,0,0,1.4197616577148438,0,0,1.1466000080108643
0.314421471,0,0,1.4197616577148438,0,0,0.4586400091648102
0.314758892,0,0,1.4197616577148438,0,0,0.7644000053405762
0.315092314,0,0,1.4197616577148438,0,0,0.8408399820327759
0.315431772,0,0,1.4197616577148438,0,0,0.305759996175766
0.31575899,0,0,1.4197616577148438,0,0,0.152879998087883
0.316092356,0,0,1.4197616577148438,0,0,0.611519992351532
0.316421592,0,0,1.5849615335464478,0,0,1.2994799613952637
0.316758718,0,0,1.5849615335464478,0,0,1.758120059967041
0.317092398,0,0,1.5849615335464478,0,0,0.7644000053405762
0.317421431,0,0,1.5849615335464478,0,0,0.0764399990439415
0.317758686,0,0,1.5849615335464478,0,0,0.6879600286483765
0.318092311,0,0,1.5849615335464478,0,0,1.605239987373352
0.318422048,0,0,1.5849615335464478,0,0,0.152879998087883
0.318758562,0,0,1.4963760375976563,0,0,1.1466000080108643
0.319093872,0,0,1.4963760375976563,0,0,0.2293200045824051
0.319432368,0,0,1.4963760375976563,0,0,2.14031982421875
0.319758864,0,0,1.4963760375976563,0,0,2.3696401119232178
0.320092193,0,0,1.4963760375976563,0,0,1.070159912109375
0.320423836,0,0,1.4963760375976563,0,0,0.6879600286483765
0.320758795,0,0,1.4963760375976563,0,0,0.6879600286483765
0.321092253,0,0,1.460463047027588,0,0,0.8408399820327759
0.321421416,0,0,1.460463047027588,0,0,0.4586400091648102
0.321758763,0,0,1.460463047027588,0,0,0.9937199950218201
0.322092055,0,0,1.460463047027588,0,0,0.7644000053405762
0.322421532,0,0,1.460463047027588,0,0,0.8408399820327759
0.322758639,0,0,1.460463047027588,0,0,1.1466000080108643
0.323092264,0,0,1.460463047027588,0,0,1.070159912109375
0.323431501,0,0,1.525106430053711,0,0,0.9172800183296204
0.323759274,0,0,1.525106430053711,0,0,0.4586400091648102
0.324092899,0,0,1.525106430053711,0,0,0.8408399820327759
0.324421506,0,0,1.525106430053711,0,0,0.8408399820327759
0.324759205,0,0,1.525106430053711,0,0,0.5350799560546875
0.325092942,0,0,1.525106430053711,0,0,0.6879600286483765
0.325421567,0,0,1.525106430053711,0,0,0.9172800183296204
0.325759211,0,0,1.3120225667953491,0,0,0.6879600286483765
0.326092429,0,0,1.3120225667953491,0,0,0.3822000026702881
0.326421684,0,0,1.3120225667953491,0,0,0.6879600286483765
0.326758661,0,0,1.3120225667953491,0,0,0.6879600286483765
0.327092323,0,0,1.3120225667953491,0,0,1.2994799613952637
0.327431022,0,0,1.3120225667953491,0,0,0.7644000053405762
0.327759055,0,0,1.3120225667953491,0,0,0.4586400091648102
0.328094328,0,0,1.3024457693099976,0,0,0.305759996175766
0.328421731,0,0,1.3024457693099976,0,0,0.8408399820327759
0.328758931,0,0,1.3024457693099976,0,0,1.223039984703064
0.329093037,0,0,1.3024457693099976,0,0,0.3822000026702881
0.329421496,0,0,1.3024457693099976,0,0,0.6879600286483765
0.329758807,0,0,1.3024457693099976,0,0,0.611519992351532
0.330092469,0,0,1.3024457693099976,0,0,1.8345600366592407
0.330421613,0,0,1.2713210582733154,0,0,0.2293200045824051
0.330760923,0,0,1.2713210582733154,0,0,0
0.331094659,0,0,1.2713210582733154,0,0,1.5288000106811523
0.331431359,0,0,1.2713210582733154,0,0,1.1466000080108643
0.331759206,0,0,1.2713210582733154,0,0,2.06387996673584
0.332092906,0,0,1.2713210582733154,0,0,0.9172800183296204
0.332421698,0,0,1.2713210582733154,0,0,0.9937199950218201
0.332759008,0,0,1.1803414821624756,0,0,0.9937199950218201
0.333093059,0,0,1.1803414821624756,0,0,0.7644000053405762
0.333421425,0,0,1.1803414821624756,0,0,0.5350799560546875
0.333758643,0,0,1.1803414821624756,0,0,0.7644000053405762
0.334092065,0,0,1.1803414821624756,0,0,0.7644000053405762
0.334421505,0,0,1.1803414821624756,0,0,0.6879600286483765
0.334758834,0,0,1.1803414821624756,0,0,0.7644000053405762
0.335092329,0,0,1.1803414821624756,0,0,0.611519992351532
0.335438139,0,0,1.292868971824646,0,0,0.7644000053405762
0.335758895,0,0,1.292868971824646,0,0,0.9172800183296204
0.336092279,0,0,1.292868971824646,0,0,0.8408399820327759
0.336421497,0,0,1.292868971824646,0,0,0.2293200045824051
0.336758363,0,0,1.292868971824646,0,0,0.3822000026702881
0.337092692,0,0,1.292868971824646,0,0,0.3822000026702881
0.337421558,0,0,1.292868971824646,0,0,0.5350799560546875
0.337758794,0,0,1.3646949529647827,0,0,0.9172800183296204
0.338092253,0,0,1.3646949529647827,0,0,0.8408399820327759
0.338421452,0,0,1.3646949529647827,0,0,0.9172800183296204
0.338758652,0,0,1.3646949529647827,0,0,0.152879998087883
0.339092092,0,0,1.3646949529647827,0,0,0.611519992351532
0.339432272,0,0,1.3646949529647827,0,0,0.2293200045824051
0.339758731,0,0,1.3646949529647827,0,0,0.305759996175766
0.340091634,0,0,1.4532804489135742,0,0,0.6879600286483765
0.340421593,0,0,1.4532804489135742,0,0,1.1466000080108643
0.340758533,0,0,1.4532804489135742,0,0,1.452359914779663
0.341094251,0,0,1.4532804489135742,0,0,1.223039984703064
0.341421561,0,0,1.4532804489135742,0,0,1.2994799613952637
0.341844111,0,0,1.4532804489135742,0,0,0.611519992351532
0.342090608,0,0,1.4532804489135742,0,0,0.3822000026702881
0.3424254,0,0,1.4915876388549805,0,0,0.0764399990439415
0.342759562,0,0,1.4915876388549805,0,0,1.5288000106811523
0.34308841,0,0,1.4915876388549805,0,0,1.5288000106811523
0.343434979,0,0,1.4915876388549805,0,0,1.5288000106811523
0.343768049,0,0,1.4915876388549805,0,0,1.1466000080108643
0.344088322,0,0,1.4915876388549805,0,0,1.758120059967041
0.344421429,0,0,1.4915876388549805,0,0,0.7644000053405762
0.344760906,0,0,1.3694833517074585,0,0,0.6879600286483765
0.345088254,0,0,1.3694833517074585,0,0,0.9172800183296204
0.345425601,0,0,1.3694833517074585,0,0,0.5350799560546875
0.345767893,0,0,1.3694833517074585,0,0,0.611519992351532
0.346088222,0,0,1.3694833517074585,0,0,0.8408399820327759
0.346421403,0,0,1.3694833517074585,0,0,1.070159912109375
0.346759306,0,0,1.3694833517074585,0,0,0.5350799560546875
0.347088079,0,0,1.5275006294250488,0,0,0.6879600286483765
0.347433704,0,0,1.5275006294250488,0,0,0.6879600286483765
0.34776657,0,0,1.5275006294250488,0,0,0.8408399820327759
0.34808827,0,0,1.5275006294250488,0,0,0.611519992351532
0.348421599,0,0,1.5275006294250488,0,0,0.3822000026702881
0.348759317,0,0,1.5275006294250488,0,0,0.9172800183296204
0.349088238,0,0,1.5275006294250488,0,0,0.611519992351532
0.349425401,0,0,1.4652514457702637,0,0,0.7644000053405762
0.349758544,0,0,1.4652514457702637,0,0,0.152879998087883
0.350088133,0,0,1.4652514457702637,0,0,1.070159912109375
0.350425499,0,0,1.4652514457702637,0,0,0.9937199950218201
0.350758772,0,0,1.4652514457702637,0,0,1.070159912109375
0.351088231,0,0,1.4652514457702637,0,0,0.8408399820327759
0.351436356,0,0,1.4652514457702637,0,0,0.152879998087883
0.351754592,0,0,1.3503297567367554,0,0,0.3822000026702881
0.352087903,0,0,1.3503297567367554,0,0,1.070159912109375
0.352420324,0,0,1.3503297567367554,0,0,1.5288000106811523
0.352753524,0,0,1.3503297567367554,0,0,1.5288000106811523
0.353087445,0,0,1.3503297567367554,0,0,1.2994799613952637
0.353420107,0,0,1.3503297567367554,0,0,0.0764399990439415
0.353753548,0,0,1.3503297567367554,0,0,0.611519992351532
0.354087173,0,0,1.436521053314209,0,0,0.6879600286483765
0.354420039,0,0,1.436521053314209,0,0,0.4586400091648102
0.354753479,0,0,1.436521053314209,0,0,0.0764399990439415
0.355086882,0,0,1.436521053314209,0,0,1.2994799613952637
0.35542034,0,0,1.436521053314209,0,0,1.5288000106811523
0.35576354,0,0,1.436521053314209,0,0,1.6816799640655518
0.356087072,0,0,1.436521053314209,0,0,1.605239987373352
0.356420809,0,0,1.2665326595306396,0,0,0.8408399820327759
0.356753453,0,0,1.2665326595306396,0,0,0.9937199950218201
0.357086856,0,0,1.2665326595306396,0,0,0.9172800183296204
0.357420777,0,0,1.2665326595306396,0,0,0.3822000026702881
0.357753384,0,0,1.2665326595306396,0,0,0.3822000026702881
0.35808662,0,0,1.2665326595306396,0,0,0.7644000053405762
0.358420616,0,0,1.2665326595306396,0,0,0.6879600286483765
0.358753593,0,0,1.2665326595306396,0,0,0.9172800183296204
0.359086941,0,0,1.259350061416626,0,0,0.8408399820327759
0.35942064,0,0,1.259350061416626,0,0,0.9172800183296204
0.359764228,0,0,1.259350061416626,0,0,0.611519992351532
0.360087224,0,0,1.259350061416626,0,0,0.4586400091648102
0.360420553,0,0,1.3335703611373901,0,0,0.3822000026702881
0.360753567,0,0,1.3335703611373901,0,0,0.5350799560546875
0.361087081,0,0,1.3335703611373901,0,0,0.7644000053405762
0.361420558,0,0,1.3335703611373901,0,0,0.7644000053405762
0.361755813,0,0,1.3335703611373901,0,0,1.375920057296753
0.362087031,0,0,1.3335703611373901,0,0,0.9172800183296204
0.362420304,0,0,1.3335703611373901,0,0,0.6879600286483765
0.362753559,0,0,1.3239935636520386,0,0,0.7644000053405762
0.363086833,0,0,1.3239935636520386,0,0,0.8408399820327759
0.363420143,0,0,1.3239935636520386,0,0,0.4586400091648102
0.363764157,0,0,1.3239935636520386,0,0,0.4586400091648102
0.364086949,0,0,1.3239935636520386,0,0,0.9937199950218201
0.364420185,0,0,1.3239935636520386,0,0,1.070159912109375
0.364753866,0,0,1.3239935636520386,0,0,1.2994799613952637
0.365086936,0,0,1.3958195447921753,0,0,1.452359914779663
0.365420098,0,0,1.3958195447921753,0,0,0.5350799560546875
0.365754094,0,0,1.3958195447921753,0,0,0.611519992351532
0.366086886,0,0,1.3958195447921753,0,0,0.5350799560546875
0.366420122,0,0,1.3958195447921753,0,0,0.3822000026702881
0.36675397,0,0,1.3958195447921753,0,0,0
0.367086688,0,0,1.3958195447921753,0,0,1.223039984703064
0.367420146,0,0,1.3958195447921753,0,0,1.223039984703064
0.367764308,0,0,1.4460978507995605,0,0,2.3696401119232178
0.368086878,0,0,1.4460978507995605,0,0,1.758120059967041
0.368420244,0,0,1.4460978507995605,0,0,0.6879600286483765
0.368753888,0,0,1.4460978507995605,0,0,0.4586400091648102
0.369086828,0,0,1.4460978507995605,0,0,0.5350799560546875
0.369420138,0,0,1.4460978507995605,0,0,0.6879600286483765
0.369753467,0,0,1.4460978507995605,0,0,0.6879600286483765
0.370087037,0,0,1.4173674583435059,0,0,1.070159912109375
0.370420144,0,0,1.4173674583435059,0,0,0.9172800183296204
0.370753584,0,0,1.4173674583435059,0,0,0.5350799560546875
0.371087357,0,0,1.4173674583435059,0,0,0.4586400091648102
0.371420149,0,0,1.4173674583435059,0,0,0.8408399820327759
0.3717637,0,0,1.4173674583435059,0,0,0.8408399820327759
0.372089789,0,0,1.4173674583435059,0,0,0.7644000053405762
0.372420507,0,0,1.434126853942871,0,0,0.3822000026702881
0.372753854,0,0,1.434126853942871,0,0,0.4586400091648102
0.373087368,0,0,1.434126853942871,0,0,0.6879600286483765
0.373420234,0,0,1.434126853942871,0,0,1.1466000080108643
0.373753526,0,0,1.434126853942871,0,0,0.611519992351532
0.374087374,0,0,1.434126853942871,0,0,1.070159912109375
0.374420091,0,0,1.434126853942871,0,0,0.9937199950218201
0.374753569,0,0,1.2617442607879639,0,0,0.6879600286483765
0.375087342,0,0,1.2617442607879639,0,0,0.3822000026702881
0.375420356,0,0,1.2617442607879639,0,0,0.6879600286483765
0.375763815,0,0,1.2617442607879639,0,0,0.6879600286483765
0.376087329,0,0,1.2617442607879639,0,0,0.611519992351532
0.376420269,0,0,1.2617442607879639,0,0,1.1466000080108643
0.376753487,0,0,1.2617442607879639,0,0,0.6879600286483765
0.377086908,0,0,1.2186486721038818,0,0,1.5288000106811523
0.377420756,0,0,1.2186486721038818,0,0,1.9109998941421509
0.377753492,0,0,1.2186486721038818,0,0,0.5350799560546875
0.378086895,0,0,1.2186486721038818,0,0,0.2293200045824051
0.378420706,0,0,1.2186486721038818,0,0,0.5350799560546875
0.378753516,0,0,1.2186486721038818,0,0,-0.152879998087883
0.379086752,0,0,1.2186486721038818,0,0,0
0.379420656,0,0,1.3192051649093628,0,0,0
0.37976367,0,0,1.3192051649093628,0,0,0.7644000053405762
0.38008685,0,0,1.3192051649093628,0,0,1.9874399900436401
0.380420642,0,0,1.3192051649093628,0,0,0.7644000053405762
0.380753379,0,0,1.3192051649093628,0,0,0.9172800183296204
0.381086874,0,0,1.3192051649093628,0,0,0.8408399820327759
0.381428055,0,0,1.3192051649093628,0,0,0.7644000053405762
0.381754032,0,0,1.2401964664459229,0,0,0.6879600286483765
0.382087084,0,0,1.2401964664459229,0,0,0.611519992351532
0.382423042,0,0,1.2401964664459229,0,0,0.6879600286483765
0.382766426,0,0,1.2401964664459229,0,0,0.6879600286483765
0.383088848,0,0,1.2401964664459229,0,0,0.5350799560546875
0.383420307,0,0,1.2401964664459229,0,0,0.8408399820327759
0.383767636,0,0,1.2401964664459229,0,0,1.070159912109375
0.384086983,0,0,1.259350061416626,0,0,0.611519992351532
0.384420201,0,0,1.259350061416626,0,0,0.8408399820327759
0.38475416,0,0,1.259350061416626,0,0,0.7644000053405762
0.385086711,0,0,1.259350061416626,0,0,0.5350799560546875
0.385420355,0,0,1.259350061416626,0,0,0.5350799560546875
0.385754035,0,0,1.259350061416626,0,0,0.9172800183296204
0.386086883,0,0,1.259350061416626,0,0,1.1466000080108643
0.386420323,0,0,1.259350061416626,0,0,1.2994799613952637
0.386754096,0,0,1.3886369466781616,0,0,1.070159912109375
0.387086722,0,0,1.3886369466781616,0,0,0.4586400091648102
0.387420143,0,0,1.3886369466781616,0,0,0.8408399820327759
0.38776475,0,0,1.3886369466781616,0,0,0.611519992351532
0.388086968,0,0,1.3886369466781616,0,0,0.305759996175766
0.388420204,0,0,1.3886369466781616,0,0,0.2293200045824051
0.388753792,0,0,1.3886369466781616,0,0,0.9172800183296204
0.389086955,0,0,1.4484920501708984,0,0,1.605239987373352
0.389420173,0,0,1.4484920501708984,0,0,1.375920057296753
0.389753983,0,0,1.4484920501708984,0,0,1.2994799613952637
0.39008683,0,0,1.4484920501708984,0,0,0
0.390420048,0,0,1.4484920501708984,0,0,0.6879600286483765
0.390753451,0,0,1.4484920501708984,0,0,0.4586400091648102
0.391086966,0,0,1.4484920501708984,0,0,0
0.391420183,0,0,1.5322890281677246,0,0,0
0.39176216,0,0,1.5322890281677246,0,0,2.446079969406128
0.392086045,0,0,1.5322890281677246,0,0,2.3696401119232178
0.392418763,0,0,1.5322890281677246,0,0,0.4586400091648102
0.392754796,0,0,1.5322890281677246,0,0,0.5350799560546875
0.393086254,0,0,1.5322890281677246,0,0,0.7644000053405762
0.393418916,0,0,1.5322890281677246,0,0,0.6879600286483765
0.393752042,0,0,1.5059528350830078,0,0,0.8408399820327759
0.394085945,0,0,1.5059528350830078,0,0,1.070159912109375
0.394418848,0,0,1.5059528350830078,0,0,0.9172800183296204
0.394751992,0,0,1.5059528350830078,0,0,0.9937199950218201
0.395085691,0,0,1.5059528350830078,0,0,1.070159912109375
0.395418687,0,0,1.5059528350830078,0,0,0.6879600286483765
0.395754015,0,0,1.5059528350830078,0,0,0.9172800183296204
0.396087307,0,0,1.37906014919281,0,0,0.9172800183296204
0.396420136,0,0,1.37906014919281,0,0,0.7644000053405762
0.396753243,0,0,1.37906014919281,0,0,0.611519992351532
0.397087276,0,0,1.37906014919281,0,0,0.7644000053405762
0.397419883,0,0,1.37906014919281,0,0,0.7644000053405762
0.397753323,0,0,1.37906014919281,0,0,0.5350799560546875
0.39808667,0,0,1.37906014919281,0,0,1.452359914779663
0.398420147,0,0,1.5490485429763794,0,0,1.1466000080108643
0.398753365,0,0,1.5490485429763794,0,0,0.9937199950218201
0.39908662,0,0,1.5490485429763794,0,0,0.4586400091648102
0.39942056,0,0,1.5490485429763794,0,0,0.6879600286483765
0.399763537,0,0,1.5490485429763794,0,0,0.2293200045824051
0.400086625,0,0,1.5490485429763794,0,0,0.5350799560546875
0.400420325,0,0,1.5490485429763794,0,0,0.152879998087883
0.40075332,0,0,1.3239935636520386,0,0,1.070159912109375
0.401086779,0,0,1.3239935636520386,0,0,0.611519992351532
0.401420571,0,0,1.3239935636520386,0,0,0.7644000053405762
0.401753326,0,0,1.3239935636520386,0,0,0.8408399820327759
0.402086747,0,0,1.3239935636520386,0,0,0.6879600286483765
0.40242041,0,0,1.3239935636520386,0,0,0.7644000053405762
0.402753535,0,0,1.3239935636520386,0,0,0.9172800183296204
0.403089419,0,0,1.2641384601593018,0,0,0
0.403420619,0,0,1.2641384601593018,0,0,8.867039680480957
0.40376341,0,0,1.2641384601593018,0,0,0.4586400091648102
0.404086703,0,0,1.2641384601593018,0,0,0.6879600286483765
0.404420365,0,0,1.2641384601593018,0,0,0.8408399820327759
0.40475336,0,0,1.2641384601593018,0,0,1.070159912109375
0.405086912,0,0,1.2641384601593018,0,0,0.9172800183296204
0.40542,0,0,1.3192051649093628,0,0,0.6879600286483765
0.405753588,0,0,1.3192051649093628,0,0,0.7644000053405762
0.406086602,0,0,1.3192051649093628,0,0,0.8408399820327759
0.406420042,0,0,1.3192051649093628,0,0,0.611519992351532
0.40675389,0,0,1.3192051649093628,0,0,0.4586400091648102
0.407086645,0,0,1.3192051649093628,0,0,0.6879600286483765
0.40742027,0,0,1.3192051649093628,0,0,0.8408399820327759
0.407844598,0,0,1.280897855758667,0,0,1.2994799613952637
0.408088428,0,0,1.280897855758667,0,0,0.6879600286483765
0.408420238,0,0,1.280897855758667,0,0,0.3822000026702881
0.40875416,0,0,1.280897855758667,0,0,0.5350799560546875
0.409086933,0,0,1.280897855758667,0,0,0.5350799560546875
0.409420096,0,0,1.280897855758667,0,0,0.5350799560546875
0.409753943,0,0,1.280897855758667,0,0,0.6879600286483765
0.410086716,0,0,1.2449848651885986,0,0,0.8408399820327759
0.410420157,0,0,1.2449848651885986,0,0,0.6879600286483765
0.410753874,0,0,1.2449848651885986,0,0,1.1466000080108643
0.411086722,0,0,1.2449848651885986,0,0,1.1466000080108643
0.411420032,0,0,1.2449848651885986,0,0,0.611519992351532
0.411765435,0,0,1.2449848651885986,0,0,0.8408399820327759
0.412086764,0,0,1.2449848651885986,0,0,0.3822000026702881
0.412420149,0,0,1.3263877630233765,0,0,0.4586400091648102
0.412753459,0,0,1.3263877630233765,0,0,0
0.413086733,0,0,1.3263877630233765,0,0,0.2293200045824051
0.413422784,0,0,1.3263877630233765,0,0,1.070159912109375
0.413753594,0,0,1.3263877630233765,0,0,0.9937199950218201
0.414087349,0,0,1.3263877630233765,0,0,0.8408399820327759
0.414420086,0,0,1.3263877630233765,0,0,0.9937199950218201
0.414753266,0,0,1.400607943534851,0,0,0.0764399990439415
0.415087355,0,0,1.400607943534851,0,0,0.2293200045824051
0.415420017,0,0,1.400607943534851,0,0,0.4586400091648102
0.415763772,0,0,1.5418659448623657,0,0,0.7644000053405762
0.416087416,0,0,1.4532804489135742,0,0,0.8408399820327759
0.416420133,0,0,1.4532804489135742,0,0,0.8408399820327759
0.416753333,0,0,1.4532804489135742,0,0,0.9937199950218201
0.417087106,0,0,1.4532804489135742,0,0,0.611519992351532
0.417419991,0,0,1.4532804489135742,0,0,0.611519992351532
0.41775332,0,0,1.4532804489135742,0,0,0.7644000053405762
0.418087075,0,0,1.4173674583435059,0,0,0.7644000053405762
0.418419978,0,0,1.4173674583435059,0,0,0.9937199950218201
0.41875364,0,0,1.4173674583435059,0,0,0.7644000053405762
0.419087284,0,0,1.4173674583435059,0,0,0.7644000053405762
0.419420039,0,0,1.4173674583435059,0,0,0.9937199950218201
0.419763682,0,0,1.4173674583435059,0,0,0.611519992351532
0.420086678,0,0,1.4173674583435059,0,0,0.9172800183296204
0.420420155,0,0,1.4748282432556152,0,0,0.611519992351532
0.420753484,0,0,1.4748282432556152,0,0,0.7644000053405762
0.421086776,0,0,1.4748282432556152,0,0,0.6879600286483765
0.421420531,0,0,1.4748282432556152,0,0,0.7644000053405762
0.421753341,0,0,1.4748282432556152,0,0,0.305759996175766
0.422086615,0,0,1.4748282432556152,0,0,0.5350799560546875
0.42242061,0,0,1.4748282432556152,0,0,0.4586400091648102
0.422753439,0,0,1.3215993642807007,0,0,0.8408399820327759
0.423086731,0,0,1.3215993642807007,0,0,0.611519992351532
0.423420653,0,0,1.3215993642807007,0,0,1.223039984703064
0.423767778,0,0,1.3215993642807007,0,0,1.223039984703064
0.424086737,0,0,1.3215993642807007,0,0,0.6879600286483765
0.424420714,0,0,1.3215993642807007,0,0,0.152879998087883
0.424753376,0,0,1.3215993642807007,0,0,0.4586400091648102
0.425086761,0,0,1.259350061416626,0,0,-0.305759996175766
0.425420423,0,0,1.259350061416626,0,0,0.152879998087883
0.42575353,0,0,1.259350061416626,0,0,1.2994799613952637
0.426086747,0,0,1.259350061416626,0,0,1.2994799613952637
0.42642065,0,0,1.259350061416626,0,0,1.8345600366592407
0.426753387,0,0,1.259350061416626,0,0,1.9109998941421509
0.427086901,0,0,1.259350061416626,0,0,0.152879998087883
0.427420082,0,0,1.2401964664459229,0,0,0.2293200045824051
0.427760448,0,0,1.2401964664459229,0,0,0.8408399820327759
0.428087814,0,0,1.2401964664459229,0,0,0.6879600286483765
0.428420013,0,0,1.2401964664459229,0,0,0.6879600286483765
0.42875399,0,0,1.2401964664459229,0,0,0.6879600286483765
0.429086838,0,0,1.2401964664459229,0,0,1.2994799613952637
0.429420019,0,0,1.2401964664459229,0,0,1.070159912109375
0.429753792,0,0,1.1683704853057861,0,0,0.8408399820327759
0.430086714,0,0,1.1683704853057861,0,0,0.9937199950218201
0.43042008,0,0,1.1683704853057861,0,0,0.7644000053405762
0.430753834,0,0,1.1683704853057861,0,0,0.6879600286483765
0.431086737,0,0,1.1683704853057861,0,0,0.6879600286483765
0.431419992,0,0,1.1683704853057861,0,0,0.5350799560546875
0.431765154,0,0,1.1683704853057861,0,0,0.7644000053405762
0.43208691,0,0,1.2952631711959839,0,0,0.9172800183296204
0.432420313,0,0,1.2952631711959839,0,0,0.9172800183296204
0.432754104,0,0,1.2952631711959839,0,0,0.8408399820327759
0.433086804,0,0,1.2952631711959839,0,0,0.6879600286483765
0.433420077,0,0,1.4293384552001953,0,0,0.4586400091648102
0.433753628,0,0,1.4293384552001953,0,0,0.5350799560546875
0.43408968,0,0,1.4293384552001953,0,0,0.4586400091648102
0.434420194,0,0,1.4437036514282227,0,0,0.611519992351532
0.434753412,0,0,1.4437036514282227,0,0,0.6879600286483765
0.435087204,0,0,1.4437036514282227,0,0,0.9172800183296204
0.435420107,0,0,1.4437036514282227,0,0,0.6879600286483765
0.435763695,0,0,1.4437036514282227,0,0,1.070159912109375
0.436086153,0,0,1.4437036514282227,0,0,0.4586400091648102
0.436418853,0,0,1.4437036514282227,0,0,0.3822000026702881
0.436751959,0,0,1.4652514457702637,0,0,0.5350799560546875
0.437085788,0,0,1.4652514457702637,0,0,0.2293200045824051
0.437422025,0,0,1.4652514457702637,0,0,0
0.437755669,0,0,1.4652514457702637,0,0,0.611519992351532
0.438092016,0,0,1.4652514457702637,0,0,0.9172800183296204
0.438767248,0,0,1.4652514457702637,0,0,0.9172800183296204
0.438791785,0,0,1.4652514457702637,0,0,0.9172800183296204
0.439217075,0,0,1.3048399686813354,0,0,0.9172800183296204
0.439453054,0,0,1.3048399686813354,0,0,0
0.43975679,0,0,1.3048399686813354,0,0,1.758120059967041
0.440092175,0,0,1.3048399686813354,0,0,0.7644000053405762
0.440421652,0,0,1.3048399686813354,0,0,1.070159912109375
0.440758537,0,0,1.3048399686813354,0,0,0.7644000053405762
0.441094699,0,0,1.3048399686813354,0,0,0.8408399820327759
0.441421639,0,0,1.357512354850769,0,0,0.8408399820327759
0.441758949,0,0,1.357512354850769,0,0,0.7644000053405762
0.442098186,0,0,1.357512354850769,0,0,0.9172800183296204
0.442421459,0,0,1.357512354850769,0,0,0.8408399820327759
0.44275464,0,0,1.357512354850769,0,0,1.1466000080108643
0.443092691,0,0,1.357512354850769,0,0,0.6879600286483765
0.443421317,0,0,1.357512354850769,0,0,0.611519992351532
0.443772405,0,0,1.3670891523361206,0,0,0.7644000053405762
0.444101308,0,0,1.3670891523361206,0,0,0.611519992351532
0.444426655,0,0,1.3670891523361206,0,0,0.6879600286483765
0.444755521,0,0,1.3670891523361206,0,0,0.8408399820327759
0.445093072,0,0,1.3670891523361206,0,0,0.7644000053405762
0.445421272,0,0,1.3670891523361206,0,0,1.1466000080108643
0.445759249,0,0,1.3670891523361206,0,0,1.1466000080108643
0.446092726,0,0,1.292868971824646,0,0,0.9172800183296204
0.446421481,0,0,1.292868971824646,0,0,0.2293200045824051
0.446754606,0,0,1.292868971824646,0,0,0.611519992351532
0.447091935,0,0,1.292868971824646,0,0,0.9172800183296204
0.447421338,0,0,1.292868971824646,0,0,0.305759996175766
0.447767537,0,0,1.292868971824646,0,0,0.9172800183296204
0.448100533,0,0,1.292868971824646,0,0,0.611519992351532
0.448421732,0,0,1.3982137441635132,0,0,1.1466000080108643
0.448754487,0,0,1.3982137441635132,0,0,1.375920057296753
0.449092594,0,0,1.3982137441635132,0,0,0.9172800183296204
0.44942146,0,0,1.3982137441635132,0,0,0.4586400091648102
0.449758567,0,0,1.3982137441635132,0,0,0.3822000026702881
0.450092655,0,0,1.3982137441635132,0,0,1.5288000106811523
0.450421354,0,0,1.3982137441635132,0,0,-0.2293200045824051
0.45075848,0,0,1.3263877630233765,0,0,1.2994799613952637
0.451093327,0,0,1.3263877630233765,0,0,0.305759996175766
0.45143173,0,0,1.3263877630233765,0,0,1.070159912109375
0.451759003,0,0,1.3263877630233765,0,0,0.9937199950218201
0.45209274,0,0,1.3263877630233765,0,0,0.7644000053405762
0.452421402,0,0,1.3263877630233765,0,0,0.6879600286483765
0.452758713,0,0,1.3263877630233765,0,0,0.611519992351532
0.453091838,0,0,1.525106430053711,0,0,0.8408399820327759
0.453421222,0,0,1.525106430053711,0,0,0.7644000053405762
0.453758477,0,0,1.525106430053711,0,0,0.8408399820327759
0.454091825,0,0,1.525106430053711,0,0,0.8408399820327759
0.454421376,0,0,1.525106430053711,0,0,0.611519992351532
0.45476089,0,0,1.525106430053711,0,0,0.6879600286483765
0.455094238,0,0,1.525106430053711,0,0,0.305759996175766
0.455431418,0,0,1.599326729774475,0,0,0.4586400091648102
0.455755025,0,0,1.599326729774475,0,0,0.611519992351532
0.456092224,0,0,1.599326729774475,0,0,1.1466000080108643
0.456421479,0,0,1.599326729774475,0,0,0.7644000053405762
0.456758605,0,0,1.599326729774475,0,0,0.7644000053405762
0.457091897,0,0,1.599326729774475,0,0,0.2293200045824051
0.457421318,0,0,1.599326729774475,0,0,0.5350799560546875
0.457758258,0,0,1.4317326545715332,0,0,0.9937199950218201
0.458091791,0,0,1.4317326545715332,0,0,1.070159912109375
0.458421287,0,0,1.4317326545715332,0,0,0.3822000026702881
0.458758486,0,0,1.4317326545715332,0,0,0.611519992351532
0.459091889,0,0,1.4317326545715332,0,0,1.2994799613952637
0.45943144,0,0,1.4317326545715332,0,0,0.6879600286483765
0.459758565,0,0,1.4317326545715332,0,0,0.5350799560546875
0.46009332,0,0,1.4317326545715332,0,0,0.8408399820327759
0.460421371,0,0,1.5897499322891235,0,0,0.9937199950218201
0.460758645,0,0,1.5897499322891235,0,0,1.2994799613952637
0.461091918,0,0,1.5897499322891235,0,0,0.611519992351532
0.461421395,0,0,1.5897499322891235,0,0,0.6879600286483765
0.461758391,0,0,1.5897499322891235,0,0,0.611519992351532
0.462091924,0,0,1.5897499322891235,0,0,1.605239987373352
0.462421271,0,0,1.5897499322891235,0,0,0
0.462764433,0,0,1.5083470344543457,0,0,1.070159912109375
0.463097762,0,0,1.5083470344543457,0,0,1.605239987373352
0.463434276,0,0,1.5083470344543457,0,0,1.452359914779663
0.463754902,0,0,1.5083470344543457,0,0,0.6879600286483765
0.464092434,0,0,1.5083470344543457,0,0,0.8408399820327759
0.464421745,0,0,1.5083470344543457,0,0,0.8408399820327759
0.464754426,0,0,1.5083470344543457,0,0,0.8408399820327759
0.46510368,0,0,1.3215993642807007,0,0,0.5350799560546875
0.465421547,0,0,1.3215993642807007,0,0,0.611519992351532
0.465755172,0,0,1.3215993642807007,0,0,0.7644000053405762
0.466092519,0,0,1.3215993642807007,0,0,0.5350799560546875
0.466421182,0,0,1.3215993642807007,0,0,0.7644000053405762
0.46675877,0,0,1.3215993642807007,0,0,1.1466000080108643
0.467092043,0,0,1.3215993642807007,0,0,0.6879600286483765
0.467421224,0,0,1.3000515699386597,0,0,0.6879600286483765
0.46776922,0,0,1.3000515699386597,0,0,0.305759996175766
0.468100734,0,0,1.3000515699386597,0,0,0.9937199950218201
0.468421692,0,0,1.3000515699386597,0,0,0.7644000053405762
0.46875467,0,0,1.3000515699386597,0,0,0.5350799560546875
0.469097406,0,0,1.3000515699386597,0,0,1.070159912109375
0.469421216,0,0,1.3000515699386597,0,0,1.1466000080108643
0.469755656,0,0,1.2066776752471924,0,0,1.223039984703064
0.470093152,0,0,1.2066776752471924,0,0,0.5350799560546875
0.470421277,0,0,1.2066776752471924,0,0,1.223039984703064
0.470758717,0,0,1.2066776752471924,0,0,0.6879600286483765
0.47109262,0,0,1.2066776752471924,0,0,1.070159912109375
0.471432968,0,0,1.2066776752471924,0,0,0.4586400091648102
0.471758852,0,0,1.2066776752471924,0,0,0.305759996175766
0.472092792,0,0,1.335964560508728,0,0,1.2994799613952637
0.472421529,0,0,1.335964560508728,0,0,1.2994799613952637
0.472758765,0,0,1.335964560508728,0,0,1.2994799613952637
0.47309415,0,0,1.335964560508728,0,0,0.305759996175766
0.473421257,0,0,1.335964560508728,0,0,1.375920057296753
0.473758641,0,0,1.335964560508728,0,0,0.4586400091648102
0.4740926,0,0,1.335964560508728,0,0,1.2994799613952637
0.474421318,0,0,1.3192051649093628,0,0,0.3822000026702881
0.474758498,0,0,1.3192051649093628,0,0,0
0.47509179,0,0,1.3192051649093628,0,0,0.0764399990439415
0.475431619,0,0,1.3192051649093628,0,0,1.605239987373352
0.475758726,0,0,1.3192051649093628,0,0,0.611519992351532
0.476092185,0,0,1.3192051649093628,0,0,0.3822000026702881
0.47642131,0,0,1.3192051649093628,0,0,0.611519992351532
0.476758565,0,0,1.357512354850769,0,0,0.5350799560546875
0.477091912,0,0,1.357512354850769,0,0,0.8408399820327759
0.477421482,0,0,1.357512354850769,0,0,0.9937199950218201
0.47775844,0,0,1.357512354850769,0,0,0.9172800183296204
0.478091492,0,0,1.357512354850769,0,0,0.7644000053405762
0.478421302,0,0,1.357512354850769,0,0,0.7644000053405762
0.478758575,0,0,1.357512354850769,0,0,0.5350799560546875
0.479092053,0,0,1.4987702369689941,0,0,0.5350799560546875
0.479431641,0,0,1.4987702369689941,0,0,1.223039984703064
0.479758248,0,0,1.4987702369689941,0,0,1.1466000080108643
0.480091614,0,0,1.4987702369689941,0,0,0.9172800183296204
0.480421072,0,0,1.4987702369689941,0,0,0.9937199950218201
0.480758123,0,0,1.4987702369689941,0,0,0.611519992351532
0.481091489,0,0,1.4987702369689941,0,0,0.9937199950218201
0.481421559,0,0,1.4484920501708984,0,0,0.6879600286483765
0.481757999,0,0,1.4484920501708984,0,0,1.1466000080108643
0.482133216,0,0,1.4484920501708984,0,0,0.4586400091648102
0.482420916,0,0,1.4484920501708984,0,0,0.7644000053405762
0.482754764,0,0,1.4484920501708984,0,0,0.9937199950218201
0.48309163,0,0,1.4484920501708984,0,0,0.8408399820327759
0.483436014,0,0,1.4484920501708984,0,0,1.2994799613952637
0.483754677,0,0,1.3455413579940796,0,0,0.2293200045824051
0.484091783,0,0,1.3455413579940796,0,0,0.2293200045824051
0.484425279,0,0,1.3455413579940796,0,0,0.305759996175766
0.484762682,0,0,1.3455413579940796,0,0,1.1466000080108643
0.485091826,0,0,1.3455413579940796,0,0,1.070159912109375
0.485425284,0,0,1.3455413579940796,0,0,0.0764399990439415
0.485756854,0,0,1.3455413579940796,0,0,1.605239987373352
0.486091794,0,0,1.5322890281677246,0,0,0.6879600286483765
0.486427179,0,0,1.5322890281677246,0,0,1.2994799613952637
0.48675473,0,0,1.5322890281677246,0,0,-0.152879998087883
0.487087726,0,0,1.5322890281677246,0,0,-0.7644000053405762
0.487434165,0,0,1.5322890281677246,0,0,0.5350799560546875
0.48775455,0,0,1.5322890281677246,0,0,0.7644000053405762
0.488088509,0,0,1.5322890281677246,0,0,0
0.488421615,0,0,1.3479355573654175,0,0,0.9172800183296204
0.488754907,0,0,1.3479355573654175,0,0,1.2994799613952637
0.489091218,0,0,1.3479355573654175,0,0,0.8408399820327759
0.489424639,0,0,1.3479355573654175,0,0,0.6879600286483765
0.48975432,0,0,1.3479355573654175,0,0,0.6879600286483765
0.490091482,0,0,1.3479355573654175,0,0,0.5350799560546875
0.490424552,0,0,1.3479355573654175,0,0,0.8408399820327759
0.490754381,0,0,1.3263877630233765,0,0,1.070159912109375
0.491091803,0,0,1.3263877630233765,0,0,0.7644000053405762
0.491434928,0,0,1.3263877630233765,0,0,0.8408399820327759
0.491754609,0,0,1.3263877630233765,0,0,0.9172800183296204
0.492091808,0,0,1.3263877630233765,0,0,0.611519992351532
0.492424582,0,0,1.3263877630233765,0,0,0.9937199950218201
0.492754448,0,0,1.3263877630233765,0,0,0.7644000053405762
0.493091314,0,0,1.414973258972168,0,0,0.305759996175766
0.493424457,0,0,1.414973258972168,0,0,0.6879600286483765
0.493754194,0,0,1.414973258972168,0,0,1.2994799613952637
0.494092115,0,0,1.414973258972168,0,0,1.223039984703064
0.494425444,0,0,1.414973258972168,0,0,0.611519992351532
0.494754532,0,0,1.414973258972168,0,0,1.375920057296753
0.495098046,0,0,1.414973258972168,0,0,0.7644000053405762
0.495442042,0,0,1.414973258972168,0,0,0.152879998087883
0.495754612,0,0,1.2282254695892334,0,0,0.5350799560546875
0.496090108,0,0,1.2282254695892334,0,0,0.152879998087883
0.496427511,0,0,1.2282254695892334,0,0,1.2994799613952637
0.496754284,0,0,1.2282254695892334,0,0,1.223039984703064
0.497087594,0,0,1.2282254695892334,0,0,1.070159912109375
0.49742546,0,0,1.2282254695892334,0,0,0
0.497754308,0,0,1.2282254695892334,0,0,1.375920057296753
0.498088229,0,0,1.278503656387329,0,0,0
0.498422058,0,0,1.278503656387329,0,0,1.375920057296753
0.498754424,0,0,1.278503656387329,0,0,0.305759996175766
0.499091494,0,0,1.278503656387329,0,0,1.605239987373352
0.499436101,0,0,1.278503656387329,0,0,0.5350799560546875
0.499754763,0,0,1.278503656387329,0,0,0.7644000053405762
0.500091888,0,0,1.278503656387329,0,0,0.611519992351532
0.500425384,0,0,1.359906554222107,0,0,0.4586400091648102
0.500754454,0,0,1.359906554222107,0,0,0.8408399820327759
0.501091635,0,0,1.359906554222107,0,0,0.9172800183296204
0.501425556,0,0,1.359906554222107,0,0,0.9937199950218201
0.501754459,0,0,1.359906554222107,0,0,0.9937199950218201
0.502091547,0,0,1.359906554222107,0,0,0.8408399820327759
0.50242521,0,0,1.359906554222107,0,0,0.7644000053405762
0.502754483,0,0,1.4173674583435059,0,0,0.611519992351532
0.503091423,0,0,1.4173674583435059,0,0,0.7644000053405762
0.503434937,0,0,1.4173674583435059,0,0,0.611519992351532
0.503754637,0,0,1.4173674583435059,0,0,0.9172800183296204
0.504091299,0,0,1.4173674583435059,0,0,0.7644000053405762
0.504425906,0,0,1.4173674583435059,0,0,0.9172800183296204
0.50475442,0,0,1.4173674583435059,0,0,0.8408399820327759
0.505091786,0,0,1.5107412338256836,0,0,0.5350799560546875
0.505424948,0,0,1.5107412338256836,0,0,0.7644000053405762
0.505754351,0,0,1.5107412338256836,0,0,0.9172800183296204
0.50609731,0,0,1.5107412338256836,0,0,0.6879600286483765
0.506432713,0,0,1.5107412338256836,0,0,1.223039984703064
0.506754616,0,0,1.5107412338256836,0,0,1.375920057296753
0.507087704,0,0,1.5107412338256836,0,0,0.305759996175766
0.50743607,0,0,1.4891934394836426,0,0,1.1466000080108643
0.507754381,0,0,1.4891934394836426,0,0,0.7644000053405762
0.508091061,0,0,1.4891934394836426,0,0,0.305759996175766
0.508424113,0,0,1.4891934394836426,0,0,0.305759996175766
0.508754349,0,0,1.4891934394836426,0,0,0.9937199950218201
0.509091345,0,0,1.4891934394836426,0,0,0.8408399820327759
0.509424377,0,0,1.4891934394836426,0,0,0
0.50975478,0,0,1.4508862495422363,0,0,1.758120059967041
0.510091257,0,0,1.4508862495422363,0,0,0.9937199950218201
0.510582862,0,0,1.4508862495422363,0,0,0.9937199950218201
0.510756082,0,0,1.4508862495422363,0,0,0
0.511088541,0,0,1.4508862495422363,0,0,0.3822000026702881
0.511445851,0,0,1.4508862495422363,0,0,0.6879600286483765
0.511860845,0,0,1.4508862495422363,0,0,0.6879600286483765
0.51207575,0,0,1.5873557329177856,0,0,1.070159912109375
0.512427227,0,0,1.5873557329177856,0,0,0.9172800183296204
0.512766556,0,0,1.5873557329177856,0,0,0.8408399820327759
0.513088366,0,0,1.5873557329177856,0,0,1.1466000080108643
0.513421658,0,0,1.5873557329177856,0,0,0.7644000053405762
0.513796246,0,0,1.5873557329177856,0,0,0.611519992351532
0.514197704,0,0,1.5873557329177856,0,0,0.8408399820327759
0.514429589,0,0,1.3024457693099976,0,0,0.8408399820327759
0.514758807,0,0,1.3024457693099976,0,0,0.5350799560546875
0.515094136,0,0,1.3024457693099976,0,0,0.9172800183296204
0.515440706,0,0,1.3024457693099976,0,0,1.2994799613952637
0.515758961,0,0,1.3024457693099976,0,0,0.9937199950218201
0.516092975,0,0,1.3024457693099976,0,0,0.611519992351532
0.516421434,0,0,1.3024457693099976,0,0,0.5350799560546875
0.516763503,0,0,1.2761094570159912,0,0,0.8408399820327759
0.517097647,0,0,1.2761094570159912,0,0,0.611519992351532
0.517421513,0,0,1.2761094570159912,0,0,0.4586400091648102
0.517754379,0,0,1.2761094570159912,0,0,0.9172800183296204
0.518095282,0,0,1.2761094570159912,0,0,0.9937199950218201
0.51842137,0,0,1.2761094570159912,0,0,1.1466000080108643
0.518754625,0,0,1.2761094570159912,0,0,1.070159912109375
0.519091436,0,0,1.3479355573654175,0,0,0.8408399820327759
0.519432542,0,0,1.3479355573654175,0,0,0.305759996175766
0.519756557,0,0,1.3479355573654175,0,0,0.3822000026702881
0.52008996,0,0,1.3479355573654175,0,0,0.2293200045824051
0.52042127,0,0,1.3479355573654175,0,0,0.4586400091648102
0.520758395,0,0,1.3479355573654175,0,0,1.070159912109375
0.521092076,0,0,1.3479355573654175,0,0,0.7644000053405762
0.521421553,0,0,1.213860273361206,0,0,1.452359914779663
0.521758438,0,0,1.213860273361206,0,0,1.452359914779663
0.522091693,0,0,1.213860273361206,0,0,1.375920057296753
0.522421392,0,0,1.213860273361206,0,0,0.3822000026702881
0.522758925,0,0,1.213860273361206,0,0,0.5350799560546875
0.523092179,0,0,1.213860273361206,0,0,2.2167599201202393
0.523421268,0,0,1.213860273361206,0,0,0.8408399820327759
0.523768689,0,0,1.213860273361206,0,0,0.9937199950218201
0.524100666,0,0,1.2425906658172607,0,0,0.7644000053405762
0.524421829,0,0,1.2425906658172607,0,0,0.7644000053405762
0.524754621,0,0,1.2425906658172607,0,0,0.9172800183296204
0.525093375,0,0,1.2425906658172607,0,0,0.7644000053405762
0.525421279,0,0,1.2425906658172607,0,0,0.7644000053405762
0.525758626,0,0,1.2425906658172607,0,0,0.8408399820327759
0.526092085,0,0,1.2425906658172607,0,0,1.2994799613952637
0.526421247,0,0,1.3311761617660522,0,0,0.7644000053405762
0.526758539,0,0,1.3311761617660522,0,0,0.7644000053405762
0.527105108,0,0,1.3311761617660522,0,0,0.4586400091648102
0.527439474,0,0,1.3311761617660522,0,0,0.611519992351532
0.527755137,0,0,1.3311761617660522,0,0,0.7644000053405762
0.528096799,0,0,1.3311761617660522,0,0,0.611519992351532
0.528421443,0,0,1.3311761617660522,0,0,0.7644000053405762
0.528754439,0,0,1.41257905960083,0,0,0.8408399820327759
0.529091156,0,0,1.41257905960083,0,0,1.223039984703064
0.529421152,0,0,1.41257905960083,0,0,0.8408399820327759
0.529758259,0,0,1.41257905960083,0,0,0.305759996175766
0.53009131,0,0,1.41257905960083,0,0,0.4586400091648102
0.530421139,0,0,1.41257905960083,0,0,0.7644000053405762
0.530758616,0,0,1.41257905960083,0,0,0.8408399820327759
0.531091871,0,0,1.4772224426269531,0,0,0.2293200045824051
0.531421348,0,0,1.4772224426269531,0,0,0.8408399820327759
0.531771306,0,0,1.4772224426269531,0,0,0.9937199950218201
0.532100617,0,0,1.4772224426269531,0,0,0.4586400091648102
0.532421076,0,0,1.4772224426269531,0,0,0
0.532754386,0,0,1.4772224426269531,0,0,0.152879998087883
0.533092604,0,0,1.4772224426269531,0,0,0.2293200045824051
0.533421377,0,0,1.4389152526855469,0,0,0.6879600286483765
0.533758484,0,0,1.4389152526855469,0,0,1.8345600366592407
0.534092628,0,0,1.4389152526855469,0,0,0.0764399990439415
0.53442142,0,0,1.4389152526855469,0,0,0.7644000053405762
0.534758304,0,0,1.4389152526855469,0,0,0.611519992351532
0.535092096,0,0,1.4389152526855469,0,0,2.2167599201202393
0.535421277,0,0,1.4389152526855469,0,0,9.478560447692871
0.535762328,0,0,1.4053963422775269,0,0,0.6879600286483765
0.536096102,0,0,1.4053963422775269,0,0,0.9937199950218201
0.536421264,0,0,1.4053963422775269,0,0,0.6879600286483765
0.536754371,0,0,1.4053963422775269,0,0,1.1466000080108643
0.537091348,0,0,1.4053963422775269,0,0,1.1466000080108643
0.537423566,0,0,1.4053963422775269,0,0,0.611519992351532
0.537758543,0,0,1.4053963422775269,0,0,0.6879600286483765
0.538092261,0,0,1.501164436340332,0,0,0.9172800183296204
0.538421386,0,0,1.501164436340332,0,0,0.6879600286483765
0.538758307,0,0,1.501164436340332,0,0,0.5350799560546875
0.539092414,0,0,1.501164436340332,0,0,0.4586400091648102
0.539421169,0,0,1.501164436340332,0,0,0.8408399820327759
0.539768331,0,0,1.501164436340332,0,0,0.7644000053405762
0.540101994,0,0,1.501164436340332,0,0,0.6879600286483765
0.540421267,0,0,1.2449848651885986,0,0,0.4586400091648102
0.540754652,0,0,1.2449848651885986,0,0,0.3822000026702881
0.541093369,0,0,1.2449848651885986,0,0,0.6879600286483765
0.541421402,0,0,1.2449848651885986,0,0,0.7644000053405762
0.541758509,0,0,1.2449848651885986,0,0,0.3822000026702881
0.542091671,0,0,1.2449848651885986,0,0,0.8408399820327759
0.542421315,0,0,1.2449848651885986,0,0,1.2994799613952637
0.542758977,0,0,1.2665326595306396,0,0,0.8408399820327759
0.543092232,0,0,1.2665326595306396,0,0,0.0764399990439415
0.543431894,0,0,1.2665326595306396,0,0,0.7644000053405762
0.543758723,0,0,1.2665326595306396,0,0,0.4586400091648102
0.544091941,0,0,1.2665326595306396,0,0,1.5288000106811523
0.544421326,0,0,1.2665326595306396,0,0,0.0764399990439415
0.544754507,0,0,1.2665326595306396,0,0,0.305759996175766
0.545091224,0,0,1.314416766166687,0,0,0.5350799560546875
0.545421646,0,0,1.314416766166687,0,0,1.223039984703064
0.545755142,0,0,1.314416766166687,0,0,1.8345600366592407
0.5460881,0,0,1.314416766166687,0,0,1.605239987373352
0.54642117,0,0,1.314416766166687,0,0,0.611519992351532
0.546758073,0,0,1.314416766166687,0,0,0.611519992351532
0.547091365,0,0,1.314416766166687,0,0,2.14031982421875
0.547421212,0,0,1.314416766166687,0,0,0.6879600286483765
0.547770708,0,0,1.2234370708465576,0,0,1.070159912109375
0.548100796,0,0,1.2234370708465576,0,0,0.9172800183296204
0.548421347,0,0,1.2234370708465576,0,0,0.6879600286483765
0.548766454,0,0,1.2234370708465576,0,0,0.7644000053405762
0.549100339,0,0,1.2234370708465576,0,0,0.8408399820327759
0.54942139,0,0,1.2234370708465576,0,0,0.8408399820327759
0.5497547,0,0,1.2234370708465576,0,0,0.611519992351532
0.550092214,0,0,1.2761094570159912,0,0,0.6879600286483765
0.550421192,0,0,1.2761094570159912,0,0,0.611519992351532
0.550758521,0,0,1.2761094570159912,0,0,0.4586400091648102
0.551091775,0,0,1.2761094570159912,0,0,0.611519992351532
0.551421253,0,0,1.2761094570159912,0,0,0.5350799560546875
0.551768915,0,0,1.2761094570159912,0,0,0.611519992351532
0.552115632,0,0,1.2761094570159912,0,0,0.6879600286483765
0.552421869,0,0,1.3862427473068237,0,0,0.9937199950218201
0.552754865,0,0,1.3862427473068237,0,0,0.6879600286483765
0.553092231,0,0,1.3862427473068237,0,0,1.2994799613952637
0.553421319,0,0,1.3862427473068237,0,0,0.6879600286483765
0.553759111,0,0,1.3862427473068237,0,0,0.2293200045824051
0.554092125,0,0,1.3862427473068237,0,0,0.305759996175766
0.554421287,0,0,1.3862427473068237,0,0,0.8408399820327759
0.554758209,0,0,1.4437036514282227,0,0,0.9172800183296204
0.555092093,0,0,1.4437036514282227,0,0,0.305759996175766
0.555421293,0,0,1.4437036514282227,0,0,1.1466000080108643
0.555767788,0,0,1.4437036514282227,0,0,0.7644000053405762
0.556100025,0,0,1.4437036514282227,0,0,0.6879600286483765
0.556421465,0,0,1.4437036514282227,0,0,0.305759996175766
0.556754386,0,0,1.4437036514282227,0,0,0
0.557092308,0,0,1.53707754611969,0,0,0.4586400091648102
0.557421229,0,0,1.53707754611969,0,0,1.2994799613952637
0.557758355,0,0,1.53707754611969,0,0,1.2994799613952637
0.558095443,0,0,1.53707754611969,0,0,-0.2293200045824051
0.558421253,0,0,1.53707754611969,0,0,1.5288000106811523
0.558758342,0,0,1.53707754611969,0,0,0.5350799560546875
0.559092282,0,0,1.53707754611969,0,0,2.2932000160217285
0.559431407,0,0,1.4437036514282227,0,0,9.554999351501465
0.559758384,0,0,1.4437036514282227,0,0,0.5350799560546875
0.560092417,0,0,1.4437036514282227,0,0,0.8408399820327759
0.560421209,0,0,1.4437036514282227,0,0,0.8408399820327759
0.560758297,0,0,1.4437036514282227,0,0,0.9172800183296204
0.561091644,0,0,1.4437036514282227,0,0,0.8408399820327759
0.561421381,0,0,1.4437036514282227,0,0,1.070159912109375
0.561758136,0,0,1.5705963373184204,0,0,0.5350799560546875
0.562091094,0,0,1.5705963373184204,0,0,0.7644000053405762
0.56242146,0,0,1.5705963373184204,0,0,0.6879600286483765
0.562758715,0,0,1.5705963373184204,0,0,0.4586400091648102
0.56309197,0,0,1.5705963373184204,0,0,0.5350799560546875
0.563421206,0,0,1.5705963373184204,0,0,0.8408399820327759
0.563768609,0,0,1.5705963373184204,0,0,0.8408399820327759
0.564100309,0,0,1.45806884765625,0,0,0.9172800183296204
0.564421249,0,0,1.45806884765625,0,0,0.6879600286483765
0.564754485,0,0,1.45806884765625,0,0,0.3822000026702881
0.565093073,0,0,1.45806884765625,0,0,0.7644000053405762
0.565421236,0,0,1.45806884765625,0,0,0.5350799560546875
0.565758528,0,0,1.45806884765625,0,0,0.152879998087883
0.566092042,0,0,1.45806884765625,0,0,0.5350799560546875
0.56642126,0,0,1.2689268589019775,0,0,1.1466000080108643
0.566758514,0,0,1.2689268589019775,0,0,0.9172800183296204
0.567091621,0,0,1.2689268589019775,0,0,0.3822000026702881
0.567431802,0,0,1.2689268589019775,0,0,1.223039984703064
0.567758446,0,0,1.2689268589019775,0,0,0.611519992351532
0.568091738,0,0,1.2689268589019775,0,0,1.1466000080108643
0.568423696,0,0,1.2689268589019775,0,0,0.152879998087883
0.568758044,0,0,1.256955862045288,0,0,0.0764399990439415
0.569091373,0,0,1.256955862045288,0,0,0.7644000053405762
0.569421313,0,0,1.256955862045288,0,0,1.070159912109375
0.569758142,0,0,1.256955862045288,0,0,1.8345600366592407
0.570097952,0,0,1.256955862045288,0,0,1.452359914779663
0.570421263,0,0,1.256955862045288,0,0,1.070159912109375
0.570758129,0,0,1.1827356815338135,0,0,0.4586400091648102
0.571092939,0,0,1.1827356815338135,0,0,0.3822000026702881
0.571431212,0,0,1.1827356815338135,0,0,9.554999351501465
0.571757171,0,0,1.1827356815338135,0,0,0.9172800183296204
0.572087704,0,0,1.1827356815338135,0,0,0.9172800183296204
0.572419829,0,0,1.1827356815338135,0,0,0.9172800183296204
0.572756751,0,0,1.1827356815338135,0,0,0.8408399820327759
0.573087154,0,0,1.2737152576446533,0,0,0.6879600286483765
0.573419723,0,0,1.2737152576446533,0,0,0.611519992351532
0.573757201,0,0,1.2737152576446533,0,0,0.305759996175766
0.574087807,0,0,1.2737152576446533,0,0,0.8408399820327759
0.574419821,0,0,1.2737152576446533,0,0,1.070159912109375
0.574757132,0,0,1.2737152576446533,0,0,0.9937199950218201
0.575087739,0,0,1.2737152576446533,0,0,0.8408399820327759
0.575419753,0,0,1.3886369466781616,0,0,0.6879600286483765
0.57684766,0,0,1.3886369466781616,0,0,0.6879600286483765
0.576870586,0,0,1.3886369466781616,0,0,0.6879600286483765
0.576893159,0,0,1.3886369466781616,0,0,0.6879600286483765
0.576915826,0,0,1.3886369466781616,0,0,0
0.577091472,0,0,1.3886369466781616,0,0,0.9172800183296204
0.577424967,0,0,1.3886369466781616,0,0,0.7644000053405762
0.577754222,0,0,1.3335703611373901,0,0,0.6879600286483765
0.578091199,0,0,1.3335703611373901,0,0,0.9937199950218201
0.578424436,0,0,1.3335703611373901,0,0,0.305759996175766
0.578757561,0,0,1.3335703611373901,0,0,1.1466000080108643
0.579091519,0,0,1.3335703611373901,0,0,0.9937199950218201
0.579435848,0,0,1.3335703611373901,0,0,0.9172800183296204
0.579754511,0,0,1.3335703611373901,0,0,0.5350799560546875
0.580091451,0,0,1.4437036514282227,0,0,1.1466000080108643
0.580424669,0,0,1.4437036514282227,0,0,0.5350799560546875
0.580754275,0,0,1.4437036514282227,0,0,0.0764399990439415
0.581091808,0,0,1.4437036514282227,0,0,1.1466000080108643
0.581426452,0,0,1.4437036514282227,0,0,0.4586400091648102
0.581754466,0,0,1.4437036514282227,0,0,1.452359914779663
0.582092073,0,0,1.4437036514282227,0,0,1.375920057296753
0.582425142,0,0,1.4101848602294922,0,0,1.223039984703064
0.582754527,0,0,1.4101848602294922,0,0,0.2293200045824051
0.58309143,0,0,1.4101848602294922,0,0,1.452359914779663
0.583435277,0,0,1.4101848602294922,0,0,1.9109998941421509
0.583754829,0,0,1.4101848602294922,0,0,0.7644000053405762
0.58409138,0,0,1.4101848602294922,0,0,0.6879600286483765
0.584424579,0,0,1.4101848602294922,0,0,0.9937199950218201
0.584754427,0,0,1.314416766166687,0,0,0.9172800183296204
0.585091107,0,0,1.314416766166687,0,0,0.7644000053405762
0.585424825,0,0,1.314416766166687,0,0,0.7644000053405762
0.585755599,0,0,1.314416766166687,0,0,0.305759996175766
0.586396961,0,0,1.314416766166687,0,0,0.305759996175766
0.586420609,0,0,1.314416766166687,0,0,0.3822000026702881
0.586771752,0,0,1.314416766166687,0,0,0.4586400091648102
0.587107229,0,0,1.4437036514282227,0,0,0.6879600286483765
0.587482391,0,0,1.4437036514282227,0,0,0.5350799560546875
0.587770721,0,0,1.4437036514282227,0,0,0.6879600286483765
0.588090605,0,0,1.4437036514282227,0,0,0.9937199950218201
0.588420286,0,0,1.4437036514282227,0,0,0.9937199950218201
0.588753726,0,0,1.4437036514282227,0,0,0.8408399820327759
0.58916748,0,0,1.4437036514282227,0,0,0.9937199950218201
0.589639585,0,0,1.3239935636520386,0,0,0.9937199950218201
0.589757806,0,0,1.3239935636520386,0,0,0.5350799560546875
0.590087283,0,0,1.3239935636520386,0,0,1.2994799613952637
0.590421186,0,0,1.3239935636520386,0,0,1.223039984703064
0.590753552,0,0,1.3239935636520386,0,0,0.7644000053405762
0.591087029,0,0,1.3239935636520386,0,0,1.223039984703064
0.591453894,0,0,1.3239935636520386,0,0,1.1466000080108643
0.591754502,0,0,1.2306196689605713,0,0,0.305759996175766
0.592087331,0,0,1.2306196689605713,0,0,0.3822000026702881
0.592420567,0,0,1.2306196689605713,0,0,0.2293200045824051
0.592753285,0,0,1.2306196689605713,0,0,0
0.593086577,0,0,1.2306196689605713,0,0,0.9937199950218201
0.593420369,0,0,1.2306196689605713,0,0,1.223039984703064
0.593753457,0,0,1.2306196689605713,0,0,1.1466000080108643
0.594086619,0,0,1.2880805730819702,0,0,1.6816799640655518
0.594420411,0,0,1.2880805730819702,0,0,1.6816799640655518
0.594753296,0,0,1.2880805730819702,0,0,0
0.595086476,0,0,1.2880805730819702,0,0,0
0.595420472,0,0,1.2880805730819702,0,0,0.5350799560546875
0.59576656,0,0,1.2880805730819702,0,0,0.8408399820327759
0.5960865,0,0,1.2880805730819702,0,0,1.223039984703064
0.596419866,0,0,1.235408067703247,0,0,0.8408399820327759
0.596753306,0,0,1.235408067703247,0,0,0.3822000026702881
0.597086561,0,0,1.235408067703247,0,0,0.5350799560546875
0.597419983,0,0,1.235408067703247,0,0,0.7644000053405762
0.597753738,0,0,1.235408067703247,0,0,0.9172800183296204
0.598086585,0,0,1.235408067703247,0,0,0.7644000053405762
0.598420007,0,0,1.235408067703247,0,0,1.070159912109375
0.598753725,0,0,1.2761094570159912,0,0,0.9937199950218201
0.599086498,0,0,1.2761094570159912,0,0,0.5350799560546875
0.599436401,0,0,1.2761094570159912,0,0,0.6879600286483765
0.599754767,0,0,1.2761094570159912,0,0,0.6879600286483765
0.600086837,0,0,1.2761094570159912,0,0,0.8408399820327759
0.600420073,0,0,1.2761094570159912,0,0,0.9937199950218201
0.600753773,0,0,1.2761094570159912,0,0,1.070159912109375
0.60108662,0,0,1.338358759880066,0,0,0.7644000053405762
0.601419986,0,0,1.338358759880066,0,0,0.9172800183296204
0.601753871,0,0,1.338358759880066,0,0,0.9937199950218201
0.602086625,0,0,1.338358759880066,0,0,0.4586400091648102
0.602419917,0,0,1.338358759880066,0,0,0.3822000026702881
0.602753709,0,0,1.338358759880066,0,0,1.070159912109375
0.60308689,0,0,1.338358759880066,0,0,1.1466000080108643
0.603419886,0,0,1.4197616577148438,0,0,1.223039984703064
0.603763937,0,0,1.4197616577148438,0,0,1.375920057296753
0.604086895,0,0,1.4197616577148438,0,0,0.9937199950218201
0.604419965,0,0,1.4197616577148438,0,0,0.5350799560546875
0.60475322,0,0,1.4197616577148438,0,0,0.5350799560546875
0.605087179,0,0,1.4197616577148438,0,0,-0.2293200045824051
0.605420248,0,0,1.4197616577148438,0,0,0
0.605753337,0,0,1.4245500564575195,0,0,1.070159912109375
0.606087017,0,0,1.4245500564575195,0,0,1.6816799640655518
0.606419939,0,0,1.4245500564575195,0,0,0.9937199950218201
0.606753379,0,0,1.4245500564575195,0,0,1.8345600366592407
0.607087152,0,0,1.4245500564575195,0,0,2.14031982421875
0.607419963,0,0,1.4245500564575195,0,0,0.5350799560546875
0.607763644,0,0,1.4245500564575195,0,0,0.305759996175766
0.608087306,0,0,1.3551181554794312,0,0,0.3822000026702881
0.608420172,0,0,1.3551181554794312,0,0,0.9937199950218201
0.608753427,0,0,1.3551181554794312,0,0,0.7644000053405762
0.609093219,0,0,1.3551181554794312,0,0,0.611519992351532
0.609420474,0,0,1.3551181554794312,0,0,0.8408399820327759
0.609755636,0,0,1.3551181554794312,0,0,0.9172800183296204
0.610087298,0,0,1.3551181554794312,0,0,0.6879600286483765
0.61042009,0,0,1.3982137441635132,0,0,0.611519992351532
0.610753234,0,0,1.3982137441635132,0,0,0.6879600286483765
0.611086582,0,0,1.3982137441635132,0,0,0.611519992351532
0.611420096,0,0,1.3982137441635132,0,0,0.5350799560546875
0.611764054,0,0,1.3982137441635132,0,0,0.611519992351532
0.612086865,0,0,1.3982137441635132,0,0,0.9937199950218201
0.612420434,0,0,1.3982137441635132,0,0,0.9937199950218201
0.612759597,0,0,1.601720929145813,0,0,1.223039984703064
0.613087203,0,0,1.601720929145813,0,0,0.8408399820327759
0.613420606,0,0,1.601720929145813,0,0,0.9172800183296204
0.613753287,0,0,1.601720929145813,0,0,0.6879600286483765
0.614086524,0,0,1.601720929145813,0,0,0.8408399820327759
0.614420519,0,0,1.601720929145813,0,0,0.611519992351532
0.614753385,0,0,1.601720929145813,0,0,0.305759996175766
0.615086548,0,0,1.3718775510787964,0,0,0.5350799560546875
0.615420284,0,0,1.3718775510787964,0,0,0.9937199950218201
0.61576302,0,0,1.3718775510787964,0,0,0.7644000053405762
0.616086534,0,0,1.3718775510787964,0,0,1.5288000106811523
0.616420493,0,0,1.3718775510787964,0,0,0.9937199950218201
0.616753266,0,0,1.3718775510787964,0,0,0.611519992351532
0.617086558,0,0,1.3718775510787964,0,0,0.2293200045824051
0.617420313,0,0,1.2306196689605713,0,0,0.3822000026702881
0.617753272,0,0,1.2306196689605713,0,0,0.305759996175766
0.61808636,0,0,1.2306196689605713,0,0,0
0.618420134,0,0,1.2306196689605713,0,0,1.5288000106811523
0.618753203,0,0,1.2306196689605713,0,0,0.8408399820327759
0.619086588,0,0,1.2306196689605713,0,0,1.1466000080108643
0.619419787,0,0,1.2306196689605713,0,0,1.758120059967041
0.619754246,0,0,1.3048399686813354,0,0,0.6879600286483765
0.620088982,0,0,1.3048399686813354,0,0,1.1466000080108643
0.620420237,0,0,1.3048399686813354,0,0,0.8408399820327759
0.620753844,0,0,1.3048399686813354,0,0,0.6879600286483765
0.62108658,0,0,1.3048399686813354,0,0,0.611519992351532
0.621419835,0,0,1.3048399686813354,0,0,0.7644000053405762
0.621753719,0,0,1.3048399686813354,0,0,0.8408399820327759
0.622086623,0,0,1.1659762859344482,0,0,0.7644000053405762
0.622419859,0,0,1.1659762859344482,0,0,0.9172800183296204
0.622753892,0,0,1.1659762859344482,0,0,1.1466000080108643
0.623086702,0,0,1.1659762859344482,0,0,0.9172800183296204
0.623419846,0,0,1.1659762859344482,0,0,0.7644000053405762
0.623762693,0,0,1.1659762859344482,0,0,0.7644000053405762
0.624085226,0,0,1.1659762859344482,0,0,0.611519992351532
0.624418647,0,0,1.2210428714752197,0,0,0.8408399820327759
0.624752513,0,0,1.2210428714752197,0,0,1.1466000080108643
0.625085194,0,0,1.2210428714752197,0,0,1.070159912109375
0.62541832,0,0,1.2210428714752197,0,0,0.9937199950218201
0.625751889,0,0,1.2210428714752197,0,0,0.9172800183296204
0.626085181,0,0,1.2210428714752197,0,0,0.611519992351532
0.626418473,0,0,1.2210428714752197,0,0,0.6879600286483765
0.626751969,0,0,1.3766659498214722,0,0,0.152879998087883
0.62708589,0,0,1.3766659498214722,0,0,0.152879998087883
0.627418738,0,0,1.3766659498214722,0,0,0.9937199950218201
0.627755715,0,0,1.3766659498214722,0,0,0
0.628087655,0,0,1.3766659498214722,0,0,1.2994799613952637
0.62841991,0,0,1.3766659498214722,0,0,1.6816799640655518
0.628753443,0,0,1.3766659498214722,0,0,1.375920057296753
0.629087123,0,0,1.4652514457702637,0,0,1.1466000080108643
0.6294201,0,0,1.4652514457702637,0,0,1.1466000080108643
0.629753337,0,0,1.4652514457702637,0,0,0.305759996175766
0.630087258,0,0,1.4652514457702637,0,0,0.3822000026702881
0.630423069,0,0,1.4652514457702637,0,0,0
0.630753509,0,0,1.4652514457702637,0,0,-0.4586400091648102
0.631087134,0,0,1.4652514457702637,0,0,0.9172800183296204
0.631419982,0,0,1.5682021379470825,0,0,0.611519992351532
0.631764755,0,0,1.5682021379470825,0,0,0.9172800183296204
0.632087121,0,0,1.5682021379470825,0,0,0.9937199950218201
0.632419969,0,0,1.5682021379470825,0,0,0.9937199950218201
0.632753205,0,0,1.5682021379470825,0,0,0.6879600286483765
0.633086515,0,0,1.5682021379470825,0,0,0.7644000053405762
0.633420215,0,0,1.5682021379470825,0,0,0.7644000053405762
0.633753321,0,0,1.482010841369629,0,0,0.9172800183296204
0.634094743,0,0,1.482010841369629,0,0,0.9172800183296204
0.63442085,0,0,1.482010841369629,0,0,0.611519992351532
0.63475316,0,0,1.482010841369629,0,0,0.611519992351532
0.635086415,0,0,1.482010841369629,0,0,1.1466000080108643
0.635420392,0,0,1.482010841369629,0,0,0.9172800183296204
0.635764888,0,0,1.482010841369629,0,0,0.9172800183296204
0.636086402,0,0,1.45806884765625,0,0,0.6879600286483765
0.636420361,0,0,1.45806884765625,0,0,0.9172800183296204
0.636753282,0,0,1.45806884765625,0,0,0.3822000026702881
0.637086593,0,0,1.45806884765625,0,0,0.8408399820327759
0.63742031,0,0,1.45806884765625,0,0,0.5350799560546875
0.637753084,0,0,1.45806884765625,0,0,0.5350799560546875
0.638086487,0,0,1.45806884765625,0,0,1.070159912109375
0.638420371,0,0,1.5514427423477173,0,0,0.9937199950218201
0.638753108,0,0,1.5514427423477173,0,0,0.611519992351532
0.639086659,0,0,1.5514427423477173,0,0,0.5350799560546875
0.639420358,0,0,1.5514427423477173,0,0,0.4586400091648102
0.63976628,0,0,1.5514427423477173,0,0,0.3822000026702881
0.640086887,0,0,1.5514427423477173,0,0,0
0.640419938,0,0,1.5514427423477173,0,0,0.2293200045824051
0.640756359,0,0,1.3455413579940796,0,0,1.2994799613952637
0.641086873,0,0,1.3455413579940796,0,0,1.070159912109375
0.641419906,0,0,1.3455413579940796,0,0,1.6816799640655518
0.641753679,0,0,1.3455413579940796,0,0,1.5288000106811523
0.642086601,0,0,1.3455413579940796,0,0,0.5350799560546875
0.642419745,0,0,1.3455413579940796,0,0,0.4586400091648102
0.64275387,0,0,1.3455413579940796,0,0,1.070159912109375
0.643086792,0,0,1.3048399686813354,0,0,9.478560447692871
0.643419898,0,0,1.3048399686813354,0,0,0.6879600286483765
0.643765449,0,0,1.3048399686813354,0,0,0.611519992351532
0.644086723,0,0,1.3048399686813354,0,0,0.9172800183296204
0.64442007,0,0,1.3048399686813354,0,0,1.1466000080108643
0.644753955,0,0,1.3048399686813354,0,0,1.070159912109375
0.64508671,0,0,1.3048399686813354,0,0,0.9937199950218201
0.645420465,0,0,1.2880805730819702,0,0,0.4586400091648102
0.645754627,0,0,1.2880805730819702,0,0,0.7644000053405762
0.646086641,0,0,1.2880805730819702,0,0,0.611519992351532
0.646419952,0,0,1.2880805730819702,0,0,0.6879600286483765
0.646753336,0,0,1.2880805730819702,0,0,0.7644000053405762
0.647086591,0,0,1.2880805730819702,0,0,0.611519992351532
0.647419957,0,0,1.2880805730819702,0,0,1.223039984703064
0.647766286,0,0,1.192312479019165,0,0,1.223039984703064
0.648086985,0,0,1.192312479019165,0,0,0.611519992351532
0.648419907,0,0,1.192312479019165,0,0,0.3822000026702881
0.648753088,0,0,1.192312479019165,0,0,0.5350799560546875
0.649087009,0,0,1.192312479019165,0,0,0.6879600286483765
0.649419894,0,0,1.192312479019165,0,0,0.2293200045824051
0.649753334,0,0,1.192312479019165,0,0,1.070159912109375
0.650087255,0,0,1.3479355573654175,0,0,1.452359914779663
0.650419844,0,0,1.3479355573654175,0,0,0.611519992351532
0.650753413,0,0,1.3479355573654175,0,0,0.7644000053405762
0.651090224,0,0,1.3479355573654175,0,0,0.8408399820327759
0.651419849,0,0,1.3479355573654175,0,0,0.5350799560546875
0.651760956,0,0,1.3479355573654175,0,0,0.611519992351532
0.652087192,0,0,1.3479355573654175,0,0,0.6879600286483765
0.652420003,0,0,1.3718775510787964,0,0,0.0764399990439415
0.652753239,0,0,1.3718775510787964,0,0,0.4586400091648102
0.653087216,0,0,1.3718775510787964,0,0,0.9172800183296204
0.653420156,0,0,1.3718775510787964,0,0,1.070159912109375
0.65375317,0,0,1.3718775510787964,0,0,1.8345600366592407
0.65408661,0,0,1.3718775510787964,0,0,1.452359914779663
0.654419884,0,0,1.3718775510787964,0,0,0.0764399990439415
0.654753287,0,0,1.4772224426269531,0,0,0.305759996175766
0.655086745,0,0,1.4772224426269531,0,0,0.4586400091648102
0.655438167,0,0,1.4772224426269531,0,0,0.9937199950218201
0.655761126,0,0,1.4772224426269531,0,0,0.7644000053405762
0.65634371,0,0,1.4772224426269531,0,0,0.7644000053405762
0.656367081,0,0,1.4772224426269531,0,0,0.8408399820327759
0.656769742,0,0,1.4772224426269531,0,0,0.8408399820327759
0.657093701,0,0,1.5203180313110352,0,0,0.4586400091648102
0.657430344,0,0,1.5203180313110352,0,0,0.611519992351532
0.657772877,0,0,1.5203180313110352,0,0,0.6879600286483765
0.658097891,0,0,1.5203180313110352,0,0,0.8408399820327759
0.658424942,0,0,1.5203180313110352,0,0,0.9937199950218201
0.658771253,0,0,1.5203180313110352,0,0,0.6879600286483765
0.659094563,0,0,1.5203180313110352,0,0,0.611519992351532
0.659451596,0,0,1.3215993642807007,0,0,0.8408399820327759
0.659775017,0,0,1.3215993642807007,0,0,0.6879600286483765
0.66010355,0,0,1.3215993642807007,0,0,0.4586400091648102
0.660442027,0,0,1.3215993642807007,0,0,0.5350799560546875
0.660761338,0,0,1.3215993642807007,0,0,0.8408399820327759
0.661100315,0,0,1.3215993642807007,0,0,1.1466000080108643
0.661426144,0,0,1.3215993642807007,0,0,0.4586400091648102
0.661754973,0,0,1.4221558570861816,0,0,0
0.662095635,0,0,1.4221558570861816,0,0,0.6879600286483765
0.662421279,0,0,1.4221558570861816,0,0,0.9937199950218201
0.662754367,0,0,1.4221558570861816,0,0,1.1466000080108643
0.663091881,0,0,1.4221558570861816,0,0,0.4586400091648102
0.663443488,0,0,1.4221558570861816,0,0,1.605239987373352
0.66375428,0,0,1.4221558570861816,0,0,0.4586400091648102
0.66408772,0,0,1.4317326545715332,0,0,0.2293200045824051
0.664419882,0,0,1.4317326545715332,0,0,0.611519992351532
0.664755878,0,0,1.4317326545715332,0,0,0.9937199950218201
0.665087022,0,0,1.4317326545715332,0,0,0.0764399990439415
0.66541998,0,0,1.4317326545715332,0,0,1.1466000080108643
0.665757217,0,0,1.4317326545715332,0,0,0.305759996175766
0.666089083,0,0,1.4317326545715332,0,0,1.6816799640655518
0.666420023,0,0,1.259350061416626,0,0,1.9109998941421509
0.666753278,0,0,1.259350061416626,0,0,0
0.667086366,0,0,1.259350061416626,0,0,1.452359914779663
0.667419825,0,0,1.259350061416626,0,0,0.7644000053405762
0.667758542,0,0,1.259350061416626,0,0,0.6879600286483765
0.668092501,0,0,1.259350061416626,0,0,0.8408399820327759
0.668420997,0,0,1.259350061416626,0,0,0.9172800183296204
0.66875827,0,0,1.335964560508728,0,0,0.8408399820327759
0.669091599,0,0,1.335964560508728,0,0,0.7644000053405762
0.669421021,0,0,1.335964560508728,0,0,0.7644000053405762
0.669758423,0,0,1.335964560508728,0,0,0.6879600286483765
0.670092234,0,0,1.335964560508728,0,0,0.8408399820327759
0.670421248,0,0,1.335964560508728,0,0,0.5350799560546875
0.670758151,0,0,1.335964560508728,0,0,0.611519992351532
0.67109161,0,0,1.259350061416626,0,0,0.9937199950218201
0.671420809,0,0,1.259350061416626,0,0,0.9172800183296204
0.67177049,0,0,1.259350061416626,0,0,1.1466000080108643
0.672100874,0,0,1.259350061416626,0,0,0.305759996175766
0.672421222,0,0,1.259350061416626,0,0,0.8408399820327759
0.672754143,0,0,1.259350061416626,0,0,0.6879600286483765
0.673093046,0,0,1.259350061416626,0,0,0.611519992351532
0.673420838,0,0,1.2066776752471924,0,0,0.611519992351532
0.673758334,0,0,1.2066776752471924,0,0,0.7644000053405762
0.674093626,0,0,1.2066776752471924,0,0,1.070159912109375
0.674421029,0,0,1.2066776752471924,0,0,0.7644000053405762
0.674758488,0,0,1.2066776752471924,0,0,1.223039984703064
0.675091742,0,0,1.2066776752471924,0,0,0.5350799560546875
0.67543246,0,0,1.2066776752471924,0,0,1.5288000106811523
0.675758289,0,0,1.3862427473068237,0,0,1.223039984703064
0.676091803,0,0,1.3862427473068237,0,0,1.2994799613952637
0.676421021,0,0,1.3862427473068237,0,0,0.4586400091648102
0.67677522,0,0,1.3862427473068237,0,0,0.305759996175766
0.677090827,0,0,1.3862427473068237,0,0,0.611519992351532
0.67742449,0,0,1.3862427473068237,0,0,0.3822000026702881
0.677756356,0,0,1.3862427473068237,0,0,-0.305759996175766
0.67809174,0,0,1.41257905960083,0,0,1.070159912109375
0.678425162,0,0,1.41257905960083,0,0,-0.9937199950218201
0.678754398,0,0,1.41257905960083,0,0,1.9109998941421509
0.679087672,0,0,1.41257905960083,0,0,0
0.679436834,0,0,1.41257905960083,0,0,0.7644000053405762
0.679754478,0,0,1.41257905960083,0,0,0.9937199950218201
0.68008927,0,0,1.41257905960083,0,0,0.6879600286483765
0.680422876,0,0,1.4628572463989258,0,0,0.5350799560546875
0.680754409,0,0,1.4628572463989258,0,0,0.8408399820327759
0.681091293,0,0,1.4628572463989258,0,0,0.7644000053405762
0.681424919,0,0,1.4628572463989258,0,0,0.5350799560546875
0.681754285,0,0,1.4628572463989258,0,0,0.9172800183296204
0.682094706,0,0,1.4628572463989258,0,0,0.6879600286483765
0.682428294,0,0,1.4628572463989258,0,0,0.611519992351532
0.682759623,0,0,1.4939818382263184,0,0,0.611519992351532
0.683225099,0,0,1.4939818382263184,0,0,0.305759996175766
0.683439503,0,0,1.4939818382263184,0,0,0.5350799560546875
0.683754759,0,0,1.4939818382263184,0,0,0.611519992351532
0.684091699,0,0,1.4939818382263184,0,0,0.8408399820327759
0.684425565,0,0,1.4939818382263184,0,0,0.4586400091648102
0.684754116,0,0,1.4939818382263184,0,0,0.9937199950218201
0.6850915,0,0,1.4245500564575195,0,0,0.7644000053405762
0.685425292,0,0,1.4245500564575195,0,0,0.7644000053405762
0.685754288,0,0,1.4245500564575195,0,0,0.7644000053405762
0.68609132,0,0,1.4245500564575195,0,0,0.5350799560546875
0.686424538,0,0,1.4245500564575195,0,0,0.5350799560546875
0.686754238,0,0,1.4245500564575195,0,0,0.9172800183296204
0.687091344,0,0,1.4245500564575195,0,0,0.7644000053405762
0.687434488,0,0,1.556231141090393,0,0,0.2293200045824051
0.687754484,0,0,1.556231141090393,0,0,1.605239987373352
0.688087517,0,0,1.556231141090393,0,0,0.5350799560546875
0.688425679,0,0,1.556231141090393,0,0,1.1466000080108643
0.68875986,0,0,1.556231141090393,0,0,1.223039984703064
0.689097466,0,0,1.556231141090393,0,0,1.1466000080108643
0.689448573,0,0,1.556231141090393,0,0,0.5350799560546875
0.689761828,0,0,1.403002142906189,0,0,1.5288000106811523
0.690099416,0,0,1.403002142906189,0,0,1.758120059967041
0.690441838,0,0,1.403002142906189,0,0,1.070159912109375
0.690758241,0,0,1.403002142906189,0,0,0.9172800183296204
0.691093033,0,0,1.403002142906189,0,0,0.7644000053405762
0.691420843,0,0,1.403002142906189,0,0,0.3822000026702881
0.691780487,0,0,1.403002142906189,0,0,0.6879600286483765
0.69209089,0,0,1.3120225667953491,0,0,0.7644000053405762
0.69243496,0,0,1.3120225667953491,0,0,0.7644000053405762
0.692754418,0,0,1.3120225667953491,0,0,0.9172800183296204
0.693087581,0,0,1.3120225667953491,0,0,0.9172800183296204
0.693424465,0,0,1.3120225667953491,0,0,0.611519992351532
0.693754257,0,0,1.3120225667953491,0,0,0.5350799560546875
0.69409129,0,0,1.3120225667953491,0,0,0.6879600286483765
0.694425341,0,0,1.359906554222107,0,0,0.6879600286483765
0.694754355,0,0,1.359906554222107,0,0,0.6879600286483765
0.695091314,0,0,1.359906554222107,0,0,0.5350799560546875
0.695436346,0,0,1.359906554222107,0,0,0.8408399820327759
0.695754601,0,0,1.359906554222107,0,0,0.6879600286483765
0.696091449,0,0,1.359906554222107,0,0,0.6879600286483765
0.696426055,0,0,1.359906554222107,0,0,0.6879600286483765
0.696754236,0,0,1.2473790645599365,0,0,1.070159912109375
0.697087602,0,0,1.2473790645599365,0,0,0.4586400091648102
0.697424727,0,0,1.2473790645599365,0,0,0.9172800183296204
0.697754427,0,0,1.2473790645599365,0,0,0.9172800183296204
0.698088052,0,0,1.2473790645599365,0,0,0.9937199950218201
0.698421085,0,0,1.2473790645599365,0,0,0.8408399820327759
0.69875421,0,0,1.2473790645599365,0,0,0.3822000026702881
0.699091039,0,0,1.3096283674240112,0,0,1.223039984703064
0.699434997,0,0,1.3096283674240112,0,0,0.305759996175766
0.699754586,0,0,1.3096283674240112,0,0,1.2994799613952637
0.700091396,0,0,1.3096283674240112,0,0,0.3822000026702881
0.700424744,0,0,1.3096283674240112,0,0,0.9172800183296204
0.700754313,0,0,1.3096283674240112,0,0,0.6879600286483765
0.701091846,0,0,1.3096283674240112,0,0,0.5350799560546875
0.701425323,0,0,1.3239935636520386,0,0,0.5350799560546875
0.701754263,0,0,1.3239935636520386,0,0,0
0.702091407,0,0,1.3239935636520386,0,0,1.1466000080108643
0.702424606,0,0,1.3239935636520386,0,0,-0.8408399820327759
0.702756843,0,0,1.3239935636520386,0,0,2.06387996673584
0.703091579,0,0,1.3239935636520386,0,0,-37.76136016845703
0.703434889,0,0,1.3239935636520386,0,0,0.9937199950218201
0.703754552,0,0,1.3407529592514038,0,0,1.070159912109375
0.704091251,0,0,1.3407529592514038,0,0,0.611519992351532
0.704424506,0,0,1.3407529592514038,0,0,0.611519992351532
0.704754205,0,0,1.3407529592514038,0,0,0.5350799560546875
0.705091201,0,0,1.3407529592514038,0,0,0.9172800183296204
