Time,AccelX1,AccelY1,AccelZ1,AccelX2,AccelY2,AccelZ2
0.000017,0,0,1.5705963373184204,0,0,1.070159912109375
0.017479207,0,0,1.5945383310317993,0,0,0.9172800183296204
0.017929182,0,0,1.5945383310317993,0,0,0.7644000053405762
0.018301343,0,0,1.5179238319396973,0,0,1.070159912109375
0.018671912,0,0,1.5179238319396973,0,0,1.1466000080108643
0.019041647,0,0,1.5179238319396973,0,0,0.8408399820327759
0.01940929,0,0,1.4053963422775269,0,0,0.6879600286483765
0.019779173,0,0,1.4053963422775269,0,0,1.070159912109375
0.020409127,0,0,1.4293384552001953,0,0,1.070159912109375
0.020784195,0,0,1.4293384552001953,0,0,0.9172800183296204
0.021153875,0,0,1.4293384552001953,0,0,0.9172800183296204
0.021521629,0,0,1.4532804489135742,0,0,1.070159912109375
0.02188979,0,0,1.4532804489135742,0,0,0.9937199950218201
0.022258063,0,0,1.460463047027588,0,0,1.070159912109375
0.022624965,0,0,1.460463047027588,0,0,1.070159912109375
0.023027811,0,0,1.460463047027588,0,0,0.9937199950218201
0.023396324,0,0,1.4652514457702637,0,0,0.8408399820327759
0.023767337,0,0,1.4652514457702637,0,0,1.1466000080108643
0.024285255,0,0,1.5442601442337036,0,0,0.6879600286483765
0.02465375,0,0,1.5442601442337036,0,0,0.8408399820327759
0.025022281,0,0,1.5442601442337036,0,0,0.8408399820327759
0.025428961,0,0,1.5897499322891235,0,0,1.1466000080108643
0.025799474,0,0,1.5897499322891235,0,0,0.5350799560546875
0.026168283,0,0,1.5897499322891235,0,0,0.8408399820327759
0.026535074,0,0,1.6136919260025024,0,0,0.9937199950218201
0.026901883,0,0,1.6136919260025024,0,0,0.8408399820327759
0.027270545,0,0,1.6041151285171509,0,0,0.9937199950218201
0.027679316,0,0,1.6041151285171509,0,0,0.9937199950218201
0.028452583,0,0,1.53707754611969,0,0,0.8408399820327759
0.029450087,0,0,1.5514427423477173,0,0,0.7644000053405762
0.030450979,0,0,1.4437036514282227,0,0,0.9172800183296204
0.031447076,0,0,1.403002142906189,0,0,0.8408399820327759
0.032451302,0,0,1.436521053314209,0,0,0.8408399820327759
0.033451435,0,0,1.4413094520568848,0,0,0.7644000053405762
0.03444805,0,0,1.4197616577148438,0,0,1.223039984703064
0.035466258,0,0,1.3958195447921753,0,0,0.7644000053405762
0.036450706,0,0,1.5610195398330688,0,0,0.6879600286483765
0.037450617,0,0,1.6160861253738403,0,0,0.8408399820327759
0.038449473,0,0,1.5825673341751099,0,0,0.7644000053405762
0.039446218,0,0,1.4963760375976563,0,0,0.7644000053405762
0.040448648,0,0,1.5275006294250488,0,0,0.6879600286483765
0.04144767,0,0,1.4867992401123047,0,0,0.9172800183296204
0.042530395,0,0,1.4939818382263184,0,0,1.1466000080108643
0.043449122,0,0,1.5394717454910278,0,0,0.4586400091648102
0.044620197,0,0,1.4245500564575195,0,0,0.9172800183296204
0.045451889,0,0,1.4963760375976563,0,0,0.9172800183296204
0.046477781,0,0,1.5682021379470825,0,0,0.8408399820327759
0.047455082,0,0,1.5514427423477173,0,0,0.6879600286483765
0.048458271,0,0,1.6041151285171509,0,0,0.9172800183296204
0.049454219,0,0,1.53707754611969,0,0,0.7644000053405762
0.050457778,0,0,1.5179238319396973,0,0,0.9172800183296204
0.051454468,0,0,1.522712230682373,0,0,1.1466000080108643
0.052458008,0,0,1.455674648284912,0,0,0.9172800183296204
0.053452234,0,0,1.414973258972168,0,0,0.9172800183296204
0.054453868,0,0,1.4748282432556152,0,0,0.8408399820327759
0.055481112,0,0,1.3958195447921753,0,0,0.8408399820327759
0.056458339,0,0,1.37906014919281,0,0,1.070159912109375
0.057447843,0,0,1.45806884765625,0,0,0.7644000053405762
0.058600881,0,0,1.4508862495422363,0,0,-9.249239921569824
0.059467813,0,0,1.5490485429763794,0,0,0.6879600286483765
0.06050639,0,0,1.580173134803772,0,0,0.611519992351532
0.06250675,0,0,1.5418659448623657,0,0,0.611519992351532
0.062795301,0,0,1.5418659448623657,0,0,1.070159912109375
0.063396033,0,0,1.45806884765625,0,0,0.6879600286483765
0.064371148,0,0,1.37906014919281,0,0,0.7644000053405762
0.065517372,0,0,1.4748282432556152,0,0,0.8408399820327759
0.066357119,0,0,1.4484920501708984,0,0,0.9937199950218201
0.067348919,0,0,1.3694833517074585,0,0,0.6879600286483765
0.068352053,0,0,1.4652514457702637,0,0,0.7644000053405762
0.069353909,0,0,1.5083470344543457,0,0,0.5350799560546875
0.070348246,0,0,1.5131354331970215,0,0,0.7644000053405762
0.071347157,0,0,1.5538369417190552,0,0,0.4586400091648102
0.072347902,0,0,1.5107412338256836,0,0,0.7644000053405762
0.073342369,0,0,1.5203180313110352,0,0,1.223039984703064
0.074341965,0,0,1.479616641998291,0,0,0.6879600286483765
0.075349395,0,0,1.4460978507995605,0,0,1.1466000080108643
0.076350269,0,0,1.4772224426269531,0,0,0.9937199950218201
0.07734768,0,0,1.4652514457702637,0,0,1.070159912109375
0.078347221,0,0,1.403002142906189,0,0,0.8408399820327759
0.07934754,0,0,1.3982137441635132,0,0,0.7644000053405762
0.080349599,0,0,1.5825673341751099,0,0,0.9172800183296204
0.081348825,0,0,1.6639702320098877,0,0,0.9172800183296204
0.082347681,0,0,1.656787633895874,0,0,0.4586400091648102
0.083351592,0,0,1.558625340461731,0,0,0.8408399820327759
0.084350633,0,0,1.6759412288665771,0,0,1.1466000080108643
0.085385747,0,0,1.5418659448623657,0,0,0.6879600286483765
0.086349659,0,0,1.4484920501708984,0,0,0.6879600286483765
0.087348145,0,0,1.4772224426269531,0,0,0.8408399820327759
0.08834963,0,0,1.4700398445129395,0,0,0.9937199950218201
0.089348393,0,0,1.5155296325683594,0,0,0.9172800183296204
0.090348138,0,0,1.4221558570861816,0,0,1.070159912109375
0.091347345,0,0,1.4724340438842773,0,0,0.7644000053405762
0.092346701,0,0,1.501164436340332,0,0,0.7644000053405762
0.093342631,0,0,1.5658079385757446,0,0,0.7644000053405762
0.094342597,0,0,1.5634137392044067,0,0,0.8408399820327759
0.095342694,0,0,1.6112977266311646,0,0,1.1466000080108643
0.096348475,0,0,1.5131354331970215,0,0,0.6879600286483765
0.097347794,0,0,1.4173674583435059,0,0,0.8408399820327759
0.098347872,0,0,1.3646949529647827,0,0,0.9937199950218201
0.099347191,0,0,1.3192051649093628,0,0,0.8408399820327759
0.10034538,0,0,1.3455413579940796,0,0,0.6879600286483765
0.101341476,0,0,1.3766659498214722,0,0,0.6879600286483765
0.10234198,0,0,1.4293384552001953,0,0,0.5350799560546875
0.103342577,0,0,1.53707754611969,0,0,1.070159912109375
0.104424357,0,0,1.5969325304031372,0,0,0.7644000053405762
0.105527581,0,0,1.6280571222305298,0,0,0.5350799560546875
0.106371106,0,0,1.5753847360610962,0,0,0.8408399820327759
0.107348981,0,0,1.5298948287963867,0,0,0.6879600286483765
0.108350003,0,0,1.3646949529647827,0,0,0.9937199950218201
0.109347859,0,0,1.45806884765625,0,0,0.7644000053405762
0.110347233,0,0,1.41257905960083,0,0,0.5350799560546875
0.111346811,0,0,1.3239935636520386,0,0,0.7644000053405762
0.112346944,0,0,1.4197616577148438,0,0,1.1466000080108643
0.113342411,0,0,1.580173134803772,0,0,0.611519992351532
0.114342822,0,0,1.4987702369689941,0,0,0.8408399820327759
0.115342215,0,0,1.525106430053711,0,0,0.7644000053405762
0.11634833,0,0,1.5107412338256836,0,0,0.6879600286483765
0.117341686,0,0,1.6089035272598267,0,0,0.9172800183296204
0.118367078,0,0,1.6543933153152466,0,0,0.8408399820327759
0.119377952,0,0,1.5275006294250488,0,0,0.7644000053405762
0.120556065,0,0,1.4532804489135742,0,0,0.9172800183296204
0.121420867,0,0,1.4963760375976563,0,0,0.8408399820327759
0.122433926,0,0,1.4413094520568848,0,0,0.8408399820327759
0.123383505,0,0,1.4724340438842773,0,0,0.9172800183296204
0.124350916,0,0,1.534683346748352,0,0,0.7644000053405762
0.125376124,0,0,1.5634137392044067,0,0,0.7644000053405762
0.126350072,0,0,1.5897499322891235,0,0,0.8408399820327759
0.127347965,0,0,1.5298948287963867,0,0,0.9172800183296204
0.12835171,0,0,1.580173134803772,0,0,0.8408399820327759
0.129374861,0,0,1.5658079385757446,0,0,0.9937199950218201
0.130350773,0,0,1.4652514457702637,0,0,0.8408399820327759
0.131347758,0,0,1.455674648284912,0,0,0.6879600286483765
0.132346836,0,0,1.479616641998291,0,0,0.9937199950218201
0.133342303,0,0,1.460463047027588,0,0,0.8408399820327759
0.134342381,0,0,1.4413094520568848,0,0,0.9937199950218201
0.13536094,0,0,1.3982137441635132,0,0,0.4586400091648102
0.136377407,0,0,1.4772224426269531,0,0,0.7644000053405762
0.137348115,0,0,1.5729905366897583,0,0,0.9172800183296204
0.138348267,0,0,1.556231141090393,0,0,0.7644000053405762
0.139347196,0,0,1.5203180313110352,0,0,0.6879600286483765
0.140351274,0,0,1.4844050407409668,0,0,0.6879600286483765
0.141344074,0,0,1.4173674583435059,0,0,0.9172800183296204
0.142342838,0,0,1.4221558570861816,0,0,0.9172800183296204
0.143344415,0,0,1.3670891523361206,0,0,1.1466000080108643
0.144350086,0,0,1.4053963422775269,0,0,0.8408399820327759
0.14534696,0,0,1.4484920501708984,0,0,0.9937199950218201
0.146347797,0,0,1.5466543436050415,0,0,0.9172800183296204
0.147347375,0,0,1.5969325304031372,0,0,0.9937199950218201
0.148347342,0,0,1.556231141090393,0,0,1.070159912109375
0.149346976,0,0,1.522712230682373,0,0,0.305759996175766
0.150347479,0,0,1.501164436340332,0,0,0.7644000053405762
0.151362631,0,0,1.5705963373184204,0,0,0.9937199950218201
0.152376709,0,0,1.4867992401123047,0,0,0.5350799560546875
0.153394916,0,0,1.4317326545715332,0,0,1.070159912109375
0.154350291,0,0,1.5322890281677246,0,0,0.4586400091648102
0.155353739,0,0,1.4987702369689941,0,0,0.9172800183296204
0.156348132,0,0,1.3958195447921753,0,0,1.223039984703064
0.157347617,0,0,1.4532804489135742,0,0,0.6879600286483765
0.158347566,0,0,1.53707754611969,0,0,0.7644000053405762
0.15943042,0,0,1.625662922859192,0,0,0.7644000053405762
0.16034787,0,0,1.6376339197158813,0,0,0.611519992351532
0.161453224,0,0,1.6543933153152466,0,0,0.6879600286483765
0.162412469,0,0,1.6112977266311646,0,0,0.9172800183296204
0.163410065,0,0,1.460463047027588,0,0,0.611519992351532
0.164413143,0,0,1.436521053314209,0,0,0.9172800183296204
0.165409832,0,0,1.4963760375976563,0,0,0.9172800183296204
0.166410429,0,0,1.400607943534851,0,0,0.8408399820327759
0.167409488,0,0,1.460463047027588,0,0,0.9937199950218201
0.168410029,0,0,1.4724340438842773,0,0,0.8408399820327759
0.169410644,0,0,1.525106430053711,0,0,0.6879600286483765
0.170410555,0,0,1.4891934394836426,0,0,1.223039984703064
0.171410559,0,0,1.5155296325683594,0,0,0.6879600286483765
0.172412804,0,0,1.5610195398330688,0,0,0.6879600286483765
0.173410567,0,0,1.5969325304031372,0,0,0.8408399820327759
0.174410737,0,0,1.5466543436050415,0,0,0.8408399820327759
0.1754715,0,0,1.479616641998291,0,0,0.611519992351532
0.176456393,0,0,1.5490485429763794,0,0,0.7644000053405762
0.177452563,0,0,1.436521053314209,0,0,1.070159912109375
0.178423864,0,0,1.4317326545715332,0,0,0.9937199950218201
0.179416368,0,0,1.4676456451416016,0,0,0.7644000053405762
0.18048687,0,0,1.558625340461731,0,0,0.7644000053405762
0.181433431,0,0,1.556231141090393,0,0,1.1466000080108643
0.182538526,0,0,1.6041151285171509,0,0,0.9172800183296204
0.183419605,0,0,1.647210717201233,0,0,0.7644000053405762
0.184440849,0,0,1.5753847360610962,0,0,1.1466000080108643
0.185464168,0,0,1.4963760375976563,0,0,0.9172800183296204
0.186440209,0,0,1.3766659498214722,0,0,0.6879600286483765
0.187414491,0,0,1.3862427473068237,0,0,0.9172800183296204
0.188422087,0,0,1.460463047027588,0,0,-8.867039680480957
0.189404925,0,0,1.4173674583435059,0,0,0.8408399820327759
0.190454743,0,0,1.4460978507995605,0,0,0.6879600286483765
0.191412377,0,0,1.4772224426269531,0,0,0.6879600286483765
0.192414732,0,0,1.4532804489135742,0,0,0.6879600286483765
0.193410903,0,0,1.5298948287963867,0,0,0.9937199950218201
0.194411018,0,0,1.5897499322891235,0,0,0.6879600286483765
0.195410577,0,0,1.6041151285171509,0,0,0.9937199950218201
0.196407637,0,0,1.5298948287963867,0,0,0.6879600286483765
0.197404233,0,0,1.3670891523361206,0,0,0.7644000053405762
0.1984047,0,0,1.4939818382263184,0,0,1.223039984703064
0.199404426,0,0,1.414973258972168,0,0,0.7644000053405762
0.200412615,0,0,1.3263877630233765,0,0,0.9172800183296204
0.201409471,0,0,1.3096283674240112,0,0,0.9172800183296204
0.202409678,0,0,1.3934253454208374,0,0,0.9937199950218201
0.203409941,0,0,1.5514427423477173,0,0,0.8408399820327759
0.204409631,0,0,1.6089035272598267,0,0,0.7644000053405762
0.205409264,0,0,1.53707754611969,0,0,0.9172800183296204
0.206410157,0,0,1.6065093278884888,0,0,0.8408399820327759
0.207409383,0,0,1.5945383310317993,0,0,0.9172800183296204
0.208412701,0,0,1.4508862495422363,0,0,1.070159912109375
0.209409502,0,0,1.434126853942871,0,0,0.7644000053405762
0.210409542,0,0,1.501164436340332,0,0,0.7644000053405762
0.211408324,0,0,1.4772224426269531,0,0,0.7644000053405762
0.212412958,0,0,1.3263877630233765,0,0,0.8408399820327759
0.213409684,0,0,1.4077905416488647,0,0,0.7644000053405762
0.214410113,0,0,1.522712230682373,0,0,0.6879600286483765
0.215409654,0,0,1.5514427423477173,0,0,0.8408399820327759
0.216410047,0,0,1.5705963373184204,0,0,0.7644000053405762
0.217409977,0,0,1.522712230682373,0,0,1.070159912109375
0.218409721,0,0,1.5298948287963867,0,0,0.6879600286483765
0.219600945,0,0,1.4317326545715332,0,0,0.8408399820327759
0.220426914,0,0,1.41257905960083,0,0,0.7644000053405762
0.221406548,0,0,1.4413094520568848,0,0,0.611519992351532
0.222404792,0,0,1.3934253454208374,0,0,0.6879600286483765
0.223404481,0,0,1.482010841369629,0,0,0.9937199950218201
0.22440443,0,0,1.5849615335464478,0,0,0.611519992351532
0.225403119,0,0,1.6950948238372803,0,0,0.4586400091648102
0.226404141,0,0,1.6519991159439087,0,0,0.9172800183296204
0.227404071,0,0,1.647210717201233,0,0,0.7644000053405762
0.22840663,0,0,1.623268723487854,0,0,0.7644000053405762
0.229404208,0,0,1.5514427423477173,0,0,1.070159912109375
0.230404638,0,0,1.4269442558288574,0,0,0.8408399820327759
0.231403216,0,0,1.4700398445129395,0,0,0.8408399820327759
0.232419442,0,0,1.4484920501708984,0,0,0.5350799560546875
0.233410427,0,0,1.403002142906189,0,0,0.6879600286483765
0.234512541,0,0,1.4197616577148438,0,0,0.7644000053405762
0.235505841,0,0,1.41257905960083,0,0,0.6879600286483765
0.236877358,0,0,1.5825673341751099,0,0,0.6879600286483765
0.237522737,0,0,1.6136919260025024,0,0,1.070159912109375
0.238432483,0,0,1.5634137392044067,0,0,0.8408399820327759
0.239431931,0,0,1.5418659448623657,0,0,0.6879600286483765
0.240979742,0,0,1.5634137392044067,0,0,1.070159912109375
0.241450624,0,0,1.4772224426269531,0,0,0.6879600286483765
0.242427684,0,0,1.4269442558288574,0,0,0.7644000053405762
0.243416003,0,0,1.482010841369629,0,0,0.9172800183296204
0.244420488,0,0,1.3766659498214722,0,0,0.8408399820327759
0.245413677,0,0,1.3623007535934448,0,0,0.9172800183296204
0.246413496,0,0,1.4077905416488647,0,0,0.5350799560546875
0.247413574,0,0,1.558625340461731,0,0,0.611519992351532
0.248416429,0,0,1.4844050407409668,0,0,0.9937199950218201
0.249412378,0,0,1.525106430053711,0,0,0.6879600286483765
0.250440548,0,0,1.5514427423477173,0,0,0.6879600286483765
0.251415663,0,0,1.5322890281677246,0,0,1.070159912109375
0.252416334,0,0,1.4652514457702637,0,0,0.611519992351532
0.253412671,0,0,1.3694833517074585,0,0,0.9172800183296204
0.254415026,0,0,1.4484920501708984,0,0,0.611519992351532
0.25541329,0,0,1.3670891523361206,0,0,0.9172800183296204
0.256415867,0,0,1.41257905960083,0,0,1.223039984703064
0.25744463,0,0,1.501164436340332,0,0,0.5350799560546875
0.25841656,0,0,1.50355863571167,0,0,1.070159912109375
0.259443971,0,0,1.525106430053711,0,0,0.7644000053405762
0.260414661,0,0,1.5179238319396973,0,0,0.7644000053405762
0.26141359,0,0,1.5203180313110352,0,0,0.7644000053405762
0.262412983,0,0,1.479616641998291,0,0,0.611519992351532
0.26341332,0,0,1.1540051698684692,0,0,0.611519992351532
0.264412435,0,0,1.1061211824417114,0,0,-9.249239921569824
0.265416958,0,0,1.434126853942871,0,0,0.6879600286483765
0.266414313,0,0,1.6184803247451782,0,0,0.8408399820327759
0.267415836,0,0,1.5945383310317993,0,0,0.4586400091648102
0.268415654,0,0,1.039083480834961,0,0,0.9937199950218201
0.269412973,0,0,0.31364041566848755,0,0,0.2293200045824051
0.270412755,0,0,0.689530074596405,0,0,0
0.271443888,0,0,1.1540051698684692,0,0,0
0.272416614,0,0,1.4844050407409668,0,0,0.2293200045824051
0.273415136,0,0,1.3766659498214722,0,0,0.3822000026702881
0.274413603,0,0,1.158793568611145,0,0,0.7644000053405762
0.275413755,0,0,1.0127472877502441,0,0,0.8408399820327759
0.276415537,0,0,0.8020575642585754,0,0,0.6879600286483765
0.2774148,0,0,1.0438719987869263,0,0,0.9172800183296204
0.278413119,0,0,1.0414776802062988,0,0,0.9172800183296204
0.279414419,0,0,1.2832920551300049,0,0,0
0.280413256,0,0,1.8531121015548706,0,0,0.9172800183296204
0.281413297,0,0,1.867477297782898,0,0,1.2994799613952637
0.282413375,0,0,1.8507179021835327,0,0,0.8408399820327759
0.283413212,0,0,1.5514427423477173,0,0,1.375920057296753
0.28441629,0,0,1.414973258972168,0,0,0.8408399820327759
0.28541309,0,0,1.4317326545715332,0,0,0.305759996175766
0.286412983,0,0,1.2066776752471924,0,0,0.5350799560546875
0.287412505,0,0,1.3479355573654175,0,0,0.4586400091648102
0.288415472,0,0,1.216254472732544,0,0,0.3822000026702881
0.28941268,0,0,1.137245774269104,0,0,0.152879998087883
0.290412869,0,0,1.1803414821624756,0,0,0.8408399820327759
0.29141278,0,0,1.072602391242981,0,0,0.2293200045824051
0.292413728,0,0,1.1013327836990356,0,0,0.4586400091648102
0.293411769,0,0,1.1492167711257935,0,0,0.4586400091648102
0.294412865,0,0,1.235408067703247,0,0,0.611519992351532
0.295413314,0,0,1.314416766166687,0,0,0.5350799560546875
0.296415336,0,0,1.2234370708465576,0,0,-9.172800064086914
0.297413636,0,0,1.2066776752471924,0,0,0.5350799560546875
0.298412714,0,0,1.3694833517074585,0,0,0.9937199950218201
0.299414274,0,0,1.316810965538025,0,0,0.611519992351532
0.300415425,0,0,1.2306196689605713,0,0,0.8408399820327759
0.301412929,0,0,1.316810965538025,0,0,0.7644000053405762
0.302412896,0,0,1.3407529592514038,0,0,0.5350799560546875
0.3034129,0,0,1.5131354331970215,0,0,0.5350799560546875
0.304414737,0,0,1.558625340461731,0,0,0.9172800183296204
0.305413,0,0,1.482010841369629,0,0,0.4586400091648102
0.306412819,0,0,1.4844050407409668,0,0,0.611519992351532
0.307411841,0,0,1.4867992401123047,0,0,0.8408399820327759
0.308412697,0,0,1.3766659498214722,0,0,0.6879600286483765
0.309406645,0,0,1.3527239561080933,0,0,0.8408399820327759
0.310406909,0,0,1.235408067703247,0,0,0.6879600286483765
0.311406894,0,0,1.1348515748977661,0,0,0.5350799560546875
0.312420083,0,0,1.2018892765045166,0,0,0.5350799560546875
0.313413494,0,0,1.2665326595306396,0,0,0.6879600286483765
0.314830621,0,0,1.3551181554794312,0,0,0.3822000026702881
0.315457242,0,0,1.2210428714752197,0,0,0.8408399820327759
0.316451264,0,0,1.0821791887283325,0,0,0.3822000026702881
0.317534174,0,0,1.1013327836990356,0,0,0.4586400091648102
0.318793397,0,0,1.1755530834197998,0,0,0.4586400091648102
0.319448535,0,0,1.1492167711257935,0,0,0.305759996175766
0.320419243,0,0,1.137245774269104,0,0,0.9172800183296204
0.321433747,0,0,1.1324573755264282,0,0,0.5350799560546875
0.322414029,0,0,1.280897855758667,0,0,0.4586400091648102
0.323412588,0,0,1.3838485479354858,0,0,1.1466000080108643
0.324413222,0,0,1.5179238319396973,0,0,0.7644000053405762
0.325412466,0,0,1.721431016921997,0,0,1.070159912109375
0.326413118,0,0,1.7166426181793213,0,0,1.1466000080108643
0.327412659,0,0,1.623268723487854,0,0,0.8408399820327759
0.328416496,0,0,1.5418659448623657,0,0,1.070159912109375
0.329412315,0,0,1.3527239561080933,0,0,0.5350799560546875
0.3304128,0,0,1.161187767982483,0,0,0.611519992351532
0.331413063,0,0,1.1444283723831177,0,0,0.3822000026702881
0.332416067,0,0,1.1899182796478271,0,0,0
0.333412904,0,0,1.1061211824417114,0,0,0
0.334413093,0,0,1.039083480834961,0,0,0.4586400091648102
0.335412838,0,0,0.9696516990661621,0,0,0.152879998087883
0.336412212,0,0,0.933738648891449,0,0,0.305759996175766
0.33741266,0,0,1.0199298858642578,0,0,0.4586400091648102
0.338412794,0,0,1.216254472732544,0,0,0.611519992351532
0.33941289,0,0,1.3311761617660522,0,0,0.4586400091648102
0.340416005,0,0,1.4891934394836426,0,0,0.9172800183296204
0.341413287,0,0,1.4676456451416016,0,0,0.6879600286483765
0.342412383,0,0,1.3503297567367554,0,0,0.9937199950218201
0.34341272,0,0,1.2617442607879639,0,0,0.6879600286483765
0.344412558,0,0,1.2090718746185303,0,0,0.611519992351532
0.345406839,0,0,1.1875240802764893,0,0,0.8408399820327759
0.346406806,0,0,1.1300631761550903,0,0,0.3822000026702881
0.34740681,0,0,1.2713210582733154,0,0,0.305759996175766
0.348415295,0,0,1.4317326545715332,0,0,0.3822000026702881
0.349413892,0,0,1.4700398445129395,0,0,0.8408399820327759
0.350413229,0,0,1.3479355573654175,0,0,0.9172800183296204
0.351413048,0,0,1.3551181554794312,0,0,1.070159912109375
0.3524112,0,0,1.1540051698684692,0,0,0.7644000053405762
0.353409833,0,0,1.139639973640442,0,0,0.5350799560546875
0.354409096,0,0,1.3407529592514038,0,0,0.3822000026702881
0.355407378,0,0,1.2617442607879639,0,0,0.4586400091648102
0.356415826,0,0,1.1971008777618408,0,0,0.5350799560546875
0.3574132,0,0,1.2042834758758545,0,0,0.2293200045824051
0.358411686,0,0,1.359906554222107,0,0,0.4586400091648102
0.359442393,0,0,1.6424223184585571,0,0,0.5350799560546875
0.36041449,0,0,1.6639702320098877,0,0,0.7644000053405762
0.361413253,0,0,1.4724340438842773,0,0,1.1466000080108643
0.362413479,0,0,1.3934253454208374,0,0,1.223039984703064
0.36341302,0,0,1.0749965906143188,0,0,0.8408399820327759
0.364416394,0,0,0.993593692779541,0,0,0.3822000026702881
0.36541325,0,0,1.070208191871643,0,0,0.2293200045824051
0.366413216,0,0,1.1300631761550903,0,0,0.2293200045824051
0.367412479,0,0,1.2976573705673218,0,0,0
0.368415298,0,0,1.5490485429763794,0,0,0.152879998087883
0.369413469,0,0,1.941697597503662,0,0,0.9937199950218201
0.370413139,0,0,1.941697597503662,0,0,1.375920057296753
0.371413347,0,0,1.5945383310317993,0,0,1.223039984703064
0.372414406,0,0,0.9265560507774353,0,0,0.9172800183296204
0.373413521,0,0,0.6320692300796509,0,0,0.5350799560546875
0.374413192,0,0,0.646434485912323,0,0,0
0.37541264,0,0,0.9169792532920837,0,0,0.0764399990439415
0.376414884,0,0,1.2497732639312744,0,0,0
0.377412777,0,0,1.5514427423477173,0,0,9.631440162658691
0.378413114,0,0,1.7693150043487549,0,0,0.5350799560546875
0.379412174,0,0,1.6543933153152466,0,0,0.9937199950218201
0.380415159,0,0,1.278503656387329,0,0,1.070159912109375
0.381413144,0,0,0.8020575642585754,0,0,0.7644000053405762
0.382412685,0,0,0.5339069962501526,0,0,0.611519992351532
0.383413263,0,0,0.5386953949928284,0,0,0.611519992351532
0.384412286,0,0,1.1228805780410767,0,0,0.0764399990439415
0.385407401,0,0,1.7190368175506592,0,0,0.305759996175766
0.386406738,0,0,2.0183119773864746,0,0,0.6879600286483765
0.387406816,0,0,2.0590133666992188,0,0,1.6816799640655518
0.388414616,0,0,1.745373010635376,0,0,1.375920057296753
0.389413545,0,0,1.2737152576446533,0,0,1.5288000106811523
0.390413235,0,0,0.8762778043746948,0,0,1.1466000080108643
0.391413405,0,0,0.9074024558067322,0,0,0.4586400091648102
0.392418224,0,0,1.335964560508728,0,0,0
0.393413431,0,0,1.8052281141281128,0,0,0.305759996175766
0.39441288,0,0,2.126051187515259,0,0,0.7644000053405762
0.395413457,0,0,2.030282974243164,0,0,0.9937199950218201
0.396415091,0,0,1.4053963422775269,0,0,1.070159912109375
0.397412965,0,0,0.7134721279144287,0,0,0.5350799560546875
0.398493042,0,0,0.4668693244457245,0,0,0.8408399820327759
0.399447213,0,0,0.6655880808830261,0,0,0.0764399990439415
0.400416866,0,0,1.2186486721038818,0,0,0.4586400091648102
0.401458924,0,0,1.6831238269805908,0,0,0.6879600286483765
0.402456058,0,0,1.5945383310317993,0,0,0.9937199950218201
0.404484769,0,0,1.5945383310317993,0,0,1.1466000080108643
0.404822431,0,0,1.259350061416626,0,0,0.9937199950218201
0.405412848,0,0,0.8762778043746948,0,0,0.4586400091648102
0.406408889,0,0,0.8571242094039917,0,0,0.305759996175766
0.407407207,0,0,1.3455413579940796,0,0,0.0764399990439415
0.408411174,0,0,1.6903064250946045,0,0,0
0.409406789,0,0,1.6328455209732056,0,0,0.7644000053405762
0.410435422,0,0,1.414973258972168,0,0,0.5350799560546875
0.41140876,0,0,0.9385270476341248,0,0,0.4586400091648102
0.412406986,0,0,0.5530605912208557,0,0,0.611519992351532
0.413406842,0,0,0.48602294921875,0,0,0.2293200045824051
0.414407382,0,0,0.9816226959228516,0,0,9.631440162658691
0.415406442,0,0,1.5394717454910278,0,0,0.5350799560546875
0.416416057,0,0,1.824381709098816,0,0,0.5350799560546875
0.41741382,0,0,1.479616641998291,0,0,1.1466000080108643
0.418412583,0,0,1.3311761617660522,0,0,1.223039984703064
0.419412587,0,0,1.3096283674240112,0,0,0.8408399820327759
0.420603736,0,0,1.5825673341751099,0,0,1.2994799613952637
0.421415854,0,0,1.7190368175506592,0,0,1.2994799613952637
0.422414228,0,0,1.601720929145813,0,0,0.9172800183296204
0.423413973,0,0,1.3000515699386597,0,0,0.8408399820327759
0.424415458,0,0,1.1803414821624756,0,0,0.8408399820327759
0.425411702,0,0,1.522712230682373,0,0,9.631440162658691
0.426413151,0,0,1.920149803161621,0,0,0.4586400091648102
0.427412155,0,0,1.8531121015548706,0,0,0.6879600286483765
0.428415344,0,0,1.316810965538025,0,0,0.152879998087883
0.429412718,0,0,0.9600749015808105,0,0,0.7644000053405762
0.430412574,0,0,0.6392518281936646,0,0,0.611519992351532
0.431413151,0,0,0.6751648783683777,0,0,0
0.432414766,0,0,1.039083480834961,0,0,9.478560447692871
0.433412715,0,0,0.9840168952941895,0,0,0.5350799560546875
0.434414904,0,0,0.9481038451194763,0,0,0.152879998087883
0.435437074,0,0,1.072602391242981,0,0,0.0764399990439415
0.436419171,0,0,1.0534487962722778,0,0,0.3822000026702881
0.437406063,0,0,1.1420341730117798,0,0,0.3822000026702881
0.438406401,0,0,1.3311761617660522,0,0,0.611519992351532
0.439405701,0,0,1.558625340461731,0,0,0.5350799560546875
0.440409149,0,0,1.5634137392044067,0,0,1.6816799640655518
0.44140632,0,0,1.400607943534851,0,0,1.5288000106811523
0.442406435,0,0,1.8746598958969116,0,0,1.070159912109375
0.443406401,0,0,1.8794482946395874,0,0,1.452359914779663
0.444422849,0,0,1.678335428237915,0,0,1.605239987373352
0.445412427,0,0,1.6711528301239014,0,0,1.070159912109375
0.446410746,0,0,1.290474772453308,0,0,1.070159912109375
0.447411861,0,0,1.4245500564575195,0,0,0.2293200045824051
0.448414643,0,0,1.7477672100067139,0,0,0.2293200045824051
0.449411628,0,0,1.821987509727478,0,0,0.305759996175766
0.45041178,0,0,1.6160861253738403,0,0,0.0764399990439415
0.451411488,0,0,0.9792284965515137,0,0,0.4586400091648102
0.452416065,0,0,0.5841852426528931,0,0,0.2293200045824051
0.453411606,0,0,0.6272808313369751,0,0,0
0.454411925,0,0,0.608127236366272,0,0,0.305759996175766
0.455411559,0,0,0.6823474764823914,0,0,9.631440162658691
0.456414507,0,0,0.667982280254364,0,0,0
0.457411437,0,0,0.768538773059845,0,0,9.402119636535645
0.458412033,0,0,1.1516109704971313,0,0,0.5350799560546875
0.459510165,0,0,1.3934253454208374,0,0,0.9172800183296204
0.460415152,0,0,1.7070658206939697,0,0,0.8408399820327759
0.461410711,0,0,1.556231141090393,0,0,1.9874399900436401
0.462455974,0,0,1.6328455209732056,0,0,1.452359914779663
0.463455533,0,0,2.011129379272461,0,0,1.452359914779663
0.464457407,0,0,1.824381709098816,0,0,1.9874399900436401
0.465454967,0,0,1.8986018896102905,0,0,1.1466000080108643
0.466455971,0,0,1.460463047027588,0,0,1.375920057296753
0.467942171,0,0,1.434126853942871,0,0,1.1466000080108643
0.468496367,0,0,1.7357962131500244,0,0,0
0.469466889,0,0,1.680729627609253,0,0,0.5350799560546875
0.4709932,0,0,1.5322890281677246,0,0,0.2293200045824051
0.47148336,0,0,1.1037269830703735,0,0,0.4586400091648102
0.472465512,0,0,0.8331822156906128,0,0,0.2293200045824051
0.473458127,0,0,1.072602391242981,0,0,0.0764399990439415
0.474480075,0,0,0.5315127968788147,0,0,0.0764399990439415
0.475457894,0,0,0.3064578175544739,0,0,9.478560447692871
0.476459991,0,0,0.3280056416988373,0,0,0
0.477455994,0,0,0.5602431893348694,0,0,0
0.478456461,0,0,1.2617442607879639,0,0,9.707880020141602
0.479456058,0,0,1.6089035272598267,0,0,0.3822000026702881
0.480458506,0,0,1.5969325304031372,0,0,1.223039984703064
0.481456362,0,0,1.8076223134994507,0,0,1.223039984703064
0.482456754,0,0,1.6879122257232666,0,0,1.9874399900436401
0.483456055,0,0,1.5945383310317993,0,0,1.1466000080108643
0.484458484,0,0,1.482010841369629,0,0,1.9109998941421509
0.485746651,0,0,1.0558429956436157,0,0,0.8408399820327759
0.486461066,0,0,1.678335428237915,0,0,0.152879998087883
0.487457885,0,0,1.8195933103561401,0,0,0.9172800183296204
0.488460055,0,0,1.7908629179000854,0,0,0.2293200045824051
0.489457429,0,0,1.460463047027588,0,0,1.1466000080108643
0.490456396,0,0,0.9720458984375,0,0,0.5350799560546875
0.491457104,0,0,0.993593692779541,0,0,0.611519992351532
0.492459441,0,0,0.8188169598579407,0,0,0.305759996175766
0.493456038,0,0,0.5602431893348694,0,0,9.402119636535645
0.494456004,0,0,0.7038952708244324,0,0,0
0.495456601,0,0,1.0438719987869263,0,0,-29.582279205322266
0.496458864,0,0,1.558625340461731,0,0,0.0764399990439415
0.497456312,0,0,1.5969325304031372,0,0,1.1466000080108643
0.498455946,0,0,1.8387469053268433,0,0,0.9937199950218201
0.499455783,0,0,1.5705963373184204,0,0,1.8345600366592407
0.500458472,0,0,1.1827356815338135,0,0,1.6816799640655518
0.501455976,0,0,1.0893617868423462,0,0,1.2994799613952637
0.502456128,0,0,1.039083480834961,0,0,0.611519992351532
0.503455687,0,0,1.6927006244659424,0,0,0
0.504455672,0,0,1.9704279899597168,0,0,0.4586400091648102
0.505449158,0,0,1.843535304069519,0,0,0.305759996175766
0.506448532,0,0,1.659181833267212,0,0,0.5350799560546875
0.507449073,0,0,1.1851298809051514,0,0,0.9172800183296204
0.508458336,0,0,0.6129156351089478,0,0,0.152879998087883
0.509454044,0,0,0.2968810200691223,0,0,0.4586400091648102
0.510453399,0,0,0.21308395266532898,0,0,0
0.511455199,0,0,0.6320692300796509,0,0,0
0.512455648,0,0,1.2449848651885986,0,0,0.0764399990439415
0.513536724,0,0,1.7741034030914307,0,0,0.6879600286483765
0.514462433,0,0,2.2194249629974365,0,0,1.223039984703064
0.515455993,0,0,2.0901381969451904,0,0,2.14031982421875
0.516458385,0,0,1.455674648284912,0,0,1.452359914779663
0.517455241,0,0,1.01753568649292,0,0,1.8345600366592407
0.518454615,0,0,1.2234370708465576,0,0,0.8408399820327759
0.519454786,0,0,1.5825673341751099,0,0,0.3822000026702881
0.52045779,0,0,1.8842366933822632,0,0,0.5350799560546875
0.521454312,0,0,1.98958158493042,0,0,0.0764399990439415
0.522455149,0,0,1.8483237028121948,0,0,0.611519992351532
0.523453264,0,0,1.3096283674240112,0,0,0.6879600286483765
0.524458138,0,0,0.6344634294509888,0,0,0.305759996175766
0.525454883,0,0,0.10055647045373917,0,0,0.0764399990439415
0.526454405,0,0,0.21787235140800476,0,0,-29.582279205322266
0.527454261,0,0,0.8762778043746948,0,0,-0.611519992351532
0.528458061,0,0,1.2521674633026123,0,0,0.2293200045824051
0.529454787,0,0,1.7764976024627686,0,0,0.2293200045824051
0.530454032,0,0,2.0159177780151367,0,0,0.6879600286483765
0.531453017,0,0,1.4293384552001953,0,0,1.9109998941421509
0.532456539,0,0,0.950498104095459,0,0,1.605239987373352
0.533455154,0,0,0.8355764150619507,0,0,1.1466000080108643
0.534454603,0,0,1.158793568611145,0,0,0.9937199950218201
0.535455107,0,0,1.5682021379470825,0,0,0.5350799560546875
0.536457222,0,0,1.6041151285171509,0,0,0.152879998087883
0.537455244,0,0,1.86508309841156,0,0,0.7644000053405762
0.538455044,0,0,1.4915876388549805,0,0,0.5350799560546875
0.539454437,0,0,1.0845733880996704,0,0,0.305759996175766
0.5404577,0,0,0.35913026332855225,0,0,0.7644000053405762
0.541454611,0,0,0.7326257228851318,0,0,9.631440162658691
0.542454522,0,0,1.0127472877502441,0,0,0.305759996175766
0.543454526,0,0,1.577778935432434,0,0,0.4586400091648102
0.544457123,0,0,1.8914192914962769,0,0,0.305759996175766
0.545453756,0,0,1.6304513216018677,0,0,1.605239987373352
0.546454742,0,0,1.1180921792984009,0,0,0.9937199950218201
0.547454523,0,0,1.2186486721038818,0,0,0.5350799560546875
0.548457008,0,0,1.455674648284912,0,0,0.9172800183296204
0.549454568,0,0,1.9536685943603516,0,0,0.305759996175766
0.550453794,0,0,1.9177556037902832,0,0,0.3822000026702881
0.551454705,0,0,1.824381709098816,0,0,0.7644000053405762
0.552457672,0,0,1.0079588890075684,0,0,0.9172800183296204
0.55345325,0,0,0.40701428055763245,0,0,0.5350799560546875
0.554454754,0,0,0.304063618183136,0,0,0.4586400091648102
0.555454665,0,0,0.6751648783683777,0,0,0.2293200045824051
0.556457743,0,0,0.9289502501487732,0,0,0.4586400091648102
0.557454691,0,0,1.4389152526855469,0,0,0.0764399990439415
0.558454603,0,0,1.6663644313812256,0,0,0.5350799560546875
0.559549123,0,0,1.6735470294952393,0,0,1.223039984703064
0.56045761,0,0,1.316810965538025,0,0,0.9937199950218201
0.561453984,0,0,1.3096283674240112,0,0,0.6879600286483765
0.562770984,0,0,1.525106430053711,0,0,0.8408399820327759
0.5634409,0,0,1.173158884048462,0,0,1.1466000080108643
0.564418219,0,0,0.9888052940368652,0,0,0.305759996175766
0.565535888,0,0,1.2976573705673218,0,0,0.2293200045824051
0.566415578,0,0,1.1899182796478271,0,0,-9.172800064086914
0.567412841,0,0,1.3527239561080933,0,0,0.152879998087883
0.568414956,0,0,1.4891934394836426,0,0,0.2293200045824051
0.569412053,0,0,1.3120225667953491,0,0,1.223039984703064
0.570411946,0,0,1.278503656387329,0,0,1.1466000080108643
0.571412468,0,0,1.4197616577148438,0,0,0.611519992351532
0.572414546,0,0,1.173158884048462,0,0,1.2994799613952637
0.573410939,0,0,1.0247182846069336,0,0,0.9172800183296204
0.574411591,0,0,1.3311761617660522,0,0,0.2293200045824051
0.575412076,0,0,1.6160861253738403,0,0,0.6879600286483765
0.576414117,0,0,1.4700398445129395,0,0,1.375920057296753
0.577433676,0,0,1.482010841369629,0,0,0
0.578412976,0,0,1.3215993642807007,0,0,0.8408399820327759
0.57941198,0,0,0.7469909191131592,0,0,1.1466000080108643
0.580414817,0,0,1.0893617868423462,0,0,-0.3822000026702881
0.58141221,0,0,1.4317326545715332,0,0,0.6879600286483765
0.582412381,0,0,1.53707754611969,0,0,1.1466000080108643
0.583411977,0,0,1.766920804977417,0,0,0.2293200045824051
0.584414037,0,0,1.601720929145813,0,0,1.1466000080108643
0.5854123,0,0,0.7757213711738586,0,0,1.6816799640655518
0.586411896,0,0,0.5746083855628967,0,0,0
0.587412196,0,0,1.1061211824417114,0,0,0
0.588413645,0,0,1.1348515748977661,0,0,0.611519992351532
0.5894115,0,0,1.094150185585022,0,0,9.325679779052734
0.590411726,0,0,1.4389152526855469,0,0,-29.582279205322266
0.591412749,0,0,1.2401964664459229,0,0,1.070159912109375
0.592415752,0,0,1.1013327836990356,0,0,0.152879998087883
0.593412312,0,0,1.5873557329177856,0,0,0.2293200045824051
0.59441239,0,0,1.357512354850769,0,0,2.2167599201202393
0.595411301,0,0,1.5394717454910278,0,0,0.9937199950218201
0.596412805,0,0,1.4293384552001953,0,0,0.8408399820327759
0.597412142,0,0,1.094150185585022,0,0,2.3696401119232178
0.598411868,0,0,1.1492167711257935,0,0,0.9172800183296204
0.599413965,0,0,1.5945383310317993,0,0,0.305759996175766
0.600419913,0,0,1.3455413579940796,0,0,1.375920057296753
0.601412472,0,0,1.5203180313110352,0,0,9.096360206604004
0.602412421,0,0,1.7094600200653076,0,0,0
0.603412054,0,0,1.2976573705673218,0,0,1.605239987373352
0.60441291,0,0,1.4748282432556152,0,0,9.631440162658691
0.605412451,0,0,1.3718775510787964,0,0,0
0.606412251,0,0,1.0845733880996704,0,0,1.8345600366592407
0.607412125,0,0,1.2042834758758545,0,0,0.3822000026702881
0.608412573,0,0,0.5602431893348694,0,0,0.611519992351532
0.609411762,0,0,0.4141969084739685,0,0,1.6816799640655518
0.610411933,0,0,0.8595184087753296,0,0,8.790599822998047
0.611411511,0,0,0.9002198576927185,0,0,0.2293200045824051
0.612412681,0,0,1.4772224426269531,0,0,0.611519992351532
0.613411611,0,0,1.8698714971542358,0,0,9.019920349121094
0.614411782,0,0,1.7286136150360107,0,0,1.1466000080108643
0.615411748,0,0,1.6759412288665771,0,0,1.452359914779663
0.616411493,0,0,1.7573440074920654,0,0,9.631440162658691
0.617414219,0,0,1.359906554222107,0,0,2.446079969406128
0.618412482,0,0,1.4724340438842773,0,0,1.758120059967041
0.619411819,0,0,0.7374141216278076,0,0,0.3822000026702881
0.620413286,0,0,0.47644615173339844,0,0,1.5288000106811523
0.621411772,0,0,1.2234370708465576,0,0,-0.4586400091648102
0.622412627,0,0,1.580173134803772,0,0,-29.582279205322266
0.623411909,0,0,1.4460978507995605,0,0,1.070159912109375
0.624412468,0,0,2.070984363555908,0,0,-0.5350799560546875
0.625411991,0,0,1.3048399686813354,0,0,0.4586400091648102
0.626412124,0,0,1.290474772453308,0,0,1.5288000106811523
0.627412387,0,0,1.6543933153152466,0,0,0
0.628413076,0,0,1.0821791887283325,0,0,1.6816799640655518
0.629412395,0,0,1.764526605606079,0,0,1.452359914779663
0.630411788,0,0,1.0007762908935547,0,0,0.5350799560546875
0.631411606,0,0,0.42616790533065796,0,0,1.223039984703064
0.632415425,0,0,1.137245774269104,0,0,0
0.633412114,0,0,0.8355764150619507,0,0,0
0.634412007,0,0,1.1013327836990356,0,0,0.305759996175766
0.635412511,0,0,2.1140801906585693,0,0,-29.888038635253906
0.636413959,0,0,0.9552865028381348,0,0,0.152879998087883
0.637412148,0,0,1.8794482946395874,0,0,0.611519992351532
0.638411078,0,0,2.0039467811584473,0,0,0.7644000053405762
0.639411693,0,0,1.1755530834197998,0,0,1.9109998941421509
0.640414437,0,0,1.7956513166427612,0,0,1.070159912109375
0.64141196,0,0,0.37828385829925537,0,0,2.14031982421875
0.642412445,0,0,0.10773907601833344,0,0,0.9937199950218201
0.643411615,0,0,1.4532804489135742,0,0,0
0.644414082,0,0,0.646434485912323,0,0,0.0764399990439415
0.645411605,0,0,1.9800047874450684,0,0,-1.1466000080108643
0.646412183,0,0,2.1930887699127197,0,0,0.9172800183296204
0.647412538,0,0,1.3263877630233765,0,0,0
0.648413561,0,0,2.4157495498657227,0,0,0
0.649411139,0,0,1.2449848651885986,0,0,2.5989599227905273
0.650411365,0,0,1.3239935636520386,0,0,0.5350799560546875
0.65141135,0,0,-0.08379705995321274,0,0,9.631440162658691
0.653842518,0,0,-0.08379705995321274,0,0,9.019920349121094
0.65418742,0,0,0.8906430602073669,0,0,9.019920349121094
0.654526767,0,0,0.8930372595787048,0,0,0.9172800183296204
0.655440902,0,0,0.871489405632019,0,0,7.6439995765686035
0.656421295,0,0,1.9369091987609863,0,0,9.631440162658691
0.657412466,0,0,1.2737152576446533,0,0,0.6879600286483765
0.658412969,0,0,1.9177556037902832,0,0,9.325679779052734
0.659448658,0,0,1.8746598958969116,0,0,3.0576000213623047
0.660415496,0,0,1.338358759880066,0,0,1.223039984703064
0.661412555,0,0,1.1803414821624756,0,0,1.758120059967041
0.662412652,0,0,0.05746084079146385,0,0,2.446079969406128
0.663412544,0,0,0.4118026793003082,0,0,9.325679779052734
0.664414622,0,0,0.828393816947937,0,0,0.9937199950218201
0.665412626,0,0,1.4867992401123047,0,0,8.026199340820313
0.666412574,0,0,1.889025092124939,0,0,0.611519992351532
0.667412967,0,0,1.9273324012756348,0,0,0.5350799560546875
0.668414582,0,0,2.382230758666992,0,0,0
0.66941266,0,0,2.1332337856292725,0,0,3.2869198322296143
0.670412238,0,0,1.965639591217041,0,0,1.223039984703064
0.671412668,0,0,1.381454348564148,0,0,2.14031982421875
0.672411727,0,0,0.38307225704193115,0,0,1.9874399900436401
0.673406601,0,0,0.40940847992897034,0,0,9.478560447692871
0.674405957,0,0,0.524330198764801,0,0,0.8408399820327759
0.675407146,0,0,1.2545616626739502,0,0,8.17908000946045
0.676416668,0,0,1.482010841369629,0,0,0.8408399820327759
0.677412709,0,0,2.183511972427368,0,0,-29.888038635253906
0.678412732,0,0,2.4229321479797363,0,0,0.305759996175766
0.679414106,0,0,2.410961151123047,0,0,2.446079969406128
0.680410184,0,0,1.900996208190918,0,0,0.3822000026702881
0.681405558,0,0,0.36152446269989014,0,0,3.210479974746704
0.682406895,0,0,0.07182604819536209,0,0,1.1466000080108643
0.683406621,0,0,0.1628057211637497,0,0,-29.582279205322266
0.684412773,0,0,0.9241618514060974,0,0,0.5350799560546875
0.685412333,0,0,1.7310078144073486,0,0,-30.19379997253418
0.686411985,0,0,2.118868589401245,0,0,0.7644000053405762
0.687412063,0,0,3.2824504375457764,0,0,0.4586400091648102
0.688413955,0,0,2.8850131034851074,0,0,2.6754000186920166
0.689411459,0,0,2.7293899059295654,0,0,2.446079969406128
0.690411685,0,0,1.5729905366897583,0,0,2.446079969406128
0.691411634,0,0,0.24181437492370605,0,0,2.751840114593506
0.692413971,0,0,0.4620809257030487,0,0,9.478560447692871
0.693411678,0,0,0.395043283700943,0,0,0.3822000026702881
0.694410941,0,0,1.3694833517074585,0,0,8.484840393066406
0.695411427,0,0,1.7405846118927002,0,0,9.019920349121094
0.696413301,0,0,2.161964178085327,0,0,0.152879998087883
0.69741212,0,0,2.628833532333374,0,0,0.3822000026702881
0.69841166,0,0,2.051830768585205,0,0,2.6754000186920166
0.699411109,0,0,1.699883222579956,0,0,1.070159912109375
0.70041452,0,0,0.38546648621559143,0,0,2.904719829559326
0.701411968,0,0,-0.10773907601833344,0,0,1.223039984703064
0.702412009,0,0,0.07661445438861847,0,0,9.631440162658691
0.70341118,0,0,0.5961562395095825,0,0,0.3822000026702881
0.704414295,0,0,1.7405846118927002,0,0,8.40839958190918
0.705413206,0,0,2.054224967956543,0,0,0.4586400091648102
0.706412895,0,0,3.2824504375457764,0,0,0
0.707412491,0,0,3.160346269607544,0,0,1.223039984703064
0.708414199,0,0,2.631227731704712,0,0,2.2932000160217285
0.709411962,0,0,1.7573440074920654,0,0,2.522519826889038
0.710411984,0,0,0.11013327538967133,0,0,3.210479974746704
0.711411803,0,0,-0.023942016065120697,0,0,0
0.712413733,0,0,-0.05267243832349777,0,0,0.7644000053405762
0.71341157,0,0,1.0103530883789063,0,0,8.867039680480957
0.714411778,0,0,1.7693150043487549,0,0,-30.499561309814453
0.7154118,0,0,2.070984363555908,0,0,0.6879600286483765
0.716414137,0,0,2.980781078338623,0,0,9.172800064086914
0.717411585,0,0,2.612074136734009,0,0,2.14031982421875
0.718412015,0,0,2.5330653190612793,0,0,1.070159912109375
0.71941163,0,0,1.1516109704971313,0,0,3.0576000213623047
0.720412856,0,0,0.1388636976480484,0,0,2.446079969406128
0.721410805,0,0,0.08858546614646912,0,0,-29.582279205322266
0.722411845,0,0,0.043095629662275314,0,0,1.223039984703064
0.723412127,0,0,1.0678139925003052,0,0,8.714159965515137
0.724413112,0,0,1.4173674583435059,0,0,0.305759996175766
0.725411301,0,0,2.6144683361053467,0,0,-0.611519992351532
0.726411731,0,0,2.9927520751953125,0,0,0.3822000026702881
0.72741205,0,0,2.846705913543701,0,0,2.446079969406128
0.728413628,0,0,2.5761611461639404,0,0,1.375920057296753
0.729439872,0,0,0.7182605266571045,0,0,3.4398000240325928
0.730413321,0,0,0.15322890877723694,0,0,0.9937199950218201
0.731411991,0,0,-0.0933738648891449,0,0,1.070159912109375
0.732413865,0,0,0.49320554733276367,0,0,-0.3822000026702881
0.733411906,0,0,1.3096283674240112,0,0,8.714159965515137
0.734411632,0,0,1.659181833267212,0,0,0.152879998087883
0.735412099,0,0,3.0358476638793945,0,0,9.402119636535645
0.73644251,0,0,2.999934673309326,0,0,1.5288000106811523
0.737415181,0,0,3.1483752727508545,0,0,1.9109998941421509
0.738412907,0,0,1.8914192914962769,0,0,1.605239987373352
0.7394113,0,0,0.6057330369949341,0,0,3.516240119934082
0.740414804,0,0,0.27054479718208313,0,0,0.2293200045824051
0.741411863,0,0,-0.10055647045373917,0,0,0.9937199950218201
0.742411682,0,0,0.6727706789970398,0,0,-1.1466000080108643
0.74341126,0,0,0.8547300100326538,0,0,-0.3822000026702881
0.744414023,0,0,1.8986018896102905,0,0,9.019920349121094
0.74541123,0,0,2.6671407222747803,0,0,0
0.746410493,0,0,2.6839001178741455,0,0,2.2167599201202393
0.747426849,0,0,2.8826189041137695,0,0,0.7644000053405762
0.748415445,0,0,1.213860273361206,0,0,2.9811599254608154
0.749411875,0,0,0.4381389021873474,0,0,2.446079969406128
0.750411879,0,0,0.3232172429561615,0,0,0.3822000026702881
0.751412587,0,0,0.2944868206977844,0,0,0.611519992351532
0.752413961,0,0,1.0797849893569946,0,0,-30.499561309814453
0.753411946,0,0,1.5275006294250488,0,0,0.3822000026702881
0.754411561,0,0,2.6671407222747803,0,0,9.325679779052734
0.755411917,0,0,2.7748796939849854,0,0,1.2994799613952637
0.756413754,0,0,2.7317841053009033,0,0,2.14031982421875
0.757411554,0,0,1.9297266006469727,0,0,1.1466000080108643
0.758411651,0,0,0.6153098344802856,0,0,3.134040117263794
0.759412025,0,0,0.2753331959247589,0,0,0
0.760500916,0,0,0.3256114423274994,0,0,0.305759996175766
0.761411236,0,0,1.2234370708465576,0,0,-29.888038635253906
0.762411759,0,0,1.3623007535934448,0,0,9.402119636535645
0.763455984,0,0,1.8794482946395874,0,0,0
0.76445834,0,0,2.5977089405059814,0,0,0
0.765455066,0,0,2.2912509441375732,0,0,2.828279972076416
0.766454848,0,0,2.33913516998291,0,0,1.2994799613952637
0.767454777,0,0,1.2689268589019775,0,0,2.6754000186920166
0.768456077,0,0,0.6536170840263367,0,0,2.828279972076416
0.769454266,0,0,0.7541735172271729,0,0,-29.582279205322266
0.770455363,0,0,0.7110779285430908,0,0,1.2994799613952637
0.771455107,0,0,1.5203180313110352,0,0,-30.499561309814453
0.772457334,0,0,1.556231141090393,0,0,0.2293200045824051
0.773455689,0,0,2.497152328491211,0,0,9.325679779052734
0.774455304,0,0,2.3702597618103027,0,0,0.7644000053405762
0.775455067,0,0,2.1763293743133545,0,0,2.2932000160217285
0.776457664,0,0,1.9943699836730957,0,0,0.9937199950218201
0.777455223,0,0,0.33997663855552673,0,0,3.3633599281311035
0.778454653,0,0,0.33997663855552673,0,0,1.070159912109375
0.779455046,0,0,0.304063618183136,0,0,0.0764399990439415
0.780462142,0,0,1.0247182846069336,0,0,0.305759996175766
0.781455979,0,0,1.4437036514282227,0,0,-1.1466000080108643
0.782453891,0,0,1.8483237028121948,0,0,0.5350799560546875
0.783455283,0,0,2.6192567348480225,0,0,9.478560447692871
0.784628877,0,0,2.542642116546631,0,0,2.2932000160217285
0.785889062,0,0,2.7222073078155518,0,0,0.9172800183296204
0.786488368,0,0,1.4987702369689941,0,0,3.0576000213623047
0.787961717,0,0,0.7230489253997803,0,0,3.3633599281311035
0.788477839,0,0,0.6631938815116882,0,0,0
0.789470362,0,0,0.7015010714530945,0,0,1.452359914779663
0.790574364,0,0,1.2737152576446533,0,0,0.2293200045824051
0.791477184,0,0,1.4197616577148438,0,0,-0.611519992351532
0.79259689,0,0,2.4636335372924805,0,0,0.2293200045824051
0.793491284,0,0,2.389413356781006,0,0,-29.582279205322266
0.794460307,0,0,2.3582887649536133,0,0,1.8345600366592407
0.79545657,0,0,2.425326347351074,0,0,1.070159912109375
0.796456556,0,0,0.6512228846549988,0,0,3.0576000213623047
0.797456948,0,0,0.6607996821403503,0,0,0.6879600286483765
0.798457137,0,0,0.5889736413955688,0,0,0.0764399990439415
0.799457067,0,0,0.9816226959228516,0,0,1.070159912109375
0.80045696,0,0,1.3479355573654175,0,0,-30.499561309814453
0.801456593,0,0,1.4484920501708984,0,0,0.9937199950218201
0.802456356,0,0,2.276885747909546,0,0,9.325679779052734
0.803456675,0,0,2.1380221843719482,0,0,0.8408399820327759
0.804455864,0,0,2.693476915359497,0,0,2.06387996673584
0.805456164,0,0,1.824381709098816,0,0,1.6816799640655518
0.806456631,0,0,0.6392518281936646,0,0,3.134040117263794
0.807456024,0,0,0.912190854549408,0,0,-0.152879998087883
0.808457417,0,0,0.7422025203704834,0,0,1.2994799613952637
0.809456124,0,0,1.2689268589019775,0,0,0.2293200045824051
0.810456498,0,0,1.0654197931289673,0,0,-0.2293200045824051
0.811455669,0,0,1.764526605606079,0,0,1.070159912109375
0.812454858,0,0,2.006340980529785,0,0,0
0.813456269,0,0,2.248155355453491,0,0,1.9109998941421509
0.814456106,0,0,2.6408045291900635,0,0,0.9172800183296204
0.815456666,0,0,1.644816517829895,0,0,2.751840114593506
0.816460021,0,0,1.0127472877502441,0,0,1.758120059967041
0.817456322,0,0,1.1803414821624756,0,0,0.0764399990439415
0.818456122,0,0,0.8619126081466675,0,0,1.452359914779663
0.819456292,0,0,1.3527239561080933,0,0,9.325679779052734
0.820457796,0,0,1.213860273361206,0,0,0.611519992351532
0.821456337,0,0,1.9536685943603516,0,0,9.631440162658691
0.822456082,0,0,1.656787633895874,0,0,0.4586400091648102
0.823456456,0,0,1.8339585065841675,0,0,1.8345600366592407
0.824459608,0,0,1.7286136150360107,0,0,0.152879998087883
0.8254565,0,0,0.6009446382522583,0,0,2.6754000186920166
0.826455967,0,0,0.9911994934082031,0,0,0.0764399990439415
0.827455786,0,0,1.0558429956436157,0,0,0.305759996175766
0.828456382,0,0,1.3000515699386597,0,0,0.305759996175766
0.829455497,0,0,1.6112977266311646,0,0,-29.888038635253906
0.830456094,0,0,1.6424223184585571,0,0,0.9172800183296204
0.831456357,0,0,2.169146776199341,0,0,0.305759996175766
0.832455935,0,0,1.946485996246338,0,0,2.446079969406128
0.833448846,0,0,2.205059766769409,0,0,1.605239987373352
0.834460461,0,0,1.1109095811843872,0,0,1.9109998941421509
0.835448706,0,0,0.5817909836769104,0,0,2.751840114593506
0.836464265,0,0,1.3048399686813354,0,0,9.325679779052734
0.837610693,0,0,1.3623007535934448,0,0,1.1466000080108643
0.838499902,0,0,1.8770540952682495,0,0,-1.070159912109375
0.839508183,0,0,1.6831238269805908,0,0,0.305759996175766
0.840631537,0,0,2.161964178085327,0,0,0.7644000053405762
0.841493617,0,0,2.013523578643799,0,0,0.6879600286483765
0.842460455,0,0,1.8986018896102905,0,0,2.6754000186920166
0.843519698,0,0,1.7142484188079834,0,0,0.6879600286483765
0.844466222,0,0,0.31364041566848755,0,0,2.5989599227905273
0.845454244,0,0,0.5985504388809204,0,0,0.6879600286483765
0.846454396,0,0,0.8954314589500427,0,0,8.714159965515137
0.847453511,0,0,1.2641384601593018,0,0,0.6879600286483765
0.8484567,0,0,1.742978811264038,0,0,8.714159965515137
0.849453426,0,0,1.3766659498214722,0,0,1.070159912109375
0.8504538,0,0,2.145204782485962,0,0,0.0764399990439415
0.851453582,0,0,1.9249382019042969,0,0,1.452359914779663
0.852456308,0,0,2.2697031497955322,0,0,1.2994799613952637
0.853452849,0,0,1.4867992401123047,0,0,1.452359914779663
0.85445339,0,0,0.6009446382522583,0,0,3.0576000213623047
0.855453486,0,0,1.015141487121582,0,0,0
0.856456138,0,0,0.7565677165985107,0,0,1.223039984703064
0.857472809,0,0,1.778891921043396,0,0,0.152879998087883
0.858454313,0,0,1.8531121015548706,0,0,9.478560447692871
0.859451909,0,0,2.451662540435791,0,0,1.5288000106811523
0.860483079,0,0,2.918531894683838,0,0,0.4586400091648102
0.861453898,0,0,2.7700912952423096,0,0,2.751840114593506
0.862452661,0,0,2.719813108444214,0,0,2.06387996673584
0.863453684,0,0,0.8547300100326538,0,0,2.9811599254608154
0.864456039,0,0,0.524330198764801,0,0,2.2932000160217285
0.865460673,0,0,0.8379706144332886,0,0,9.402119636535645
0.866454677,0,0,0.8379706144332886,0,0,1.1466000080108643
0.867453051,0,0,2.183511972427368,0,0,8.561279296875
0.868459073,0,0,2.183511972427368,0,0,0
0.869454207,0,0,2.0231003761291504,0,0,0.152879998087883
0.870454859,0,0,2.518700122833252,0,0,0.9172800183296204
0.871453215,0,0,2.3080103397369385,0,0,2.522519826889038
0.872456274,0,0,1.8746598958969116,0,0,1.070159912109375
0.873452482,0,0,1.6376339197158813,0,0,2.751840114593506
0.874453467,0,0,0.4213795065879822,0,0,0.9172800183296204
0.875452952,0,0,0.33758243918418884,0,0,9.402119636535645
0.8764559,0,0,1.0031704902648926,0,0,1.8345600366592407
0.877453275,0,0,1.41257905960083,0,0,8.790599822998047
0.878452853,0,0,2.1499931812286377,0,0,0.305759996175766
0.879452931,0,0,2.0446481704711914,0,0,1.2994799613952637
0.880450046,0,0,2.3487119674682617,0,0,1.1466000080108643
0.881444901,0,0,2.3295583724975586,0,0,2.9811599254608154
0.882447109,0,0,2.1930887699127197,0,0,0.8408399820327759
0.883445946,0,0,2.070984363555908,0,0,3.0576000213623047
0.884464598,0,0,0.9145850539207458,0,0,1.223039984703064
0.885453657,0,0,0.8643068075180054,0,0,-0.5350799560546875
0.886452069,0,0,1.4173674583435059,0,0,2.06387996673584
0.887452147,0,0,2.298433542251587,0,0,9.019920349121094
0.888484113,0,0,2.298433542251587,0,0,0.4586400091648102
0.889489709,0,0,2.2146365642547607,0,0,1.758120059967041
0.890497398,0,0,2.4899697303771973,0,0,0.611519992351532
0.891496606,0,0,2.0925323963165283,0,0,3.4398000240325928
0.892500202,0,0,2.0925323963165283,0,0,1.223039984703064
0.893475521,0,0,2.123656988143921,0,0,2.06387996673584
0.894466414,0,0,1.434126853942871,0,0,1.8345600366592407
0.895452548,0,0,0.524330198764801,0,0,9.325679779052734
0.896458255,0,0,1.2689268589019775,0,0,1.070159912109375
0.897451926,0,0,1.3742717504501343,0,0,9.402119636535645
0.898451448,0,0,1.4724340438842773,0,0,9.096360206604004
0.899452008,0,0,2.1763293743133545,0,0,1.8345600366592407
0.900455123,0,0,1.3239935636520386,0,0,0.152879998087883
0.901452034,0,0,1.6711528301239014,0,0,0.9937199950218201
0.90245139,0,0,1.9608511924743652,0,0,1.8345600366592407
0.903458338,0,0,1.5753847360610962,0,0,1.605239987373352
0.90447136,0,0,2.0254945755004883,0,0,2.828279972076416
0.90548216,0,0,1.3958195447921753,0,0,0.8408399820327759
0.906474793,0,0,1.256955862045288,0,0,0.305759996175766
0.907452816,0,0,2.2146365642547607,0,0,1.5288000106811523
0.908462801,0,0,1.659181833267212,0,0,9.402119636535645
0.909452657,0,0,2.097320795059204,0,0,0.3822000026702881
0.910452217,0,0,2.1547815799713135,0,0,1.2994799613952637
0.911452387,0,0,1.4939818382263184,0,0,0.4586400091648102
0.912455428,0,0,2.1763293743133545,0,0,2.446079969406128
0.913452043,0,0,1.6328455209732056,0,0,0.9937199950218201
0.914452306,0,0,1.4700398445129395,0,0,1.375920057296753
0.915452254,0,0,1.867477297782898,0,0,2.2167599201202393
0.91645448,0,0,0.7996633648872375,0,0,0.6879600286483765
0.917451966,0,0,1.137245774269104,0,0,0.305759996175766
0.918452229,0,0,1.9321208000183105,0,0,0.7644000053405762
0.919451548,0,0,1.6208745241165161,0,0,9.478560447692871
0.920474162,0,0,2.0877439975738525,0,0,0.4586400091648102
0.921484444,0,0,1.9536685943603516,0,0,0.9172800183296204
0.922454578,0,0,1.699883222579956,0,0,1.1466000080108643
0.923451841,0,0,2.2146365642547607,0,0,1.8345600366592407
0.924454011,0,0,1.6855180263519287,0,0,1.758120059967041
0.925451756,0,0,1.644816517829895,0,0,1.452359914779663
0.926452519,0,0,1.946485996246338,0,0,1.758120059967041
0.927452097,0,0,1.2952631711959839,0,0,1.6816799640655518
0.928454786,0,0,1.1420341730117798,0,0,0.4586400091648102
0.929452882,0,0,1.5394717454910278,0,0,0.5350799560546875
0.930451849,0,0,1.4293384552001953,0,0,0.9172800183296204
0.931452594,0,0,1.4891934394836426,0,0,0.0764399990439415
0.932452357,0,0,1.802833914756775,0,0,0.3822000026702881
0.933452287,0,0,1.7621324062347412,0,0,1.9109998941421509
0.934452753,0,0,1.8267759084701538,0,0,0
0.935460498,0,0,2.300827741622925,0,0,1.9109998941421509
0.936461428,0,0,2.056619167327881,0,0,2.14031982421875
0.937453006,0,0,1.9991583824157715,0,0,1.1466000080108643
0.938450973,0,0,1.6759412288665771,0,0,1.9109998941421509
0.939656788,0,0,1.1276689767837524,0,0,1.9874399900436401
0.940484887,0,0,1.070208191871643,0,0,0.5350799560546875
0.941564353,0,0,1.5514427423477173,0,0,0.8408399820327759
0.942490432,0,0,2.030282974243164,0,0,0.611519992351532
0.943695396,0,0,2.030282974243164,0,0,9.402119636535645
0.944483866,0,0,2.145204782485962,0,0,0.9172800183296204
0.945461388,0,0,1.7980455160140991,0,0,1.2994799613952637
0.946485503,0,0,1.4724340438842773,0,0,0.2293200045824051
0.947461155,0,0,1.8076223134994507,0,0,1.9109998941421509
0.948461437,0,0,1.6136919260025024,0,0,2.06387996673584
0.949470255,0,0,1.8387469053268433,0,0,0.3822000026702881
0.950464241,0,0,1.6400281190872192,0,0,2.2167599201202393
0.951457337,0,0,1.2880805730819702,0,0,1.452359914779663
0.952459397,0,0,1.4460978507995605,0,0,-0.152879998087883
0.953456678,0,0,1.9728221893310547,0,0,0.9172800183296204
0.954456423,0,0,1.8818424940109253,0,0,0.7644000053405762
0.955454427,0,0,1.6735470294952393,0,0,0
0.956459245,0,0,1.8195933103561401,0,0,1.375920057296753
0.957456138,0,0,1.1348515748977661,0,0,1.223039984703064
0.958455975,0,0,0.9768342971801758,0,0,0
0.95945685,0,0,1.7334020137786865,0,0,1.2994799613952637
0.960547463,0,0,1.6543933153152466,0,0,0.8408399820327759
0.961458691,0,0,2.2146365642547607,0,0,1.1466000080108643
0.962456472,0,0,2.03507137298584,0,0,1.9109998941421509
0.963430513,0,0,2.011129379272461,0,0,2.14031982421875
0.964417443,0,0,1.1276689767837524,0,0,0.9937199950218201
0.965413096,0,0,1.6184803247451782,0,0,1.070159912109375
0.966413192,0,0,1.7932571172714233,0,0,1.1466000080108643
0.96741277,0,0,1.8483237028121948,0,0,0.3822000026702881
0.968415163,0,0,2.013523578643799,0,0,0.611519992351532
0.969413241,0,0,2.0829553604125977,0,0,1.223039984703064
0.97041293,0,0,1.5490485429763794,0,0,0.9937199950218201
0.97141297,0,0,1.3742717504501343,0,0,0.7644000053405762
0.972415345,0,0,1.6687586307525635,0,0,0.9937199950218201
0.97341346,0,0,1.8171991109848022,0,0,1.452359914779663
0.974413371,0,0,1.8124107122421265,0,0,0.8408399820327759
0.975415541,0,0,1.699883222579956,0,0,1.5288000106811523
0.976415934,0,0,1.7573440074920654,0,0,2.2932000160217285
0.977413234,0,0,1.2737152576446533,0,0,1.223039984703064
0.978413034,0,0,1.7118542194366455,0,0,0.9172800183296204
0.979412742,0,0,2.2433669567108154,0,0,1.223039984703064
0.980415061,0,0,2.0446481704711914,0,0,0.9172800183296204
0.981413102,0,0,2.229001760482788,0,0,0.5350799560546875
0.982412772,0,0,1.843535304069519,0,0,1.070159912109375
0.983412202,0,0,1.2090718746185303,0,0,0.611519992351532
0.984412298,0,0,1.1899182796478271,0,0,0.4586400091648102
0.98543695,0,0,1.137245774269104,0,0,0.152879998087883
0.986414417,0,0,1.5394717454910278,0,0,0.7644000053405762
0.987413032,0,0,1.6424223184585571,0,0,-8.790599822998047
0.988412925,0,0,1.886630892753601,0,0,1.375920057296753
0.98941328,0,0,1.9608511924743652,0,0,1.9874399900436401
0.990413118,0,0,1.6328455209732056,0,0,1.758120059967041
0.991414844,0,0,1.479616641998291,0,0,1.070159912109375
0.992423347,0,0,1.702277421951294,0,0,1.375920057296753
0.993447851,0,0,2.030282974243164,0,0,0.611519992351532
0.994458706,0,0,2.1954829692840576,0,0,0.7644000053405762
0.995450099,0,0,2.185906171798706,0,0,0.9172800183296204
0.99643527,0,0,2.0638017654418945,0,0,1.223039984703064
0.997433681,0,0,1.3311761617660522,0,0,1.1466000080108643
0.998423908,0,0,0.629675030708313,0,0,0.611519992351532
0.999441689,0,0,0.871489405632019,0,0,0
1.000436063,0,0,1.2713210582733154,0,0,0.5350799560546875
1.001434271,0,0,1.7573440074920654,0,0,0.9172800183296204
1.002494848,0,0,2.43011474609375,0,0,0.7644000053405762
1.003465315,0,0,2.8107926845550537,0,0,2.446079969406128
1.004430875,0,0,2.188300371170044,0,0,2.3696401119232178
1.005441786,0,0,1.766920804977417,0,0,1.8345600366592407
1.006470012,0,0,1.5825673341751099,0,0,1.452359914779663
1.007432461,0,0,2.0614075660705566,0,0,1.1466000080108643
1.008438853,0,0,1.9752163887023926,0,0,1.1466000080108643
1.009424783,0,0,1.8507179021835327,0,0,1.1466000080108643
1.01043325,0,0,2.1332337856292725,0,0,1.070159912109375
1.011428254,0,0,1.7980455160140991,0,0,0.9172800183296204
1.012435943,0,0,1.0797849893569946,0,0,0.3822000026702881
1.013451317,0,0,0.7254431247711182,0,0,0.2293200045824051
1.014460413,0,0,0.8092401623725891,0,0,0
1.015442899,0,0,1.1563993692398071,0,0,0.0764399990439415
1.016446717,0,0,1.6280571222305298,0,0,0.5350799560546875
1.017429795,0,0,2.0374655723571777,0,0,0.7644000053405762
1.018441132,0,0,2.3702597618103027,0,0,2.06387996673584
1.019457951,0,0,1.8626888990402222,0,0,1.8345600366592407
1.020509398,0,0,1.4676456451416016,0,0,2.06387996673584
1.021480014,0,0,1.678335428237915,0,0,1.758120059967041
1.022703255,0,0,1.678335428237915,0,0,1.1466000080108643
1.023575168,0,0,1.9345149993896484,0,0,1.1466000080108643
1.02443597,0,0,2.075772762298584,0,0,0.9172800183296204
1.02557012,0,0,2.1930887699127197,0,0,0.9172800183296204
1.0264726259999999,0,0,2.3750481605529785,0,0,1.2994799613952637
1.027425408,0,0,2.013523578643799,0,0,1.070159912109375
1.028421449,0,0,1.4173674583435059,0,0,0.8408399820327759
1.029418786,0,0,1.0989385843276978,0,0,0.5350799560546875
1.030427049,0,0,1.0749965906143188,0,0,0.2293200045824051
1.031432812,0,0,1.3479355573654175,0,0,0.3822000026702881
1.032442594,0,0,1.7405846118927002,0,0,1.223039984703064
1.033427857,0,0,1.9105730056762695,0,0,1.070159912109375
1.034418694,0,0,2.231395959854126,0,0,2.14031982421875
1.035420994,0,0,1.8076223134994507,0,0,1.375920057296753
1.036427072,0,0,1.6041151285171509,0,0,1.8345600366592407
1.03742115,0,0,1.3239935636520386,0,0,1.375920057296753
1.038425543,0,0,1.7717092037200928,0,0,0.3822000026702881
1.03942501,0,0,2.346317768096924,0,0,0.9172800183296204
1.040472365,0,0,2.43011474609375,0,0,0.9937199950218201
1.041487017,0,0,2.1954829692840576,0,0,1.070159912109375
1.042430243,0,0,1.8579005002975464,0,0,1.2994799613952637
1.043417303,0,0,1.8171991109848022,0,0,0.7644000053405762
1.044419362,0,0,1.2737152576446533,0,0,0.9937199950218201
1.045415866,0,0,0.7254431247711182,0,0,0
1.046416852,0,0,0.5530605912208557,0,0,0
1.047414948,0,0,1.0079588890075684,0,0,0.0764399990439415
1.04841723,0,0,1.6424223184585571,0,0,0
1.049416141,0,0,1.9919757843017578,0,0,1.070159912109375
1.0504167739999999,0,0,1.9991583824157715,0,0,1.070159912109375
1.051415686,0,0,2.250549554824829,0,0,1.9874399900436401
1.052417801,0,0,1.8962076902389526,0,0,2.522519826889038
1.053415175,0,0,1.6041151285171509,0,0,1.9109998941421509
1.054417197,0,0,1.5969325304031372,0,0,1.9874399900436401
1.055415757,0,0,1.5610195398330688,0,0,0.611519992351532
1.056416742,0,0,2.279279947280884,0,0,1.070159912109375
1.057416524,0,0,2.6360161304473877,0,0,1.1466000080108643
1.058416046,0,0,2.5258827209472656,0,0,1.070159912109375
1.059417513,0,0,2.056619167327881,0,0,1.758120059967041
1.060419498,0,0,1.5945383310317993,0,0,-9.172800064086914
1.061506945,0,0,1.314416766166687,0,0,0.5350799560546875
1.062415487,0,0,1.1683704853057861,0,0,0.9937199950218201
1.063901836,0,0,0.9624691009521484,0,0,-0.3822000026702881
1.064380199,0,0,0.871489405632019,0,0,0.4586400091648102
1.065366555,0,0,1.0773907899856567,0,0,-0.3822000026702881
1.06631643,0,0,1.3982137441635132,0,0,0.5350799560546875
1.067327878,0,0,1.7884687185287476,0,0,1.375920057296753
1.068314642,0,0,1.6711528301239014,0,0,1.6816799640655518
1.069313831,0,0,1.5179238319396973,0,0,1.8345600366592407
1.070310038,0,0,1.9560627937316895,0,0,1.9874399900436401
1.071309635,0,0,1.941697597503662,0,0,2.14031982421875
1.072318657,0,0,1.9776105880737305,0,0,1.605239987373352
1.073311513,0,0,2.1571757793426514,0,0,2.14031982421875
1.074312442,0,0,1.98958158493042,0,0,1.375920057296753
1.075934382,0,0,2.4827871322631836,0,0,1.070159912109375
1.07644717,0,0,2.6886885166168213,0,0,1.2994799613952637
1.077356157,0,0,2.3127987384796143,0,0,1.1466000080108643
1.078330958,0,0,1.6903064250946045,0,0,1.452359914779663
1.079324591,0,0,1.0773907899856567,0,0,0.9937199950218201
1.080320299,0,0,1.070208191871643,0,0,0.0764399990439415
1.081389913,0,0,1.359906554222107,0,0,0.611519992351532
1.082357158,0,0,1.3000515699386597,0,0,-29.582279205322266
1.083350551,0,0,1.2832920551300049,0,0,0.4586400091648102
1.084342851,0,0,1.170764684677124,0,0,0.6879600286483765
1.085335447,0,0,1.3431471586227417,0,0,0.8408399820327759
1.086351507,0,0,1.5298948287963867,0,0,1.1466000080108643
1.087354288,0,0,1.7908629179000854,0,0,1.070159912109375
1.088416921,0,0,1.7405846118927002,0,0,2.14031982421875
1.089367055,0,0,1.4508862495422363,0,0,1.8345600366592407
1.090324319,0,0,2.1308395862579346,0,0,1.8345600366592407
1.092208124,0,0,2.1308395862579346,0,0,1.8345600366592407
1.092448639,0,0,2.1068975925445557,0,0,1.5288000106811523
1.093319978,0,0,2.212242364883423,0,0,0.7644000053405762
1.094329112,0,0,1.9297266006469727,0,0,1.452359914779663
1.095311079,0,0,1.7070658206939697,0,0,0.9937199950218201
1.096323823,0,0,1.8483237028121948,0,0,0.5350799560546875
1.0973195119999999,0,0,1.9177556037902832,0,0,1.070159912109375
1.098311164,0,0,1.8914192914962769,0,0,0.8408399820327759
1.09932315,0,0,1.3718775510787964,0,0,0.8408399820327759
1.100318505,0,0,1.0630255937576294,0,0,1.070159912109375
1.102457344,0,0,1.2066776752471924,0,0,0.2293200045824051
1.102718507,0,0,1.2066776752471924,0,0,0.152879998087883
1.103317369,0,0,1.7477672100067139,0,0,0.5350799560546875
1.104333965,0,0,1.7717092037200928,0,0,0.9937199950218201
1.105340728,0,0,1.525106430053711,0,0,1.070159912109375
1.106579173,0,0,1.525106430053711,0,0,1.605239987373352
1.107319069,0,0,1.4748282432556152,0,0,0.9172800183296204
1.108322277,0,0,1.5921441316604614,0,0,1.452359914779663
1.109360928,0,0,2.0446481704711914,0,0,1.223039984703064
1.110593281,0,0,2.0446481704711914,0,0,1.2994799613952637
1.111316566,0,0,2.013523578643799,0,0,1.8345600366592407
1.112326311,0,0,1.7621324062347412,0,0,1.605239987373352
1.114325485,0,0,2.054224967956543,0,0,1.1466000080108643
1.114589333,0,0,2.054224967956543,0,0,1.070159912109375
1.115317859,0,0,2.1595699787139893,0,0,1.375920057296753
1.116317567,0,0,2.0422539710998535,0,0,1.2994799613952637
1.117301219,0,0,1.9800047874450684,0,0,0.8408399820327759
1.118300779,0,0,1.6376339197158813,0,0,0.9172800183296204
1.119300745,0,0,1.2210428714752197,0,0,0.7644000053405762
1.120307064,0,0,1.4772224426269531,0,0,0.8408399820327759
1.121301068,0,0,1.8291701078414917,0,0,1.070159912109375
1.122300757,0,0,1.941697597503662,0,0,1.223039984703064
1.123300613,0,0,1.8124107122421265,0,0,1.070159912109375
1.124301413,0,0,1.659181833267212,0,0,0.9937199950218201
1.1253009170000001,0,0,1.259350061416626,0,0,0.9937199950218201
1.126300698,0,0,1.2306196689605713,0,0,1.1466000080108643
1.127300665,0,0,1.4987702369689941,0,0,0.5350799560546875
1.128307484,0,0,1.9704279899597168,0,0,0.5350799560546875
1.129304395,0,0,2.164358377456665,0,0,0.7644000053405762
1.130304621,0,0,1.8052281141281128,0,0,1.223039984703064
1.131303903,0,0,1.3910311460494995,0,0,2.3696401119232178
1.132304962,0,0,1.1851298809051514,0,0,1.2994799613952637
1.133303725,0,0,1.015141487121582,0,0,0.2293200045824051
1.134305655,0,0,1.3910311460494995,0,0,0.5350799560546875
1.1353387879999999,0,0,1.9273324012756348,0,0,0.8408399820327759
1.136306681,0,0,2.1380221843719482,0,0,0.9172800183296204
1.137301315,0,0,2.2361843585968018,0,0,1.452359914779663
1.13830117,0,0,1.8986018896102905,0,0,1.5288000106811523
1.139300915,0,0,1.4915876388549805,0,0,1.758120059967041
1.140301308,0,0,1.3192051649093628,0,0,1.223039984703064
1.141300645,0,0,1.6328455209732056,0,0,0.7644000053405762
1.14230076,0,0,2.008735179901123,0,0,0.8408399820327759
1.143300579,0,0,2.2218191623687744,0,0,0.9172800183296204
1.144302119,0,0,2.008735179901123,0,0,1.070159912109375
1.145300642,0,0,1.6615760326385498,0,0,1.1466000080108643
1.14630072,0,0,1.3718775510787964,0,0,0.9937199950218201
1.147300872,0,0,1.2713210582733154,0,0,0.7644000053405762
1.148301431,0,0,1.4197616577148438,0,0,0.9172800183296204
1.149300194,0,0,1.7860745191574097,0,0,0.305759996175766
1.150301013,0,0,2.1715409755706787,0,0,0.9937199950218201
1.1513001649999999,0,0,2.2697031497955322,0,0,1.375920057296753
1.152306169,0,0,1.9105730056762695,0,0,1.605239987373352
1.1533098019999999,0,0,1.335964560508728,0,0,0.8408399820327759
1.155462215,0,0,1.3239935636520386,0,0,1.1466000080108643
1.1557011560000001,0,0,1.3239935636520386,0,0,0.611519992351532
1.156316462,0,0,1.4532804489135742,0,0,0.611519992351532
1.157306466,0,0,1.6831238269805908,0,0,0.305759996175766
1.158305618,0,0,1.9847931861877441,0,0,0.5350799560546875
1.159305288,0,0,2.0805611610412598,0,0,1.070159912109375
1.160307181,0,0,1.9560627937316895,0,0,1.070159912109375
1.161305426,0,0,1.6065093278884888,0,0,1.6816799640655518
1.162380891,0,0,1.2258312702178955,0,0,1.223039984703064
1.163306433,0,0,0.912190854549408,0,0,0.5350799560546875
1.164381455,0,0,1.1563993692398071,0,0,0.5350799560546875
1.165386514,0,0,1.659181833267212,0,0,0.611519992351532
1.166379407,0,0,1.968033790588379,0,0,0.7644000053405762
1.167378633,0,0,2.123656988143921,0,0,1.375920057296753
1.168381396,0,0,2.205059766769409,0,0,1.5288000106811523
1.169378566,0,0,1.9369091987609863,0,0,1.8345600366592407
1.170378589,0,0,1.7597382068634033,0,0,1.5288000106811523
1.171378407,0,0,1.5945383310317993,0,0,0.7644000053405762
1.17238067,0,0,1.4700398445129395,0,0,0.7644000053405762
1.173378304,0,0,1.623268723487854,0,0,0.4586400091648102
1.174378919,0,0,1.7741034030914307,0,0,0.7644000053405762
1.175385608,0,0,1.577778935432434,0,0,1.605239987373352
1.179922819,0,0,1.3215993642807007,0,0,1.2994799613952637
1.180252814,0,0,1.3215993642807007,0,0,1.223039984703064
1.180563458,0,0,1.3694833517074585,0,0,1.1466000080108643
1.180871435,0,0,1.3694833517074585,0,0,0.7644000053405762
1.181178653,0,0,1.3694833517074585,0,0,0.8408399820327759
1.181486833,0,0,1.4628572463989258,0,0,0.9172800183296204
1.182391024,0,0,1.745373010635376,0,0,0.5350799560546875
1.183382602,0,0,1.946485996246338,0,0,0.611519992351532
1.184378883,0,0,1.987187385559082,0,0,0.9172800183296204
1.185378035,0,0,1.7573440074920654,0,0,1.375920057296753
1.1863774280000001,0,0,1.6160861253738403,0,0,1.223039984703064
1.187377617,0,0,1.5179238319396973,0,0,1.1466000080108643
1.188378473,0,0,1.4245500564575195,0,0,1.758120059967041
1.189377254,0,0,1.5634137392044067,0,0,1.223039984703064
1.19037711,0,0,1.7693150043487549,0,0,1.070159912109375
1.191377781,0,0,1.886630892753601,0,0,0.9937199950218201
1.192377599,0,0,1.9153614044189453,0,0,0.9172800183296204
1.193377066,0,0,1.946485996246338,0,0,0.8408399820327759
1.194377144,0,0,1.8291701078414917,0,0,0.6879600286483765
1.19537687,0,0,1.8531121015548706,0,0,1.2994799613952637
1.196378578,0,0,1.580173134803772,0,0,0.9937199950218201
1.197377359,0,0,1.4939818382263184,0,0,0.8408399820327759
1.198377289,0,0,1.4963760375976563,0,0,0.9937199950218201
1.199376108,0,0,1.41257905960083,0,0,1.2994799613952637
1.20037726,0,0,1.460463047027588,0,0,1.070159912109375
1.201377671,0,0,1.5634137392044067,0,0,0.8408399820327759
1.20237686,0,0,1.745373010635376,0,0,0.9937199950218201
1.203377253,0,0,1.7956513166427612,0,0,1.070159912109375
1.2043806830000001,0,0,1.8962076902389526,0,0,0.6879600286483765
1.205377168,0,0,1.8411411046981812,0,0,1.223039984703064
1.206378431,0,0,1.7262194156646729,0,0,1.223039984703064
1.207379268,0,0,1.6927006244659424,0,0,0.8408399820327759
1.208378994,0,0,1.5322890281677246,0,0,1.070159912109375
1.209377146,0,0,1.5945383310317993,0,0,1.1466000080108643
1.210376983,0,0,1.6639702320098877,0,0,0.6879600286483765
1.21137695,0,0,1.5729905366897583,0,0,0.9937199950218201
1.212377436,0,0,1.6496049165725708,0,0,0.8408399820327759
1.213377162,0,0,1.6855180263519287,0,0,0.8408399820327759
1.21437648,0,0,1.7501614093780518,0,0,1.2994799613952637
1.215377651,0,0,1.7812861204147339,0,0,1.070159912109375
1.216377821,0,0,1.8626888990402222,0,0,1.070159912109375
1.217377196,0,0,1.8938134908676147,0,0,1.375920057296753
1.218376996,0,0,1.9752163887023926,0,0,1.223039984703064
1.219377592,0,0,1.965639591217041,0,0,1.2994799613952637
1.220378559,0,0,1.9177556037902832,0,0,1.375920057296753
1.221376804,0,0,1.8148049116134644,0,0,0.9937199950218201
1.222377511,0,0,1.659181833267212,0,0,1.1466000080108643
1.223377756,0,0,1.6184803247451782,0,0,1.2994799613952637
1.224379797,0,0,1.5275006294250488,0,0,0.611519992351532
1.22537793,0,0,1.4844050407409668,0,0,0.5350799560546875
1.2263776929999999,0,0,1.5729905366897583,0,0,0.611519992351532
1.227376901,0,0,1.5729905366897583,0,0,0.7644000053405762
1.228378386,0,0,1.5466543436050415,0,0,0.9937199950218201
1.229377723,0,0,1.6112977266311646,0,0,0.9172800183296204
1.230376709,0,0,1.577778935432434,0,0,1.1466000080108643
1.231377101,0,0,1.6280571222305298,0,0,1.605239987373352
1.232377031,0,0,1.5825673341751099,0,0,1.452359914779663
1.233377516,0,0,1.7262194156646729,0,0,1.5288000106811523
1.234379705,0,0,1.8962076902389526,0,0,1.2994799613952637
1.235378783,0,0,1.9512743949890137,0,0,0.9937199950218201
1.236379158,0,0,1.9536685943603516,0,0,1.452359914779663
1.237377754,0,0,1.9704279899597168,0,0,1.375920057296753
1.238377313,0,0,1.9033904075622559,0,0,1.223039984703064
1.239377114,0,0,1.9393033981323242,0,0,0.9172800183296204
1.240377895,0,0,1.8195933103561401,0,0,0.9937199950218201
1.241376751,0,0,1.6112977266311646,0,0,0.8408399820327759
1.24237581,0,0,1.4772224426269531,0,0,1.070159912109375
1.243376981,0,0,1.4532804489135742,0,0,0.6879600286483765
1.244379707,0,0,1.3646949529647827,0,0,0.5350799560546875
1.245376896,0,0,1.400607943534851,0,0,0.611519992351532
1.246376641,0,0,1.4867992401123047,0,0,0.611519992351532
1.2473772,0,0,1.580173134803772,0,0,0.7644000053405762
1.248379056,0,0,1.723825216293335,0,0,1.070159912109375
1.249377171,0,0,1.8363527059555054,0,0,1.1466000080108643
1.25037723,0,0,1.8483237028121948,0,0,1.452359914779663
1.251377326,0,0,1.8363527059555054,0,0,1.223039984703064
1.252379071,0,0,1.6735470294952393,0,0,1.070159912109375
1.253377519,0,0,1.7549498081207275,0,0,1.452359914779663
1.254377412,0,0,1.8291701078414917,0,0,1.375920057296753
1.255377342,0,0,1.6184803247451782,0,0,0.8408399820327759
1.256378494,0,0,1.647210717201233,0,0,1.375920057296753
1.2573761829999999,0,0,1.7693150043487549,0,0,0.7644000053405762
1.25837689,0,0,1.9393033981323242,0,0,0.9937199950218201
1.2593975419999999,0,0,1.8483237028121948,0,0,0.9172800183296204
1.260383176,0,0,1.7046716213226318,0,0,0.8408399820327759
1.261376939,0,0,1.501164436340332,0,0,1.223039984703064
1.262462405,0,0,1.5921441316604614,0,0,0.7644000053405762
1.263383928,0,0,1.644816517829895,0,0,0.7644000053405762
1.264378599,0,0,1.8076223134994507,0,0,1.452359914779663
1.265455361,0,0,1.7405846118927002,0,0,0.9172800183296204
1.266455457,0,0,1.3000515699386597,0,0,1.5288000106811523
1.267455479,0,0,1.213860273361206,0,0,1.223039984703064
1.2684581129999999,0,0,1.290474772453308,0,0,0.9172800183296204
1.269454135,0,0,1.5682021379470825,0,0,0.7644000053405762
1.270454639,0,0,1.9321208000183105,0,0,0.7644000053405762
1.2714547729999999,0,0,2.0207061767578125,0,0,1.070159912109375
1.272457758,0,0,2.118868589401245,0,0,1.375920057296753
1.273454114,0,0,1.9105730056762695,0,0,1.375920057296753
1.27445508,0,0,1.5897499322891235,0,0,1.375920057296753
1.275454381,0,0,1.3742717504501343,0,0,1.070159912109375
1.27645694,0,0,1.4915876388549805,0,0,0.8408399820327759
1.277455185,0,0,1.6615760326385498,0,0,0.611519992351532
1.278455318,0,0,1.7190368175506592,0,0,0.9172800183296204
1.279453341,0,0,1.766920804977417,0,0,0.9937199950218201
1.280457215,0,0,1.7262194156646729,0,0,0.9172800183296204
1.2814546070000001,0,0,1.5921441316604614,0,0,0.9937199950218201
1.2824546479999999,0,0,1.5442601442337036,0,0,0.6879600286483765
1.283455097,0,0,1.3742717504501343,0,0,0.8408399820327759
1.28445773,0,0,1.4460978507995605,0,0,0.9172800183296204
1.285454327,0,0,1.8195933103561401,0,0,0.8408399820327759
1.286454664,0,0,1.9632453918457031,0,0,1.758120059967041
1.287453353,0,0,1.800439715385437,0,0,1.1466000080108643
1.288455579,0,0,1.6687586307525635,0,0,1.5288000106811523
1.289454601,0,0,1.7932571172714233,0,0,1.452359914779663
1.2904549379999999,0,0,1.944091796875,0,0,1.070159912109375
1.291455461,0,0,2.011129379272461,0,0,1.223039984703064
1.292457779,0,0,2.142810583114624,0,0,0.9937199950218201
1.29345445,0,0,2.073378562927246,0,0,1.1466000080108643
1.294454343,0,0,1.7884687185287476,0,0,1.070159912109375
1.295454921,0,0,1.802833914756775,0,0,1.1466000080108643
1.296457221,0,0,1.6184803247451782,0,0,1.2994799613952637
1.297454651,0,0,1.4197616577148438,0,0,0.7644000053405762
1.2984545619999999,0,0,1.5538369417190552,0,0,0.8408399820327759
1.299453955,0,0,1.5753847360610962,0,0,1.1466000080108643
1.3004572730000001,0,0,1.7477672100067139,0,0,1.1466000080108643
1.301454258,0,0,1.742978811264038,0,0,1.452359914779663
1.302454836,0,0,1.7334020137786865,0,0,0.7644000053405762
1.3034541,0,0,1.7334020137786865,0,0,1.2994799613952637
1.304457918,0,0,1.867477297782898,0,0,0.9937199950218201
1.305454515,0,0,1.9345149993896484,0,0,0.9172800183296204
1.306454389,0,0,1.845929503440857,0,0,1.223039984703064
1.307454356,0,0,1.6974890232086182,0,0,1.070159912109375
1.308455952,0,0,1.6041151285171509,0,0,1.223039984703064
1.3094539,0,0,1.7405846118927002,0,0,1.070159912109375
1.3104548120000001,0,0,1.6927006244659424,0,0,0.5350799560546875
1.311455371,0,0,1.5873557329177856,0,0,1.070159912109375
1.312457504,0,0,1.5753847360610962,0,0,0.6879600286483765
1.313454638,0,0,1.6711528301239014,0,0,0.9172800183296204
1.3144553270000001,0,0,1.7741034030914307,0,0,1.070159912109375
1.315454294,0,0,1.7094600200653076,0,0,0.9172800183296204
1.316456501,0,0,1.6687586307525635,0,0,1.1466000080108643
1.317454153,0,0,1.699883222579956,0,0,1.223039984703064
1.318453991,0,0,1.680729627609253,0,0,1.5288000106811523
1.319646473,0,0,1.6927006244659424,0,0,0.9937199950218201
1.320461924,0,0,1.7741034030914307,0,0,1.223039984703064
1.321455372,0,0,1.745373010635376,0,0,1.223039984703064
1.322453987,0,0,1.8531121015548706,0,0,1.1466000080108643
1.32345501,0,0,1.944091796875,0,0,0.9937199950218201
1.324455032,0,0,1.9823989868164063,0,0,1.070159912109375
1.325455184,0,0,1.941697597503662,0,0,1.223039984703064
1.326454781,0,0,1.9177556037902832,0,0,0.8408399820327759
1.327454044,0,0,1.821987509727478,0,0,0.9172800183296204
1.328458677,0,0,1.745373010635376,0,0,1.070159912109375
1.329454626,0,0,1.6280571222305298,0,0,0.9172800183296204
1.330452926,0,0,1.4748282432556152,0,0,0.611519992351532
1.331455189,0,0,1.4484920501708984,0,0,0.9937199950218201
1.332463063,0,0,1.292868971824646,0,0,0.6879600286483765
1.333454919,0,0,1.2449848651885986,0,0,0.9172800183296204
1.3344540710000001,0,0,1.3623007535934448,0,0,0.9172800183296204
1.335454945,0,0,1.5394717454910278,0,0,0.7644000053405762
1.336457856,0,0,1.723825216293335,0,0,1.070159912109375
1.337454064,0,0,1.86508309841156,0,0,1.452359914779663
1.338454364,0,0,1.9369091987609863,0,0,0.9172800183296204
1.3394544050000001,0,0,2.123656988143921,0,0,1.452359914779663
1.340457334,0,0,2.161964178085327,0,0,1.452359914779663
1.341455005,0,0,1.9153614044189453,0,0,1.758120059967041
1.342454361,0,0,1.9249382019042969,0,0,1.605239987373352
1.34345492,0,0,1.8531121015548706,0,0,1.223039984703064
1.344457035,0,0,1.721431016921997,0,0,0.9172800183296204
1.345454613,0,0,1.723825216293335,0,0,0.8408399820327759
1.346454395,0,0,1.7405846118927002,0,0,0.7644000053405762
1.34745475,0,0,1.7262194156646729,0,0,0.9172800183296204
1.348457717,0,0,1.625662922859192,0,0,0.3822000026702881
1.349454017,0,0,1.5131354331970215,0,0,0.6879600286483765
1.350454095,0,0,1.4987702369689941,0,0,0.8408399820327759
1.351452895,0,0,1.482010841369629,0,0,0.7644000053405762
1.352456381,0,0,1.381454348564148,0,0,1.1466000080108643
1.353454959,0,0,1.357512354850769,0,0,1.070159912109375
1.354454462,0,0,1.482010841369629,0,0,1.223039984703064
1.3554550029999999,0,0,1.6208745241165161,0,0,1.375920057296753
1.356457563,0,0,1.8363527059555054,0,0,1.223039984703064
1.357454733,0,0,2.0470423698425293,0,0,1.452359914779663
1.358454163,0,0,2.140416383743286,0,0,1.223039984703064
1.359454574,0,0,1.9608511924743652,0,0,1.223039984703064
1.360457486,0,0,1.6735470294952393,0,0,0.9172800183296204
1.36145423,0,0,1.5682021379470825,0,0,0.9172800183296204
1.362454697,0,0,1.7357962131500244,0,0,0.8408399820327759
1.363531811,0,0,1.7549498081207275,0,0,1.070159912109375
1.3644590189999999,0,0,1.7932571172714233,0,0,1.223039984703064
1.365453764,0,0,1.824381709098816,0,0,0.9937199950218201
1.366414676,0,0,1.6687586307525635,0,0,1.070159912109375
1.3674119949999999,0,0,1.577778935432434,0,0,1.2994799613952637
1.368414702,0,0,1.5275006294250488,0,0,0.9172800183296204
1.369411373,0,0,1.7405846118927002,0,0,0.8408399820327759
1.370411506,0,0,1.8363527059555054,0,0,0.9172800183296204
1.371411214,0,0,1.8052281141281128,0,0,0.8408399820327759
1.372413088,0,0,1.7812861204147339,0,0,0.9172800183296204
1.373410758,0,0,1.8507179021835327,0,0,1.070159912109375
1.374411522,0,0,1.7812861204147339,0,0,1.375920057296753
1.375411618,0,0,1.8770540952682495,0,0,1.375920057296753
1.376417751,0,0,1.9105730056762695,0,0,1.375920057296753
1.377412515,0,0,1.6424223184585571,0,0,1.070159912109375
1.378497425,0,0,1.4844050407409668,0,0,0.9937199950218201
1.379429707,0,0,1.522712230682373,0,0,0.9937199950218201
1.380439878,0,0,1.623268723487854,0,0,0.305759996175766
1.381468788,0,0,1.766920804977417,0,0,0.9172800183296204
1.382481774,0,0,1.8124107122421265,0,0,0.305759996175766
1.3839374740000001,0,0,1.8363527059555054,0,0,0.9937199950218201
1.384425171,0,0,1.8315643072128296,0,0,1.070159912109375
1.3855771909999999,0,0,1.800439715385437,0,0,1.375920057296753
1.3864179939999999,0,0,1.6950948238372803,0,0,1.605239987373352
1.387411479,0,0,1.6136919260025024,0,0,1.605239987373352
1.38841239,0,0,1.4221558570861816,0,0,1.1466000080108643
1.38941132,0,0,1.4963760375976563,0,0,0.8408399820327759
1.390411342,0,0,1.7693150043487549,0,0,0.5350799560546875
1.391411087,0,0,2.0231003761291504,0,0,0.9172800183296204
1.392415017,0,0,2.0614075660705566,0,0,0.9937199950218201
1.393411743,0,0,2.0446481704711914,0,0,0.611519992351532
1.394410506,0,0,1.8339585065841675,0,0,1.375920057296753
1.395411584,0,0,1.5969325304031372,0,0,1.1466000080108643
1.396414328,0,0,1.4437036514282227,0,0,0.9172800183296204
1.397411703,0,0,1.2665326595306396,0,0,0.5350799560546875
1.398411225,0,0,1.1492167711257935,0,0,0.6879600286483765
1.399411322,0,0,1.1994950771331787,0,0,0.6879600286483765
1.4004130479999999,0,0,1.5753847360610962,0,0,0.9172800183296204
1.401410644,0,0,2.0470423698425293,0,0,0.8408399820327759
1.402410352,0,0,1.9847931861877441,0,0,1.6816799640655518
1.404267935,0,0,1.9847931861877441,0,0,1.8345600366592407
1.40461006,0,0,1.8148049116134644,0,0,1.5288000106811523
1.405443511,0,0,1.7501614093780518,0,0,1.605239987373352
1.406465792,0,0,1.6376339197158813,0,0,1.375920057296753
1.407793217,0,0,1.6639702320098877,0,0,0.9937199950218201
1.4084140600000001,0,0,2.0374655723571777,0,0,0.8408399820327759
1.409409619,0,0,2.2649147510528564,0,0,1.223039984703064
1.410408697,0,0,1.9847931861877441,0,0,1.452359914779663
1.411405886,0,0,1.7597382068634033,0,0,1.375920057296753
1.412409186,0,0,1.381454348564148,0,0,1.070159912109375
1.41340632,0,0,1.1540051698684692,0,0,0.7644000053405762
1.414406342,0,0,1.1228805780410767,0,0,0.6879600286483765
1.415406679,0,0,1.534683346748352,0,0,0.2293200045824051
1.416407665,0,0,2.0207061767578125,0,0,0.7644000053405762
1.417406743,0,0,2.2697031497955322,0,0,0.9937199950218201
1.418404802,0,0,2.0661959648132324,0,0,1.1466000080108643
1.419406584,0,0,1.4844050407409668,0,0,1.452359914779663
1.420417161,0,0,1.2521674633026123,0,0,1.452359914779663
1.421413239,0,0,1.1803414821624756,0,0,1.375920057296753
1.422412688,0,0,1.434126853942871,0,0,0.9172800183296204
1.423413506,0,0,1.7166426181793213,0,0,0.9172800183296204
1.424413844,0,0,2.0422539710998535,0,0,0.8408399820327759
1.425411885,0,0,2.0207061767578125,0,0,0.9172800183296204
1.426412425,0,0,1.8602946996688843,0,0,0.7644000053405762
1.42741267,0,0,1.3694833517074585,0,0,1.070159912109375
1.428414692,0,0,1.1420341730117798,0,0,1.1466000080108643
1.429436659,0,0,1.3455413579940796,0,0,0.6879600286483765
1.4304132,0,0,1.7357962131500244,0,0,0.9172800183296204
1.431412074,0,0,1.8052281141281128,0,0,1.2994799613952637
1.432415115,0,0,1.867477297782898,0,0,1.1466000080108643
1.433424471,0,0,1.845929503440857,0,0,1.5288000106811523
1.434413771,0,0,1.7094600200653076,0,0,1.375920057296753
1.435422812,0,0,1.86508309841156,0,0,1.223039984703064
1.4364307969999999,0,0,2.030282974243164,0,0,1.5288000106811523
1.437412912,0,0,1.8914192914962769,0,0,0.9172800183296204
1.438412194,0,0,1.8555063009262085,0,0,0.8408399820327759
1.439411457,0,0,1.8339585065841675,0,0,1.1466000080108643
1.440415368,0,0,1.6519991159439087,0,0,0.9172800183296204
1.4414126870000001,0,0,1.766920804977417,0,0,0.7644000053405762
1.44241182,0,0,1.8387469053268433,0,0,0.9937199950218201
1.4434122870000001,0,0,1.5945383310317993,0,0,1.070159912109375
1.444414828,0,0,1.400607943534851,0,0,1.2994799613952637
1.4454121469999999,0,0,1.2066776752471924,0,0,1.375920057296753
1.446412428,0,0,1.2737152576446533,0,0,0.5350799560546875
1.447412377,0,0,1.460463047027588,0,0,0.4586400091648102
1.448420899,0,0,1.4867992401123047,0,0,0.7644000053405762
1.449412773,0,0,1.41257905960083,0,0,0.4586400091648102
1.450412018,0,0,1.4221558570861816,0,0,1.070159912109375
1.452165733,0,0,1.4221558570861816,0,0,0.9172800183296204
1.452505172,0,0,1.5298948287963867,0,0,0.8408399820327759
1.4535718229999999,0,0,1.9752163887023926,0,0,1.452359914779663
1.454455866,0,0,1.7310078144073486,0,0,1.9874399900436401
1.455440759,0,0,1.6615760326385498,0,0,1.605239987373352
1.4564203,0,0,1.659181833267212,0,0,1.5288000106811523
1.457447729,0,0,1.7190368175506592,0,0,1.2994799613952637
1.458418548,0,0,2.032677173614502,0,0,1.223039984703064
1.459410664,0,0,2.1978771686553955,0,0,1.452359914779663
1.4604267229999999,0,0,2.1356279850006104,0,0,0.8408399820327759
1.461410931,0,0,2.3343467712402344,0,0,0.6879600286483765
1.4624099529999999,0,0,1.9369091987609863,0,0,1.452359914779663
1.463408994,0,0,1.8267759084701538,0,0,1.070159912109375
1.46444046,0,0,1.889025092124939,0,0,1.070159912109375
1.465419853,0,0,1.6160861253738403,0,0,1.5288000106811523
1.4664108759999999,0,0,1.314416766166687,0,0,1.070159912109375
1.467409824,0,0,1.3910311460494995,0,0,0.9172800183296204
1.468413513,0,0,1.5969325304031372,0,0,0.3822000026702881
1.469409795,0,0,1.6112977266311646,0,0,0.9172800183296204
1.470409484,0,0,1.4939818382263184,0,0,0.7644000053405762
1.471409654,0,0,1.4939818382263184,0,0,0.0764399990439415
1.472411973,0,0,1.2282254695892334,0,0,1.070159912109375
1.473409699,0,0,1.3934253454208374,0,0,0.5350799560546875
1.474409758,0,0,1.8698714971542358,0,0,0.5350799560546875
1.475409355,0,0,1.7932571172714233,0,0,1.8345600366592407
1.476410025,0,0,1.7621324062347412,0,0,1.2994799613952637
1.477409677,0,0,1.5682021379470825,0,0,2.14031982421875
1.478408385,0,0,1.680729627609253,0,0,1.6816799640655518
1.479409537,0,0,2.1092917919158936,0,0,1.375920057296753
1.480412874,0,0,2.0183119773864746,0,0,1.9109998941421509
1.481409637,0,0,1.886630892753601,0,0,1.223039984703064
1.482408937,0,0,2.1499931812286377,0,0,0.9937199950218201
1.483414237,0,0,2.6144683361053467,0,0,1.375920057296753
1.484417315,0,0,2.674323320388794,0,0,1.452359914779663
1.485408523,0,0,1.987187385559082,0,0,1.9109998941421509
1.486409323,0,0,1.3431471586227417,0,0,0.9937199950218201
1.487409809,0,0,1.3335703611373901,0,0,0.9172800183296204
1.488412072,0,0,1.1875240802764893,0,0,0.4586400091648102
1.489409816,0,0,0.9720458984375,0,0,0.4586400091648102
1.490409598,0,0,1.0821791887283325,0,0,0
1.491409268,0,0,1.1204863786697388,0,0,0
1.492409476,0,0,1.170764684677124,0,0,0.3822000026702881
1.493409387,0,0,1.6639702320098877,0,0,0.0764399990439415
1.49440965,0,0,1.742978811264038,0,0,0.9172800183296204
1.495409506,0,0,1.9560627937316895,0,0,1.452359914779663
1.496412399,0,0,1.6400281190872192,0,0,1.9874399900436401
1.49743518,0,0,1.6974890232086182,0,0,1.452359914779663
1.4984124429999999,0,0,1.7908629179000854,0,0,1.9109998941421509
1.499403262,0,0,1.6089035272598267,0,0,1.5288000106811523
1.500412414,0,0,1.8770540952682495,0,0,0.7644000053405762
1.501409714,0,0,2.1787235736846924,0,0,1.223039984703064
1.502409163,0,0,2.5234885215759277,0,0,0.4586400091648102
1.5034090180000002,0,0,2.537853717803955,0,0,1.452359914779663
1.5044120410000001,0,0,2.250549554824829,0,0,1.6816799640655518
1.505409433,0,0,1.7908629179000854,0,0,0.9172800183296204
1.506408178,0,0,1.3982137441635132,0,0,1.375920057296753
1.507409015,0,0,0.849941611289978,0,0,0.0764399990439415
1.508411723,0,0,0.6416460275650024,0,0,0
1.5094097450000001,0,0,0.5554547905921936,0,0,9.631440162658691
1.5104091560000001,0,0,1.1755530834197998,0,0,9.096360206604004
1.511409586,0,0,1.6160861253738403,0,0,0.5350799560546875
1.512411627,0,0,1.8052281141281128,0,0,0.7644000053405762
1.513409186,0,0,1.843535304069519,0,0,1.758120059967041
1.514409616,0,0,1.6974890232086182,0,0,2.14031982421875
1.515409509,0,0,1.601720929145813,0,0,1.605239987373352
1.516412031,0,0,1.3479355573654175,0,0,2.2167599201202393
1.517409257,0,0,1.7142484188079834,0,0,1.375920057296753
1.518409465,0,0,2.3343467712402344,0,0,0.9172800183296204
1.519410135,0,0,2.760514497756958,0,0,1.2994799613952637
1.520427843,0,0,2.6360161304473877,0,0,1.5288000106811523
1.5214098649999999,0,0,2.456450939178467,0,0,1.6816799640655518
1.522410277,0,0,2.1763293743133545,0,0,1.2994799613952637
1.523409892,0,0,1.4173674583435059,0,0,1.223039984703064
1.524412655,0,0,0.9816226959228516,0,0,0.611519992351532
1.5254141959999998,0,0,0.5506663918495178,0,0,0.611519992351532
1.526437829,0,0,0.9648633003234863,0,0,0
1.527452518,0,0,1.7166426181793213,0,0,9.631440162658691
1.528420985,0,0,1.8507179021835327,0,0,0.8408399820327759
1.5295887449999999,0,0,2.185906171798706,0,0,1.375920057296753
1.530432215,0,0,2.099714994430542,0,0,1.9109998941421509
1.531410682,0,0,1.6759412288665771,0,0,2.14031982421875
1.532414223,0,0,1.1468225717544556,0,0,1.9109998941421509
1.533409782,0,0,1.2425906658172607,0,0,1.2994799613952637
1.534409878,0,0,1.8507179021835327,0,0,0.8408399820327759
1.5354090120000001,0,0,2.367865562438965,0,0,0.6879600286483765
1.53644033,0,0,2.5474305152893066,0,0,1.070159912109375
1.53741376,0,0,2.6839001178741455,0,0,1.1466000080108643
1.538409931,0,0,2.1332337856292725,0,0,1.758120059967041
1.539410083,0,0,1.1851298809051514,0,0,1.070159912109375
1.540412346,0,0,0.5291185975074768,0,0,0.5350799560546875
1.541409572,0,0,0.3902548849582672,0,0,9.631440162658691
1.542409132,0,0,1.1994950771331787,0,0,0
1.543409839,0,0,1.50355863571167,0,0,0
1.5444119349999998,0,0,1.8818424940109253,0,0,0.3822000026702881
1.545409143,0,0,2.1116859912872314,0,0,1.1466000080108643
1.5464096280000001,0,0,1.8818424940109253,0,0,2.2932000160217285
1.547558241,0,0,1.1683704853057861,0,0,2.14031982421875
1.5484250990000001,0,0,1.5514427423477173,0,0,1.6816799640655518
1.549410177,0,0,2.1045033931732178,0,0,1.1466000080108643
1.55040844,0,0,2.3702597618103027,0,0,1.8345600366592407
1.551410148,0,0,2.6575639247894287,0,0,1.070159912109375
1.552412374,0,0,2.9688100814819336,0,0,1.070159912109375
1.553409359,0,0,2.3247697353363037,0,0,1.9874399900436401
1.554409493,0,0,1.1994950771331787,0,0,0.8408399820327759
1.5554092000000002,0,0,0.6584054827690125,0,0,0.9937199950218201
1.556411519,0,0,0.9457096457481384,0,0,-29.582279205322266
1.5574094299999999,0,0,1.170764684677124,0,0,-0.2293200045824051
1.558409545,0,0,1.3838485479354858,0,0,0.152879998087883
1.559409901,0,0,2.0183119773864746,0,0,0.4586400091648102
1.56041146,0,0,1.941697597503662,0,0,1.070159912109375
1.5614356489999999,0,0,1.4293384552001953,0,0,2.06387996673584
1.562410597,0,0,1.4437036514282227,0,0,1.452359914779663
1.5634091940000001,0,0,1.6184803247451782,0,0,1.758120059967041
1.564410735,0,0,1.745373010635376,0,0,1.605239987373352
1.565410553,0,0,2.011129379272461,0,0,1.223039984703064
1.56640965,0,0,2.432508945465088,0,0,0.5350799560546875
1.567409024,0,0,2.3511061668395996,0,0,1.452359914779663
1.568409898,0,0,1.8100165128707886,0,0,1.375920057296753
1.569409421,0,0,1.5322890281677246,0,0,0.611519992351532
1.570409258,0,0,1.6663644313812256,0,0,0.9172800183296204
1.5714085770000001,0,0,1.5394717454910278,0,0,1.070159912109375
1.572417895,0,0,1.7118542194366455,0,0,0.611519992351532
1.573411844,0,0,1.764526605606079,0,0,1.1466000080108643
1.574410366,0,0,1.2880805730819702,0,0,1.223039984703064
1.5754092960000001,0,0,0.9720458984375,0,0,1.070159912109375
1.576412299,0,0,1.237802267074585,0,0,0.6879600286483765
1.577410026,0,0,1.5753847360610962,0,0,1.223039984703064
1.578409307,0,0,2.0183119773864746,0,0,1.1466000080108643
1.5794092929999999,0,0,2.382230758666992,0,0,0.9937199950218201
1.580432018,0,0,2.051830768585205,0,0,1.605239987373352
1.581488244,0,0,1.3742717504501343,0,0,1.8345600366592407
1.5824121930000001,0,0,1.213860273361206,0,0,0.5350799560546875
1.5834101409999999,0,0,1.5634137392044067,0,0,0.6879600286483765
1.58441359,0,0,1.659181833267212,0,0,0.6879600286483765
1.585409556,0,0,2.0159177780151367,0,0,0.4586400091648102
1.586408227,0,0,2.188300371170044,0,0,1.223039984703064
1.587409638,0,0,1.5442601442337036,0,0,1.8345600366592407
1.5884119939999999,0,0,1.2090718746185303,0,0,1.070159912109375
1.589408924,0,0,1.5442601442337036,0,0,1.6816799640655518
1.5904089460000002,0,0,1.5466543436050415,0,0,1.452359914779663
1.5914093569999999,0,0,1.764526605606079,0,0,0.5350799560546875
1.592411028,0,0,2.43011474609375,0,0,0.6879600286483765
1.5934084579999999,0,0,1.9728221893310547,0,0,1.223039984703064
1.594408961,0,0,1.436521053314209,0,0,0.611519992351532
1.5954090760000001,0,0,1.4963760375976563,0,0,0.305759996175766
1.5964118950000001,0,0,1.53707754611969,0,0,0.7644000053405762
1.5974087319999999,0,0,1.460463047027588,0,0,0.6879600286483765
1.598409403,0,0,2.008735179901123,0,0,0.2293200045824051
1.599409555,0,0,1.8171991109848022,0,0,1.9874399900436401
1.6004331139999999,0,0,1.4413094520568848,0,0,1.9109998941421509
1.601410303,0,0,1.8052281141281128,0,0,1.375920057296753
1.602409696,0,0,2.006340980529785,0,0,2.14031982421875
1.6034096070000001,0,0,2.0590133666992188,0,0,1.9874399900436401
1.60441163,0,0,2.279279947280884,0,0,0.611519992351532
1.6054094110000001,0,0,2.0183119773864746,0,0,1.375920057296753
1.606409471,0,0,1.4413094520568848,0,0,0.6879600286483765
1.607408475,0,0,1.50355863571167,0,0,9.402119636535645
1.608414126,0,0,1.5131354331970215,0,0,0.3822000026702881
1.609409538,0,0,1.482010841369629,0,0,0.152879998087883
1.6104095790000001,0,0,1.7932571172714233,0,0,9.631440162658691
1.6114090829999999,0,0,1.3527239561080933,0,0,1.2994799613952637
1.6124112529999999,0,0,0.8954314589500427,0,0,0.9937199950218201
1.613409979,0,0,1.216254472732544,0,0,0.7644000053405762
1.6144094089999999,0,0,1.4221558570861816,0,0,1.9109998941421509
1.6154102830000001,0,0,1.558625340461731,0,0,0.9172800183296204
1.616407361,0,0,2.0398597717285156,0,0,0.8408399820327759
1.617404365,0,0,1.9177556037902832,0,0,2.14031982421875
1.618404332,0,0,1.4700398445129395,0,0,0.611519992351532
1.6194037620000001,0,0,1.7381904125213623,0,0,0
1.620421136,0,0,1.8938134908676147,0,0,1.605239987373352
1.621405603,0,0,2.0422539710998535,0,0,0.6879600286483765
1.6224048290000002,0,0,2.5498247146606445,0,0,0.4586400091648102
1.623404555,0,0,2.030282974243164,0,0,2.446079969406128
1.624415892,0,0,1.7070658206939697,0,0,1.605239987373352
1.6254309139999998,0,0,2.013523578643799,0,0,0.9172800183296204
1.626413492,0,0,1.8363527059555054,0,0,2.904719829559326
1.627784546,0,0,1.7262194156646729,0,0,0.8408399820327759
1.628454758,0,0,1.9488801956176758,0,0,1.5288000106811523
1.629900793,0,0,1.1994950771331787,0,0,2.06387996673584
1.630967129,0,0,1.3694833517074585,0,0,9.096360206604004
1.631444992,0,0,1.7357962131500244,0,0,0.611519992351532
1.6324662,0,0,1.7525556087493896,0,0,0
1.633619164,0,0,2.3535003662109375,0,0,9.325679779052734
1.634420319,0,0,1.8698714971542358,0,0,1.452359914779663
1.635416379,0,0,1.3120225667953491,0,0,1.5288000106811523
1.636419234,0,0,1.3311761617660522,0,0,0.9172800183296204
1.637413016,0,0,0.9289502501487732,0,0,2.3696401119232178
1.638412835,0,0,1.170764684677124,0,0,0.305759996175766
1.639412746,0,0,1.381454348564148,0,0,0.5350799560546875
1.640415898,0,0,1.115697979927063,0,0,0.8408399820327759
1.64141268,0,0,1.5275006294250488,0,0,-0.611519992351532
1.64241272,0,0,1.6304513216018677,0,0,0.8408399820327759
1.643412613,0,0,2.097320795059204,0,0,0.5350799560546875
1.644415376,0,0,2.7533318996429443,0,0,0.3822000026702881
1.6454128620000001,0,0,2.2601263523101807,0,0,2.2167599201202393
1.646413125,0,0,2.0231003761291504,0,0,1.9874399900436401
1.6474127950000002,0,0,1.7118542194366455,0,0,2.5989599227905273
1.648413688,0,0,1.3479355573654175,0,0,2.446079969406128
1.649412451,0,0,1.8267759084701538,0,0,0.9937199950218201
1.6504126220000002,0,0,1.4963760375976563,0,0,1.6816799640655518
1.651414014,0,0,1.2976573705673218,0,0,0.5350799560546875
1.6524144440000001,0,0,1.8267759084701538,0,0,9.631440162658691
1.6534647059999998,0,0,1.745373010635376,0,0,1.070159912109375
1.654426304,0,0,2.4684219360351563,0,0,-0.5350799560546875
1.655434826,0,0,2.669534921646118,0,0,0.9172800183296204
1.656440089,0,0,1.766920804977417,0,0,2.446079969406128
1.657467518,0,0,1.8171991109848022,0,0,0.5350799560546875
1.658416115,0,0,1.3263877630233765,0,0,2.9811599254608154
1.6594123600000001,0,0,1.2425906658172607,0,0,0.5350799560546875
1.6604188450000001,0,0,1.3886369466781616,0,0,0.9937199950218201
1.661412645,0,0,0.6224924325942993,0,0,1.605239987373352
1.6624127789999998,0,0,1.0342950820922852,0,0,8.331960678100586
1.663412635,0,0,1.0749965906143188,0,0,0.9937199950218201
1.664414898,0,0,1.778891921043396,0,0,9.478560447692871
1.665449679,0,0,3.1292216777801514,0,0,-30.19379997253418
1.666413517,0,0,2.4660277366638184,0,0,2.446079969406128
1.667412983,0,0,2.183511972427368,0,0,1.223039984703064
1.668413654,0,0,1.5610195398330688,0,0,2.446079969406128
1.669412732,0,0,0.8643068075180054,0,0,2.2167599201202393
1.6704117360000001,0,0,1.2425906658172607,0,0,0.7644000053405762
1.671413406,0,0,0.4644751250743866,0,0,2.06387996673584
1.672415669,0,0,1.0654197931289673,0,0,-0.9937199950218201
1.673412544,0,0,1.7118542194366455,0,0,0.0764399990439415
1.674412344,0,0,1.9584569931030273,0,0,0.6879600286483765
1.675412051,0,0,3.3255462646484375,0,0,-1.070159912109375
1.676415037,0,0,2.6575639247894287,0,0,2.828279972076416
1.677411966,0,0,2.161964178085327,0,0,1.758120059967041
1.6784124519999999,0,0,1.745373010635376,0,0,2.06387996673584
1.6794127699999999,0,0,1.0893617868423462,0,0,3.6691200733184814
1.680414311,0,0,1.9249382019042969,0,0,0.4586400091648102
1.681413482,0,0,1.5466543436050415,0,0,2.446079969406128
1.6824129669999999,0,0,1.4939818382263184,0,0,-0.7644000053405762
1.683412656,0,0,1.1276689767837524,0,0,0.8408399820327759
1.684415234,0,0,1.3335703611373901,0,0,0.5350799560546875
1.685417349,0,0,1.8531121015548706,0,0,-0.9172800183296204
1.686412871,0,0,1.6280571222305298,0,0,1.605239987373352
1.68741269,0,0,1.7262194156646729,0,0,9.402119636535645
1.688415805,0,0,1.6711528301239014,0,0,1.070159912109375
1.689441364,0,0,1.4221558570861816,0,0,1.9874399900436401
1.690414016,0,0,1.436521053314209,0,0,0.5350799560546875
1.6914125389999999,0,0,0.6655880808830261,0,0,1.9109998941421509
1.692410765,0,0,0.6248866319656372,0,0,-29.888038635253906
1.693406769,0,0,0.3734954595565796,0,0,0.9172800183296204
1.694406995,0,0,1.8100165128707886,0,0,-0.4586400091648102
1.69540624,0,0,2.477998733520508,0,0,0.0764399990439415
1.6964225210000001,0,0,2.5450363159179688,0,0,2.14031982421875
1.697413932,0,0,2.8993782997131348,0,0,0.6879600286483765
1.698412695,0,0,1.941697597503662,0,0,2.828279972076416
1.699555642,0,0,1.9560627937316895,0,0,1.5288000106811523
1.7004379809999999,0,0,0.7781155705451965,0,0,2.06387996673584
1.701463558,0,0,0.5626373887062073,0,0,0.5350799560546875
1.702496265,0,0,0.646434485912323,0,0,-0.305759996175766
1.703433992,0,0,1.0223240852355957,0,0,0.8408399820327759
1.7044202739999998,0,0,2.537853717803955,0,0,8.17908000946045
1.705421778,0,0,2.1930887699127197,0,0,1.375920057296753
1.706470503,0,0,2.188300371170044,0,0,1.070159912109375
1.707419582,0,0,1.944091796875,0,0,1.2994799613952637
1.708432771,0,0,1.3503297567367554,0,0,2.2932000160217285
1.709428608,0,0,1.1085153818130493,0,0,0.611519992351532
1.7104138899999999,0,0,0.3447650372982025,0,0,1.8345600366592407
1.711412412,0,0,0.3687070608139038,0,0,-9.554999351501465
1.712417286,0,0,0.11013327538967133,0,0,0.7644000053405762
1.7134125500000001,0,0,1.601720929145813,0,0,9.096360206604004
1.714412887,0,0,2.6647465229034424,0,0,0
1.715414335,0,0,2.3965959548950195,0,0,2.14031982421875
1.716415209,0,0,2.63362193107605,0,0,0.4586400091648102
1.717412769,0,0,1.6400281190872192,0,0,2.828279972076416
1.718411865,0,0,1.1516109704971313,0,0,1.758120059967041
1.719412943,0,0,0.6416460275650024,0,0,0.6879600286483765
1.720414688,0,0,0.45489832758903503,0,0,1.375920057296753
1.721414562,0,0,0.6320692300796509,0,0,9.325679779052734
1.7224137320000001,0,0,0.7445967197418213,0,0,0.611519992351532
1.723412551,0,0,2.470816135406494,0,0,-1.223039984703064
1.724415333,0,0,2.7246015071868896,0,0,1.452359914779663
1.72541317,0,0,2.5665841102600098,0,0,1.5288000106811523
1.726413026,0,0,2.360682964324951,0,0,1.1466000080108643
1.727413474,0,0,1.414973258972168,0,0,3.134040117263794
1.7284152179999999,0,0,1.2880805730819702,0,0,0.9937199950218201
1.729412574,0,0,0.5219359993934631,0,0,1.452359914779663
1.730412985,0,0,0.6943184733390808,0,0,0.3822000026702881
1.731412267,0,0,0.7086837291717529,0,0,0
1.732412067,0,0,1.4460978507995605,0,0,0
1.7334068120000001,0,0,2.7461493015289307,0,0,-0.8408399820327759
1.734407242,0,0,2.1954829692840576,0,0,2.06387996673584
1.73540582,0,0,2.1284453868865967,0,0,0.7644000053405762
1.736438434,0,0,1.2976573705673218,0,0,2.446079969406128
1.737414272,0,0,1.0749965906143188,0,0,1.6816799640655518
1.738411961,0,0,0.7565677165985107,0,0,0.3822000026702881
1.739411002,0,0,0.4812345504760742,0,0,1.1466000080108643
1.7404150980000002,0,0,0.8140285611152649,0,0,-0.611519992351532
1.7414116389999998,0,0,0.8906430602073669,0,0,0.305759996175766
1.742411309,0,0,2.3271639347076416,0,0,0
1.743412424,0,0,2.451662540435791,0,0,1.223039984703064
1.744929958,0,0,2.011129379272461,0,0,1.9109998941421509
1.745675076,0,0,1.8579005002975464,0,0,0.7644000053405762
1.746688136,0,0,0.8882488012313843,0,0,2.446079969406128
1.747425662,0,0,1.1563993692398071,0,0,0.5350799560546875
1.748554553,0,0,0.8547300100326538,0,0,0.8408399820327759
1.749424373,0,0,1.05105459690094,0,0,0.7644000053405762
1.750421785,0,0,1.3551181554794312,0,0,0
1.7514286399999999,0,0,1.8986018896102905,0,0,0.8408399820327759
1.752441144,0,0,3.24414324760437,0,0,9.631440162658691
1.753468907,0,0,2.382230758666992,0,0,2.446079969406128
1.754462503,0,0,1.6927006244659424,0,0,1.9874399900436401
1.7554497850000002,0,0,0.8762778043746948,0,0,1.5288000106811523
1.75647377,0,0,0.3016694188117981,0,0,1.605239987373352
1.757441848,0,0,0.5793967843055725,0,0,-30.19379997253418
1.758446222,0,0,0.24660277366638184,0,0,0.152879998087883
1.759433893,0,0,0.9864110946655273,0,0,8.40839958190918
1.760448341,0,0,0.9768342971801758,0,0,9.631440162658691
1.7614429010000001,0,0,2.008735179901123,0,0,-0.4586400091648102
1.7624573300000002,0,0,2.516305923461914,0,0,-0.611519992351532
1.763440112,0,0,1.5298948287963867,0,0,2.2932000160217285
1.764436838,0,0,1.400607943534851,0,0,0.6879600286483765
1.76570719,0,0,0.33039984107017517,0,0,1.5288000106811523
1.766426605,0,0,0.2849099934101105,0,0,1.2994799613952637
1.767444202,0,0,0.5099649429321289,0,0,0
1.768434372,0,0,0.5961562395095825,0,0,1.070159912109375
1.769426858,0,0,1.4269442558288574,0,0,-1.1466000080108643
1.7704184170000001,0,0,1.3192051649093628,0,0,0.6879600286483765
1.771411847,0,0,2.7126305103302,0,0,-0.4586400091648102
1.772397351,0,0,2.9233202934265137,0,0,0
1.773470095,0,0,2.011129379272461,0,0,2.751840114593506
1.774429544,0,0,1.7717092037200928,0,0,0.4586400091648102
1.775394881,0,0,0.8619126081466675,0,0,2.446079969406128
1.776401292,0,0,0.6368576288223267,0,0,0.5350799560546875
1.7774683690000002,0,0,0.8786720037460327,0,0,0.152879998087883
1.778413096,0,0,0.49559974670410156,0,0,1.1466000080108643
1.779383656,0,0,0.7541735172271729,0,0,8.331960678100586
1.780620305,0,0,0.608127236366272,0,0,0.5350799560546875
1.781494366,0,0,1.845929503440857,0,0,9.096360206604004
1.7823746310000002,0,0,2.5929205417633057,0,0,8.561279296875
1.7834031339999998,0,0,1.9033904075622559,0,0,2.6754000186920166
1.784416193,0,0,1.7310078144073486,0,0,0.2293200045824051
1.785442808,0,0,0.8355764150619507,0,0,1.758120059967041
1.7864443300000001,0,0,0.2106897532939911,0,0,1.375920057296753
1.787438297,0,0,0.5937620401382446,0,0,-0.611519992351532
1.788431801,0,0,0.47644615173339844,0,0,1.605239987373352
1.789440175,0,0,0.8571242094039917,0,0,-1.223039984703064
1.790541733,0,0,1.2832920551300049,0,0,-0.3822000026702881
1.7914206830000001,0,0,1.7573440074920654,0,0,0.0764399990439415
1.792428446,0,0,3.0382418632507324,0,0,8.867039680480957
1.7934255609999998,0,0,2.2888567447662354,0,0,2.2167599201202393
1.794446528,0,0,1.357512354850769,0,0,1.8345600366592407
1.795431587,0,0,1.1252747774124146,0,0,1.1466000080108643
1.7964197579999999,0,0,0.38546648621559143,0,0,2.828279972076416
1.797391077,0,0,0.706289529800415,0,0,0.5350799560546875
1.798353933,0,0,0.912190854549408,0,0,0.2293200045824051
1.7993525849999998,0,0,0.5841852426528931,0,0,0.152879998087883
1.800355237,0,0,1.4939818382263184,0,0,-1.223039984703064
1.8013558710000002,0,0,2.7485435009002686,0,0,0.9937199950218201
1.804892523,0,0,2.7485435009002686,0,0,2.14031982421875
1.805177519,0,0,1.6352397203445435,0,0,2.14031982421875
1.805456737,0,0,1.6352397203445435,0,0,1.605239987373352
1.805735362,0,0,1.0630255937576294,0,0,1.1466000080108643
1.807894664,0,0,1.0630255937576294,0,0,1.9874399900436401
1.808207956,0,0,0.45250412821769714,0,0,1.5288000106811523
1.808503822,0,0,0.9696516990661621,0,0,0.5350799560546875
1.8095680280000002,0,0,0.6799532771110535,0,0,0.152879998087883
1.81045396,0,0,0.4812345504760742,0,0,9.325679779052734
1.811415834,0,0,0.8547300100326538,0,0,8.867039680480957
1.8123664499999999,0,0,0.9864110946655273,0,0,9.019920349121094
1.813363917,0,0,2.142810583114624,0,0,-0.5350799560546875
1.8143803649999999,0,0,2.1475989818573,0,0,0.0764399990439415
1.815394721,0,0,1.4173674583435059,0,0,0.9937199950218201
1.8163781509999999,0,0,1.0989385843276978,0,0,1.9874399900436401
1.817410006,0,0,0.8379706144332886,0,0,1.6816799640655518
1.8183773250000002,0,0,0.7661445140838623,0,0,1.8345600366592407
1.819373903,0,0,0.9528923034667969,0,0,1.1466000080108643
1.820387925,0,0,1.3479355573654175,0,0,0.0764399990439415
1.821377096,0,0,1.522712230682373,0,0,0.7644000053405762
1.822388599,0,0,1.7070658206939697,0,0,0
1.823383937,0,0,1.7477672100067139,0,0,-0.4586400091648102
1.824457958,0,0,1.8842366933822632,0,0,0.611519992351532
1.82540837,0,0,2.252943754196167,0,0,0.305759996175766
1.826378485,0,0,1.7956513166427612,0,0,0.2293200045824051
1.827359638,0,0,1.1659762859344482,0,0,2.446079969406128
1.82836029,0,0,0.7829039692878723,0,0,1.5288000106811523
1.829360219,0,0,0.7206547260284424,0,0,0.4586400091648102
1.830358223,0,0,0.47405192255973816,0,0,1.6816799640655518
1.8313575979999999,0,0,1.3287819623947144,0,0,-29.582279205322266
1.832358564,0,0,1.5873557329177856,0,0,0.0764399990439415
1.8333526789999999,0,0,1.4221558570861816,0,0,1.070159912109375
1.8343526460000001,0,0,1.4245500564575195,0,0,-30.19379997253418
1.835349261,0,0,1.5418659448623657,0,0,0
1.8363554500000001,0,0,1.4532804489135742,0,0,0.9937199950218201
1.8373520650000001,0,0,1.534683346748352,0,0,0
1.838353495,0,0,1.256955862045288,0,0,0.3822000026702881
1.839351684,0,0,0.7134721279144287,0,0,2.06387996673584
1.840370317,0,0,0.8236053586006165,0,0,0.2293200045824051
1.841361488,0,0,0.8667010068893433,0,0,0.3822000026702881
1.8423602319999999,0,0,1.0199298858642578,0,0,1.6816799640655518
1.843362162,0,0,1.3311761617660522,0,0,0.152879998087883
1.8443615549999999,0,0,1.6376339197158813,0,0,0.4586400091648102
1.845358485,0,0,1.259350061416626,0,0,1.070159912109375
1.846355859,0,0,1.2114660739898682,0,0,0.0764399990439415
1.8473536959999999,0,0,1.525106430053711,0,0,-29.582279205322266
1.848354367,0,0,1.4389152526855469,0,0,1.070159912109375
1.849351,0,0,1.5897499322891235,0,0,0.0764399990439415
1.8503499300000001,0,0,1.7118542194366455,0,0,0.2293200045824051
1.85135036,0,0,1.0821791887283325,0,0,1.8345600366592407
1.8523520119999999,0,0,0.8882488012313843,0,0,1.223039984703064
1.853350275,0,0,1.115697979927063,0,0,1.070159912109375
1.854351927,0,0,1.0678139925003052,0,0,1.070159912109375
1.855352023,0,0,1.4221558570861816,0,0,0.611519992351532
1.856357638,0,0,1.824381709098816,0,0,0.5350799560546875
1.857354939,0,0,1.4317326545715332,0,0,0.8408399820327759
1.858354072,0,0,1.4317326545715332,0,0,0.3822000026702881
1.859350206,0,0,0.9600749015808105,0,0,0.6879600286483765
1.8603565610000001,0,0,0.8643068075180054,0,0,0
1.8613511759999999,0,0,1.577778935432434,0,0,0.3822000026702881
1.8623491620000001,0,0,1.889025092124939,0,0,0.9937199950218201
1.863361276,0,0,1.8818424940109253,0,0,0.9172800183296204
1.864352725,0,0,1.3527239561080933,0,0,1.605239987373352
1.865352506,0,0,0.7805097699165344,0,0,0.7644000053405762
1.8663547139999999,0,0,0.7158663272857666,0,0,0.9172800183296204
1.8673570879999999,0,0,0.9002198576927185,0,0,0.6879600286483765
1.8683654619999999,0,0,1.1683704853057861,0,0,0.5350799560546875
1.869243894,0,0,1.5298948287963867,0,0,0.2293200045824051
1.870249786,0,0,1.601720929145813,0,0,0.0764399990439415
1.871286568,0,0,1.580173134803772,0,0,0
1.872266609,0,0,0.9792284965515137,0,0,0.3822000026702881
1.873251335,0,0,0.7996633648872375,0,0,0.0764399990439415
1.874243839,0,0,0.7996633648872375,0,0,0.305759996175766
1.8752383799999999,0,0,0.8786720037460327,0,0,0.611519992351532
1.876245143,0,0,1.072602391242981,0,0,0.4586400091648102
1.877247369,0,0,1.3215993642807007,0,0,1.2994799613952637
1.878237669,0,0,1.2497732639312744,0,0,2.06387996673584
1.87923484,0,0,0.9888052940368652,0,0,1.6816799640655518
1.8802452509999998,0,0,1.1563993692398071,0,0,0.9172800183296204
1.881245162,0,0,1.6328455209732056,0,0,1.1466000080108643
1.8822368699999998,0,0,2.183511972427368,0,0,1.070159912109375
1.883233911,0,0,2.3080103397369385,0,0,0.3822000026702881
1.8842322299999998,0,0,2.449268341064453,0,0,1.1466000080108643
1.885232678,0,0,1.98958158493042,0,0,0.611519992351532
1.886235182,0,0,0.8331822156906128,0,0,0.305759996175766
1.887240741,0,0,0.33518823981285095,0,0,9.096360206604004
1.888284281,0,0,0.8068459630012512,0,0,9.096360206604004
1.8893151179999998,0,0,0.9217676520347595,0,0,0
1.890291474,0,0,1.0749965906143188,0,0,0
1.8912857,0,0,1.335964560508728,0,0,0.611519992351532
1.8922767409999999,0,0,1.0247182846069336,0,0,1.5288000106811523
1.893294634,0,0,0.6153098344802856,0,0,0.8408399820327759
1.894275045,0,0,0.7661445140838623,0,0,0.9172800183296204
1.8952596050000001,0,0,1.5131354331970215,0,0,0.8408399820327759
1.89625572,0,0,1.7956513166427612,0,0,1.605239987373352
1.899933888,0,0,1.8483237028121948,0,0,0.611519992351532
1.900165866,0,0,1.216254472732544,0,0,0.611519992351532
1.90033579,0,0,1.216254472732544,0,0,0.5350799560546875
1.9005045090000001,0,0,1.216254472732544,0,0,0.6879600286483765
1.901340127,0,0,0.49799394607543945,0,0,0
1.9022978350000002,0,0,0.7374141216278076,0,0,-0.611519992351532
1.9033128019999999,0,0,1.3551181554794312,0,0,0
1.904357601,0,0,1.3551181554794312,0,0,0.0764399990439415
1.906463126,0,0,0.9983820915222168,0,0,0.9172800183296204
1.9066703820000002,0,0,0.9983820915222168,0,0,1.2994799613952637
1.90726167,0,0,0.4908113479614258,0,0,0.8408399820327759
1.9082872659999999,0,0,0.21308395266532898,0,0,0.7644000053405762
1.909278455,0,0,0.7733271718025208,0,0,0.9172800183296204
1.910277533,0,0,1.6639702320098877,0,0,1.070159912109375
1.911281962,0,0,1.98958158493042,0,0,1.8345600366592407
1.912273448,0,0,2.360682964324951,0,0,1.223039984703064
1.913284526,0,0,2.6671407222747803,0,0,1.605239987373352
1.914251215,0,0,2.4660277366638184,0,0,1.6816799640655518
1.915254997,0,0,1.5322890281677246,0,0,0.4586400091648102
1.916255612,0,0,0.8451532125473022,0,0,0.8408399820327759
1.917246912,0,0,0.4620809257030487,0,0,-0.8408399820327759
1.918297952,0,0,1.1971008777618408,0,0,9.478560447692871
1.9192514379999999,0,0,1.357512354850769,0,0,0
1.920239072,0,0,1.2425906658172607,0,0,0.6879600286483765
1.921231205,0,0,1.1492167711257935,0,0,0.4586400091648102
1.9222307650000001,0,0,0.7493851184844971,0,0,1.1466000080108643
1.923231158,0,0,0.2322375625371933,0,0,0.611519992351532
1.9242324210000001,0,0,0.5267243981361389,0,0,0.3822000026702881
1.925231239,0,0,1.0582371950149536,0,0,0.305759996175766
1.926232947,0,0,1.7908629179000854,0,0,0.6879600286483765
1.927230766,0,0,2.1715409755706787,0,0,0.6879600286483765
1.928232677,0,0,2.4133553504943848,0,0,1.5288000106811523
1.9292320699999999,0,0,2.5474305152893066,0,0,1.758120059967041
1.9302291660000002,0,0,1.6927006244659424,0,0,1.6816799640655518
1.9312319850000002,0,0,0.8523358106613159,0,0,0.5350799560546875
1.932232563,0,0,0.5291185975074768,0,0,0.5350799560546875
1.933232085,0,0,0,0,0,9.019920349121094
1.9342330890000001,0,0,1.0199298858642578,0,0,8.790599822998047
1.9352334820000001,0,0,1.4772224426269531,0,0,9.478560447692871
1.936235578,0,0,1.6184803247451782,0,0,0.0764399990439415
1.937230934,0,0,1.580173134803772,0,0,1.1466000080108643
1.9382311410000002,0,0,1.2066776752471924,0,0,0.7644000053405762
1.939231793,0,0,1.0582371950149536,0,0,1.9109998941421509
1.94023363,0,0,0.5913678407669067,0,0,0.7644000053405762
1.941232912,0,0,0.5913678407669067,0,0,0.7644000053405762
1.942237379,0,0,1.1803414821624756,0,0,1.070159912109375
1.9432488449999998,0,0,2.073378562927246,0,0,0.6879600286483765
1.944284645,0,0,2.343923568725586,0,0,1.452359914779663
1.945335815,0,0,2.3989901542663574,0,0,1.605239987373352
1.946270727,0,0,2.0877439975738525,0,0,1.375920057296753
1.947259194,0,0,1.6112977266311646,0,0,1.452359914779663
1.9482363459999998,0,0,0.8954314589500427,0,0,0.5350799560546875
1.949226276,0,0,0.5219359993934631,0,0,-29.582279205322266
1.950226095,0,0,0.3998316824436188,0,0,-29.888038635253906
1.951226395,0,0,0.8523358106613159,0,0,-1.1466000080108643
1.952226455,0,0,1.4532804489135742,0,0,0.152879998087883
1.953226366,0,0,1.2234370708465576,0,0,0.611519992351532
1.954226314,0,0,1.1851298809051514,0,0,0.9937199950218201
1.9552260590000001,0,0,0.5051765441894531,0,0,1.375920057296753
1.956226266,0,0,0.3734954595565796,0,0,0.6879600286483765
1.957226122,0,0,0.8595184087753296,0,0,0.9937199950218201
1.9582260150000002,0,0,1.0582371950149536,0,0,0.611519992351532
1.959225778,0,0,2.0829553604125977,0,0,1.070159912109375
1.960867494,0,0,2.0829553604125977,0,0,1.223039984703064
1.961231045,0,0,2.3271639347076416,0,0,1.223039984703064
1.9622248450000002,0,0,2.456450939178467,0,0,1.9109998941421509
1.9632269039999999,0,0,1.9943699836730957,0,0,1.1466000080108643
1.9642265559999998,0,0,1.601720929145813,0,0,1.375920057296753
1.9652237449999999,0,0,1.414973258972168,0,0,0.4586400091648102
1.966223675,0,0,0.9552865028381348,0,0,0.305759996175766
1.967222827,0,0,0.8643068075180054,0,0,0.0764399990439415
1.968223294,0,0,0.7781155705451965,0,0,8.867039680480957
1.969222835,0,0,0.4429273009300232,0,0,9.478560447692871
1.970238098,0,0,0.5722141861915588,0,0,9.096360206604004
1.971223417,0,0,1.1324573755264282,0,0,9.478560447692871
1.9722240869999998,0,0,1.235408067703247,0,0,0.8408399820327759
1.973223258,0,0,1.436521053314209,0,0,1.070159912109375
1.974222595,0,0,0.9457096457481384,0,0,1.758120059967041
1.975223636,0,0,0.6368576288223267,0,0,1.1466000080108643
1.9762234539999999,0,0,1.192312479019165,0,0,0.8408399820327759
1.977222458,0,0,1.3455413579940796,0,0,1.452359914779663
1.97822337,0,0,1.4915876388549805,0,0,0.9172800183296204
1.979222559,0,0,1.900996208190918,0,0,1.1466000080108643
1.980233914,0,0,1.7956513166427612,0,0,0.611519992351532
1.9812229000000001,0,0,2.2912509441375732,0,0,0.5350799560546875
1.982222496,0,0,2.3774423599243164,0,0,1.070159912109375
1.98322237,0,0,1.821987509727478,0,0,0.9937199950218201
1.984222893,0,0,1.4676456451416016,0,0,1.070159912109375
1.985227637,0,0,0.8188169598579407,0,0,0.0764399990439415
1.986222641,0,0,0.7015010714530945,0,0,0.2293200045824051
1.9872224040000002,0,0,0.8667010068893433,0,0,0
1.988223501,0,0,0.6919242739677429,0,0,-30.19379997253418
1.989222949,0,0,0.7374141216278076,0,0,0.152879998087883
1.9902224899999998,0,0,0.5650315880775452,0,0,0
1.991222401,0,0,1.2832920551300049,0,0,1.9874399900436401
1.996061701,0,0,1.2832920551300049,0,0,1.758120059967041
1.996227939,0,0,0.9097966551780701,0,0,1.375920057296753
1.997521494,0,0,0.9097966551780701,0,0,0.6879600286483765
1.997698047,0,0,0.9097966551780701,0,0,0.0764399990439415
1.9978615450000001,0,0,0.9097966551780701,0,0,0.0764399990439415
1.998024413,0,0,0.9097966551780701,0,0,1.070159912109375
1.998187632,0,0,1.6184803247451782,0,0,0.305759996175766
1.999235339,0,0,1.7812861204147339,0,0,0.6879600286483765
