Time,AccelX1,AccelY1,AccelZ1,AccelX2,AccelY2,AccelZ2
0.000015537,0,0,0,0,0,0.7644000053405762
0.021605027,0,0,0,0,0,0.8408399820327759
0.022013411,0,0,0,0,0,0.9172800183296204
0.022385554,0,0,0,0,0,0.8408399820327759
0.022756086,0,0,0,0,0,0.9937199950218201
0.023130081,0,0,0,0,0,1.223039984703064
0.023517817,0,0,0,0,0,0.5350799560546875
0.02389809,0,0,0,0,0,0.7644000053405762
0.024270862,0,0,0,0,0,0.8408399820327759
0.024642487,0,0,0,0,0,0.9937199950218201
0.025014927,0,0,0,0,0,0.9172800183296204
0.025383792,0,0,0,0,0,0.9937199950218201
0.025893933,0,0,0,0,0,0.9172800183296204
0.026273114,0,0,0,0,0,0.7644000053405762
0.026709552,0,0,0,0,0,0.6879600286483765
0.02723623,0,0,0,0,0,0.9172800183296204
0.028527806,0,0,0,0,0,0.9172800183296204
0.029011059,0,0,0,0,0,1.070159912109375
0.029393331,0,0,0,0,0,0.2293200045824051
0.029761012,0,0,0,0,0,1.070159912109375
0.030130822,0,0,0,0,0,0.6879600286483765
0.030499131,0,0,0,0,0,0.7644000053405762
0.030868349,0,0,0,0,0,0.9172800183296204
0.03124401,0,0,0,0,0,0.4586400091648102
0.031611302,0,0,0,0,0,0.3822000026702881
0.03197813,0,0,0,0,0,0.5350799560546875
0.032412588,0,0,0,0,0,0.8408399820327759
0.032810582,0,0,0,0,0,0.5350799560546875
0.033181207,0,0,0,0,0,1.070159912109375
0.033659145,0,0,0,0,0,0.9172800183296204
0.034033992,0,0,0,0,0,0.7644000053405762
0.034402635,0,0,0,0,0,0.2293200045824051
0.034769871,0,0,0,0,0,0.5350799560546875
0.035140366,0,0,0,0,0,0.3822000026702881
0.035509195,0,0,0,0,0,0.611519992351532
0.035877671,0,0,0,0,0,0.8408399820327759
0.036455145,0,0,0,0,0,0.8408399820327759
0.037447687,0,0,0,0,0,0.6879600286483765
0.038530265,0,0,0,0,0,1.070159912109375
0.039540771,0,0,0,0,0,0.8408399820327759
0.040451073,0,0,0,0,0,0.9172800183296204
0.041454004,0,0,0,0,0,0.9172800183296204
0.042374029,0,0,0,0,0,0.7644000053405762
0.043376127,0,0,0,0,0,0.7644000053405762
0.044372003,0,0,0,0,0,0.8408399820327759
0.045373989,0,0,0,0,0,0.7644000053405762
0.046378902,0,0,0,0,0,0.9937199950218201
0.047372074,0,0,0,0,0,0.8408399820327759
0.048377449,0,0,0,0,0,0.5350799560546875
0.04939914,0,0,0,0,0,1.070159912109375
0.050404922,0,0,0,0,0,0.8408399820327759
0.051372058,0,0,0,0,0,0.9937199950218201
0.052370952,0,0,0,0,0,0.611519992351532
0.05337679,0,0,0,0,0,0.5350799560546875
0.054372203,0,0,0,0,0,0.9172800183296204
0.05537719,0,0,0,0,0,0.8408399820327759
0.056369806,0,0,0,0,0,0.611519992351532
0.057369941,0,0,0,0,0,1.070159912109375
0.058371391,0,0,0,0,0,0.6879600286483765
0.059370081,0,0,0,0,0,0.9172800183296204
0.060370216,0,0,0,0,0,1.1466000080108643
0.061370314,0,0,0,0,0,0.9937199950218201
0.062371597,0,0,0,0,0,0.7644000053405762
0.063370676,0,0,0,0,0,0.7644000053405762
0.064370644,0,0,0,0,0,0.7644000053405762
0.065387964,0,0,0,0,0,0.611519992351532
0.066372599,0,0,0,0,0,0.6879600286483765
0.067370808,0,0,0,0,0,0.9172800183296204
0.068370684,0,0,0,0,0,0.8408399820327759
0.069370559,0,0,0,0,0,0.9172800183296204
0.070377768,0,0,0,0,0,0.8408399820327759
0.071375885,0,0,0,0,0,1.070159912109375
0.072374612,0,0,0,0,0,0.9172800183296204
0.073390728,0,0,0,0,0,0.9172800183296204
0.074387511,0,0,0,0,0,0.7644000053405762
0.075376535,0,0,0,0,0,0.9172800183296204
0.076375633,0,0,0,0,0,0.9172800183296204
0.077634209,0,0,0,0,0,0.611519992351532
0.078378162,0,0,0,0,0,0.6879600286483765
0.079376982,0,0,0,0,0,0.9172800183296204
0.080376765,0,0,0,0,0,0.7644000053405762
0.081376678,0,0,0,0,0,0.8408399820327759
0.082378442,0,0,0,0,0,1.070159912109375
0.083376336,0,0,0,0,0,0.611519992351532
0.084375952,0,0,0,0,0,1.070159912109375
0.085376717,0,0,0,0,0,0.7644000053405762
0.086376796,0,0,0,0,0,0.5350799560546875
0.087377209,0,0,0,0,0,1.1466000080108643
0.088375918,0,0,0,0,0,0.6879600286483765
0.089377812,0,0,0,0,0,0.6879600286483765
0.090378947,0,0,0,0,0,0.8408399820327759
0.091376582,0,0,0,0,0,0.9937199950218201
0.092376179,0,0,0,0,0,0.7644000053405762
0.093376425,0,0,0,0,0,1.070159912109375
0.094378005,0,0,0,0,0,0.5350799560546875
0.095375695,0,0,0,0,0,0.7644000053405762
0.09638146,0,0,0,0,0,0.9172800183296204
0.097375632,0,0,0,0,0,0.611519992351532
0.098377878,0,0,0,0,0,0.9172800183296204
0.099375846,0,0,0,0,0,0.7644000053405762
0.10037474,0,0,0,0,0,1.223039984703064
0.101375893,0,0,0,0,0,1.070159912109375
0.102377121,0,0,0,0,0,0.7644000053405762
0.1033757,0,0,0,0,0,0.7644000053405762
0.10437552,0,0,0,0,0,1.1466000080108643
0.105376618,0,0,0,0,0,0.8408399820327759
0.106402049,0,0,0,0,0,0.7644000053405762
0.107447257,0,0,0,0,0,0.8408399820327759
0.10837843,0,0,0,0,0,0.611519992351532
0.109375694,0,0,0,0,0,0.8408399820327759
0.110376496,0,0,0,0,0,0.4586400091648102
0.11137576,0,0,0,0,0,0.8408399820327759
0.11237621,0,0,0,0,0,0.9172800183296204
0.113375437,0,0,0,0,0,0.7644000053405762
0.114376165,0,0,0,0,0,0.9172800183296204
0.115369615,0,0,0,0,0,0.9937199950218201
0.116370824,0,0,0,0,0,0.8408399820327759
0.117370884,0,0,0,0,0,0.7644000053405762
0.118382741,0,0,0,0,0,0.7644000053405762
0.119375376,0,0,0,0,0,0.7644000053405762
0.120374752,0,0,0,0,0,0.9172800183296204
0.121374146,0,0,0,0,0,0.611519992351532
0.122416428,0,0,0,0,0,0.9937199950218201
0.123416526,0,0,0,0,0,0.9937199950218201
0.124412883,0,0,0,0,0,0.7644000053405762
0.125410722,0,0,0,0,0,0.7644000053405762
0.126395653,0,0,0,0,0,0.8408399820327759
0.127382529,0,0,0,0,0,0.6879600286483765
0.12837559,0,0,0,0,0,0.9172800183296204
0.129401632,0,0,0,0,0,0.9937199950218201
0.130380711,0,0,0,0,0,0.7644000053405762
0.131375291,0,0,0,0,0,1.070159912109375
0.132374574,0,0,0,0,0,0.5350799560546875
0.133375172,0,0,0,0,0,0.8408399820327759
0.134377047,0,0,0,0,0,0.9172800183296204
0.135374849,0,0,0,0,0,1.070159912109375
0.136375002,0,0,0,0,0,0.6879600286483765
0.137374415,0,0,0,0,0,0.9172800183296204
0.138377179,0,0,0,0,0,0.8408399820327759
0.139449572,0,0,0,0,0,0.611519992351532
0.140382727,0,0,0,0,0,0.5350799560546875
0.141374954,0,0,0,0,0,0.7644000053405762
0.142410718,0,0,0,0,0,0.8408399820327759
0.143409131,0,0,0,0,0,0.4586400091648102
0.144408377,0,0,0,0,0,0.8408399820327759
0.145409289,0,0,0,0,0,1.223039984703064
0.146411461,0,0,0,0,0,0.611519992351532
0.147409633,0,0,0,0,0,0.5350799560546875
0.148408824,0,0,0,0,0,0.8408399820327759
0.149409255,0,0,0,0,0,0.9172800183296204
0.150411445,0,0,0,0,0,0.8408399820327759
0.151408988,0,0,0,0,0,0.7644000053405762
0.152409493,0,0,0,0,0,0.9172800183296204
0.153409313,0,0,0,0,0,0.9172800183296204
0.154411244,0,0,0,0,0,0.5350799560546875
0.155409083,0,0,0,0,0,0.5350799560546875
0.156409366,0,0,0,0,0,0.9937199950218201
0.157408852,0,0,0,0,0,0.611519992351532
0.158410339,0,0,0,0,0,0.7644000053405762
0.15940927,0,0,0,0,0,0.9937199950218201
0.160409535,0,0,0,0,0,0.8408399820327759
0.161409521,0,0,0,0,0,0.9172800183296204
0.162411008,0,0,0,0,0,0.7644000053405762
0.163409828,0,0,0,0,0,0.5350799560546875
0.164411593,0,0,0,0,0,0.9937199950218201
0.16540895,0,0,0,0,0,0.6879600286483765
0.166409529,0,0,0,0,0,0.6879600286483765
0.167409756,0,0,0,0,0,1.070159912109375
0.168408947,0,0,0,0,0,0.8408399820327759
0.169409008,0,0,0,0,0,0.6879600286483765
0.170409624,0,0,0,0,0,0.8408399820327759
0.171409203,0,0,0,0,0,0.9172800183296204
0.172409097,0,0,0,0,0,0.9172800183296204
0.173409343,0,0,0,0,0,0.611519992351532
0.1744092,0,0,0,0,0,0.8408399820327759
0.175409594,0,0,0,0,0,0.9937199950218201
0.176409137,0,0,0,0,0,-9.172800064086914
0.177409568,0,0,0,0,0,0.9172800183296204
0.178409518,0,0,0,0,0,1.1466000080108643
0.17940943,0,0,0,0,0,0.8408399820327759
0.180408213,0,0,0,0,0,1.070159912109375
0.18140933,0,0,0,0,0,0.9172800183296204
0.182412168,0,0,0,0,0,0.6879600286483765
0.18340884,0,0,0,0,0,0.9172800183296204
0.184408919,0,0,0,0,0,0.6879600286483765
0.185409443,0,0,0,0,0,0.611519992351532
0.18642567,0,0,0,0,0,1.223039984703064
0.18748149,0,0,0,0,0,0.5350799560546875
0.188433995,0,0,0,0,0,0.9172800183296204
0.189435445,0,0,0,0,0,1.2994799613952637
0.190437098,0,0,0,0,0,0.8408399820327759
0.191426085,0,0,0,0,0,0.9172800183296204
0.192409961,0,0,0,0,0,0.6879600286483765
0.193416985,0,0,0,0,0,0.7644000053405762
0.194416434,0,0,0,0,0,0.8408399820327759
0.195409366,0,0,0,0,0,0.9172800183296204
0.196409482,0,0,0,0,0,0.5350799560546875
0.197408876,0,0,0,0,0,0.9937199950218201
0.198411604,0,0,0,0,0,0.305759996175766
0.199408924,0,0,0,0,0,0.611519992351532
0.200409336,0,0,0,0,0,1.070159912109375
0.20140936,0,0,0,0,0,0.8408399820327759
0.202411699,0,0,0,0,0,0.9937199950218201
0.203409019,0,0,0,0,0,1.223039984703064
0.204409172,0,0,0,0,0,0.8408399820327759
0.205408659,0,0,0,0,0,0.9172800183296204
0.206411164,0,0,0,0,0,0.7644000053405762
0.207408966,0,0,0,0,0,0.8408399820327759
0.208408249,0,0,0,0,0,0.9937199950218201
0.209408532,0,0,0,0,0,0.4586400091648102
0.210411407,0,0,0,0,0,0.6879600286483765
0.211409023,0,0,0,0,0,0.6879600286483765
0.212409232,0,0,0,0,0,0.6879600286483765
0.213409071,0,0,0,0,0,0.9172800183296204
0.214411447,0,0,0,0,0,0.8408399820327759
0.215409304,0,0,0,0,0,0.9937199950218201
0.216408716,0,0,0,0,0,0.9172800183296204
0.217408981,0,0,0,0,0,0.3822000026702881
0.218411134,0,0,0,0,0,0.7644000053405762
0.219409065,0,0,0,0,0,1.223039984703064
0.220409256,0,0,0,0,0,0.4586400091648102
0.221409039,0,0,0,0,0,0.611519992351532
0.222409488,0,0,0,0,0,0.9937199950218201
0.22340779,0,0,0,0,0,0.8408399820327759
0.22440911,0,0,0,0,0,0.9172800183296204
0.225431856,0,0,0,0,0,0.9937199950218201
0.22651136,0,0,0,0,0,0.7644000053405762
0.22746668,0,0,0,0,0,0.9172800183296204
0.228443593,0,0,0,0,0,0.611519992351532
0.229422858,0,0,0,0,0,0.7644000053405762
0.230436048,0,0,0,0,0,0.9937199950218201
0.231479164,0,0,0,0,0,0.7644000053405762
0.232494465,0,0,0,0,0,0.9172800183296204
0.233426175,0,0,0,0,0,0.9937199950218201
0.234449958,0,0,0,0,0,0.6879600286483765
0.235441223,0,0,0,0,0,0.9172800183296204
0.236417765,0,0,0,0,0,0.6879600286483765
0.237415159,0,0,0,0,0,1.070159912109375
0.238424035,0,0,0,0,0,0.8408399820327759
0.23942167,0,0,0,0,0,0.5350799560546875
0.240421638,0,0,0,0,0,0.8408399820327759
0.241439532,0,0,0,0,0,0.5350799560546875
0.242432185,0,0,0,0,0,0.4586400091648102
0.243414598,0,0,0,0,0,0.7644000053405762
0.244409307,0,0,0,0,0,1.070159912109375
0.245409035,0,0,0,0,0,0.8408399820327759
0.246410262,0,0,0,0,0,0.9172800183296204
0.247408823,0,0,0,0,0,1.070159912109375
0.248409272,0,0,0,0,0,0.9937199950218201
0.249409315,0,0,0,0,0,0.9937199950218201
0.250434542,0,0,0,0,0,0.3822000026702881
0.251411696,0,0,0,0,0,0.611519992351532
0.25240846,0,0,0,0,0,0.4586400091648102
0.253409854,0,0,0,0,0,0.8408399820327759
0.254408859,0,0,0,0,0,0.9172800183296204
0.255409031,0,0,0,0,0,1.070159912109375
0.256410222,0,0,0,0,0,0.7644000053405762
0.257443412,0,0,0,0,0,0.8408399820327759
0.258413232,0,0,0,0,0,0.6879600286483765
0.259409126,0,0,0,0,0,0.7644000053405762
0.260409002,0,0,0,0,0,0.9172800183296204
0.261408692,0,0,0,0,0,0.611519992351532
0.262409031,0,0,0,0,0,0.9937199950218201
0.263409351,0,0,0,0,0,0.5350799560546875
0.264409023,0,0,0,0,0,0.611519992351532
0.265409306,0,0,0,0,0,0.8408399820327759
0.26640833,0,0,0,0,0,0.5350799560546875
0.267409353,0,0,0,0,0,0.8408399820327759
0.268408784,0,0,0,0,0,0.9172800183296204
0.269409216,0,0,0,0,0,0.3822000026702881
0.270409128,0,0,0,0,0,1.070159912109375
0.271409393,0,0,0,0,0,-0.2293200045824051
0.272408842,0,0,0,0,0,-0.305759996175766
0.273408496,0,0,0,0,0,-0.152879998087883
0.274409149,0,0,0,0,0,0.305759996175766
0.275409136,0,0,0,0,0,0.611519992351532
0.276409345,0,0,0,0,0,0.6879600286483765
0.27740872,0,0,0,0,0,1.070159912109375
0.27841317,0,0,0,0,0,0.3822000026702881
0.279409175,0,0,0,0,0,1.1466000080108643
0.280408958,0,0,0,0,0,0.7644000053405762
0.281408908,0,0,0,0,0,0.2293200045824051
0.282411043,0,0,0,0,0,1.070159912109375
0.283409122,0,0,0,0,0,0.8408399820327759
0.284409294,0,0,0,0,0,0.7644000053405762
0.285409096,0,0,0,0,0,1.375920057296753
0.286411379,0,0,0,0,0,0.5350799560546875
0.287409217,0,0,0,0,0,0.611519992351532
0.28840813,0,0,0,0,0,0.3822000026702881
0.289409135,0,0,0,0,0,0.4586400091648102
0.290411251,0,0,0,0,0,0.8408399820327759
0.291409257,0,0,0,0,0,0.4586400091648102
0.292408614,0,0,0,0,0,0.5350799560546875
0.293408304,0,0,0,0,0,0.5350799560546875
0.29441142,0,0,0,0,0,0.5350799560546875
0.295408185,0,0,0,0,0,0.4586400091648102
0.296409653,0,0,0,0,0,0.305759996175766
0.297409066,0,0,0,0,0,0.611519992351532
0.29841046,0,0,0,0,0,0.5350799560546875
0.299408817,0,0,0,0,0,0.4586400091648102
0.300408415,0,0,0,0,0,0.5350799560546875
0.301408735,0,0,0,0,0,0.6879600286483765
0.302411518,0,0,0,0,0,0.9172800183296204
0.303409245,0,0,0,0,0,0.6879600286483765
0.304408899,0,0,0,0,0,0.8408399820327759
0.305409033,0,0,0,0,0,0.611519992351532
0.306410724,0,0,0,0,0,0.5350799560546875
0.307409155,0,0,0,0,0,0.7644000053405762
0.30840916,0,0,0,0,0,0.611519992351532
0.309408425,0,0,0,0,0,0.6879600286483765
0.310410652,0,0,0,0,0,0.8408399820327759
0.311408991,0,0,0,0,0,0.4586400091648102
0.312408829,0,0,0,0,0,0.7644000053405762
0.313408427,0,0,0,0,0,0.5350799560546875
0.314411192,0,0,0,0,0,0.305759996175766
0.315409067,0,0,0,0,0,0.5350799560546875
0.316407998,0,0,0,0,0,0.152879998087883
0.317408448,0,0,0,0,0,0.152879998087883
0.318410916,0,0,0,0,0,0.4586400091648102
0.319409162,0,0,0,0,0,0.2293200045824051
0.320408723,0,0,0,0,0,0.4586400091648102
0.321421321,0,0,0,0,0,0.611519992351532
0.322412974,0,0,0,0,0,0.7644000053405762
0.323409183,0,0,0,0,0,1.223039984703064
0.324408874,0,0,0,0,0,0.5350799560546875
0.325409064,0,0,0,0,0,0.8408399820327759
0.326425273,0,0,0,0,0,0.7644000053405762
0.327410982,0,0,0,0,0,1.070159912109375
0.328408968,0,0,0,0,0,1.070159912109375
0.329408696,0,0,0,0,0,0.8408399820327759
0.330411294,0,0,0,0,0,0.4586400091648102
0.331494798,0,0,0,0,0,0.7644000053405762
0.332417434,0,0,0,0,0,0.152879998087883
0.333409754,0,0,0,0,0,0.0764399990439415
0.334409037,0,0,0,0,0,0.2293200045824051
0.33540845,0,0,0,0,0,0
0.336408677,0,0,0,0,0,0.2293200045824051
0.337408738,0,0,0,0,0,0.3822000026702881
0.33840828,0,0,0,0,0,0.305759996175766
0.339409193,0,0,0,0,0,0.6879600286483765
0.34044129,0,0,0,0,0,0.6879600286483765
0.341409611,0,0,0,0,0,0.9937199950218201
0.342412394,0,0,0,0,0,0.8408399820327759
0.343408602,0,0,0,0,0,0.7644000053405762
0.34441046,0,0,0,0,0,0.7644000053405762
0.345403854,0,0,0,0,0,0.7644000053405762
0.346411563,0,0,0,0,0,0.2293200045824051
0.347409901,0,0,0,0,0,0.3822000026702881
0.348409721,0,0,0,0,0,0.305759996175766
0.349409393,0,0,0,0,0,0.5350799560546875
0.350409176,0,0,0,0,0,0.611519992351532
0.351409607,0,0,0,0,0,0.7644000053405762
0.352408872,0,0,0,0,0,0.7644000053405762
0.353409951,0,0,0,0,0,1.1466000080108643
0.354409327,0,0,0,0,0,0.8408399820327759
0.355409647,0,0,0,0,0,0.8408399820327759
0.356409152,0,0,0,0,0,0.6879600286483765
0.357409898,0,0,0,0,0,0.305759996175766
0.358410033,0,0,0,0,0,0.5350799560546875
0.359408353,0,0,0,0,0,0.3822000026702881
0.360408488,0,0,0,0,0,0.4586400091648102
0.361409734,0,0,0,0,0,1.070159912109375
0.362409424,0,0,0,0,0,0.9172800183296204
0.363411559,0,0,0,0,0,0.7644000053405762
0.36440999,0,0,0,0,0,0.9172800183296204
0.365410125,0,0,0,0,0,0.5350799560546875
0.366410686,0,0,0,0,0,0.2293200045824051
0.367409913,0,0,0,0,0,0.2293200045824051
0.368409789,0,0,0,0,0,0.3822000026702881
0.369409294,0,0,0,0,0,0.305759996175766
0.370409558,0,0,0,0,0,0.9172800183296204
0.371409693,0,0,0,0,0,0.9937199950218201
0.372409254,0,0,0,0,0,1.5288000106811523
0.37340913,0,0,0,0,0,0.9937199950218201
0.374408728,0,0,0,0,0,1.070159912109375
0.375409511,0,0,0,0,0,0.6879600286483765
0.376409127,0,0,0,0,0,0.0764399990439415
0.377410095,0,0,0,0,0,-0.2293200045824051
0.378409508,0,0,0,0,0,-0.305759996175766
0.379409994,0,0,0,0,0,0
0.38040974,0,0,0,0,0,0.4586400091648102
0.381409597,0,0,0,0,0,0.8408399820327759
0.382423288,0,0,0,0,0,0.9937199950218201
0.383454959,0,0,0,0,0,0.611519992351532
0.385053031,0,0,0,0,0,0
0.385412174,0,0,0,0,0,0.305759996175766
0.386440253,0,0,0,0,0,0.2293200045824051
0.387451943,0,0,0,0,0,0.305759996175766
0.388430171,0,0,0,0,0,0.7644000053405762
0.389422676,0,0,0,0,0,1.452359914779663
0.390422404,0,0,0,0,0,1.452359914779663
0.391431372,0,0,0,0,0,1.5288000106811523
0.392449469,0,0,0,0,0,1.223039984703064
0.393435734,0,0,0,0,0,0.2293200045824051
0.394438572,0,0,0,0,0,0.3822000026702881
0.395431985,0,0,0,0,0,0
0.396456601,0,0,0,0,0,0.305759996175766
0.397445866,0,0,0,0,0,0.8408399820327759
0.398445353,0,0,0,0,0,0.611519992351532
0.399444358,0,0,0,0,0,0.3822000026702881
0.400434678,0,0,0,0,0,0.3822000026702881
0.401423054,0,0,0,0,0,0.2293200045824051
0.402436892,0,0,0,0,0,0.3822000026702881
0.404138481,0,0,0,0,0,0.5350799560546875
0.404483457,0,0,0,0,0,0.8408399820327759
0.405434056,0,0,0,0,0,0.9937199950218201
0.407042886,0,0,0,0,0,0.6879600286483765
0.407538546,0,0,0,0,0,0.611519992351532
0.408470608,0,0,0,0,0,0.7644000053405762
0.409435669,0,0,0,0,0,0.2293200045824051
0.410493637,0,0,0,0,0,0.305759996175766
0.411503827,0,0,0,0,0,0.5350799560546875
0.412467185,0,0,0,0,0,0.305759996175766
0.413439413,0,0,0,0,0,0.152879998087883
0.414433881,0,0,0,0,0,0.305759996175766
0.415483774,0,0,0,0,0,0
0.416482335,0,0,0,0,0,0.305759996175766
0.417435711,0,0,0,0,0,0.305759996175766
0.418434791,0,0,0,0,0,0.8408399820327759
0.419460314,0,0,0,0,0,1.6816799640655518
0.420438357,0,0,0,0,0,1.070159912109375
0.421450195,0,0,0,0,0,1.375920057296753
0.422612661,0,0,0,0,0,1.5288000106811523
0.423501001,0,0,0,0,0,1.2994799613952637
0.424470896,0,0,0,0,0,0.4586400091648102
0.425452179,0,0,0,0,0,0.9172800183296204
0.426468758,0,0,0,0,0,0.611519992351532
0.427472022,0,0,0,0,0,0
0.428454306,0,0,0,0,0,0.4586400091648102
0.429454959,0,0,0,0,0,0.7644000053405762
0.430413835,0,0,0,0,0,0.4586400091648102
0.431418451,0,0,0,0,0,0.611519992351532
0.432411568,0,0,0,0,0,0.8408399820327759
0.433411517,0,0,0,0,0,0
0.434411504,0,0,0,0,0,0
0.435405584,0,0,0,0,0,0.3822000026702881
0.436405126,0,0,0,0,0,0
0.43740489,0,0,0,0,0,0.3822000026702881
0.43841134,0,0,0,0,0,0.7644000053405762
0.439472141,0,0,0,0,0,0.4586400091648102
0.440629125,0,0,0,0,0,0.9937199950218201
0.441491095,0,0,0,0,0,1.070159912109375
0.442472027,0,0,0,0,0,1.223039984703064
0.443397292,0,0,0,0,0,1.452359914779663
0.444393316,0,0,0,0,0,0.9172800183296204
0.445400266,0,0,0,0,0,1.375920057296753
0.446398345,0,0,0,0,0,0.611519992351532
0.447385535,0,0,0,0,0,0.6879600286483765
0.448534094,0,0,0,0,0,0.4586400091648102
0.449392638,0,0,0,0,0,0.0764399990439415
0.450423977,0,0,0,0,0,0.305759996175766
0.451802625,0,0,0,0,0,0.611519992351532
0.452404191,0,0,0,0,0,0.6879600286483765
0.453392159,0,0,0,0,0,0.305759996175766
0.454405609,0,0,0,0,0,0.5350799560546875
0.455388318,0,0,0,0,0,0
0.456380916,0,0,0,0,0,0
0.457461235,0,0,0,0,0,0.152879998087883
0.458398593,0,0,0,0,0,0.2293200045824051
0.459477078,0,0,0,0,0,0
0.460408529,0,0,0,0,0,0.8408399820327759
0.461407794,0,0,0,0,0,0.611519992351532
0.462430891,0,0,0,0,0,1.375920057296753
0.463418063,0,0,0,0,0,2.14031982421875
0.464406068,0,0,0,0,0,0.9937199950218201
0.465411592,0,0,0,0,0,1.605239987373352
0.46643019,0,0,0,0,0,1.452359914779663
0.46741301,0,0,0,0,0,0.7644000053405762
0.468418367,0,0,0,0,0,1.5288000106811523
0.469432279,0,0,0,0,0,0.5350799560546875
0.470424192,0,0,0,0,0,0.152879998087883
0.471415253,0,0,0,0,0,1.070159912109375
0.472410684,0,0,0,0,0,0.3822000026702881
0.473406671,0,0,0,0,0,0.6879600286483765
0.47443288,0,0,0,0,0,0
0.47544444,0,0,0,0,0,0
0.476413853,0,0,0,0,0,0
0.47740834,0,0,0,0,0,0
0.478415679,0,0,0,0,0,0
0.47940861,0,0,0,0,0,-0.305759996175766
0.480406745,0,0,0,0,0,0
0.481405009,0,0,0,0,0,0.7644000053405762
0.482411107,0,0,0,0,0,1.452359914779663
0.483417371,0,0,0,0,0,0.6879600286483765
0.484413469,0,0,0,0,0,1.9109998941421509
0.485430678,0,0,0,0,0,1.1466000080108643
0.486448016,0,0,0,0,0,1.1466000080108643
0.487430707,0,0,0,0,0,0.9172800183296204
0.488422546,0,0,0,0,0,0.3822000026702881
0.489429588,0,0,0,0,0,0.4586400091648102
0.490413704,0,0,0,0,0,0.5350799560546875
0.491432598,0,0,0,0,0,0.7644000053405762
0.492419085,0,0,0,0,0,0.2293200045824051
0.493416498,0,0,0,0,0,0.2293200045824051
0.494410799,0,0,0,0,0,0
0.495411934,0,0,0,0,0,-0.152879998087883
0.496404884,0,0,0,0,0,0
0.497408926,0,0,0,0,0,-0.152879998087883
0.498445394,0,0,0,0,0,0.4586400091648102
0.499408251,0,0,0,0,0,1.1466000080108643
0.500409553,0,0,0,0,0,0.9172800183296204
0.50140591,0,0,0,0,0,2.06387996673584
0.502407026,0,0,0,0,0,1.1466000080108643
0.503401847,0,0,0,0,0,1.223039984703064
0.504399907,0,0,0,0,0,0.9937199950218201
0.505396783,0,0,0,0,0,0
0.506397436,0,0,0,0,0,0.6879600286483765
0.507407701,0,0,0,0,0,0.9172800183296204
0.508422095,0,0,0,0,0,0.7644000053405762
0.509412896,0,0,0,0,0,0.611519992351532
0.510423494,0,0,0,0,0,0.305759996175766
0.511393981,0,0,0,0,0,0.3822000026702881
0.51239906,0,0,0,0,0,-0.2293200045824051
0.513445361,0,0,0,0,0,-0.4586400091648102
0.51439646,0,0,0,0,0,0.0764399990439415
0.515400094,0,0,0,0,0,0.611519992351532
0.516392785,0,0,0,0,0,0.8408399820327759
0.517442012,0,0,0,0,0,1.6816799640655518
0.518400777,0,0,0,0,0,1.5288000106811523
0.519392245,0,0,0,0,0,1.2994799613952637
0.520441935,0,0,0,0,0,0.9172800183296204
0.52138957,0,0,0,0,0,0.3822000026702881
0.522400261,0,0,0,0,0,0.6879600286483765
0.523395988,0,0,0,0,0,0.6879600286483765
0.524408234,0,0,0,0,0,0.5350799560546875
0.525399554,0,0,0,0,0,0.9937199950218201
0.526418152,0,0,0,0,0,0.3822000026702881
0.52740399,0,0,0,0,0,0
0.52841644,0,0,0,0,0,-0.305759996175766
0.529395371,0,0,0,0,0,-0.7644000053405762
0.530400617,0,0,0,0,0,0.305759996175766
0.531394919,0,0,0,0,0,0.5350799560546875
0.532395035,0,0,0,0,0,1.1466000080108643
0.53339717,0,0,0,0,0,1.5288000106811523
0.534395416,0,0,0,0,0,1.375920057296753
0.535396347,0,0,0,0,0,0.9172800183296204
0.536391593,0,0,0,0,0,0.9937199950218201
0.537404135,0,0,0,0,0,0.8408399820327759
0.538390307,0,0,0,0,0,0.4586400091648102
0.539430183,0,0,0,0,0,0.9937199950218201
0.540395373,0,0,0,0,0,0.8408399820327759
0.541389212,0,0,0,0,0,0.611519992351532
0.542394013,0,0,0,0,0,0.3822000026702881
0.543385241,0,0,0,0,0,-0.5350799560546875
0.544236322,0,0,0,0,0,0.7644000053405762
0.545232457,0,0,0,0,0,0.152879998087883
0.546238888,0,0,0,0,0,0.611519992351532
0.547235486,0,0,0,0,0,1.1466000080108643
0.54823701,0,0,0,0,0,1.223039984703064
0.549238071,0,0,0,0,0,0.8408399820327759
0.550261687,0,0,0,0,0,0.9172800183296204
0.55131445,0,0,0,0,0,0.7644000053405762
0.552286678,0,0,0,0,0,0.5350799560546875
0.553303331,0,0,0,0,0,0.4586400091648102
0.554304818,0,0,0,0,0,1.1466000080108643
0.555299435,0,0,0,0,0,0.6879600286483765
0.556274088,0,0,0,0,0,0.305759996175766
0.557255409,0,0,0,0,0,0.2293200045824051
0.558270562,0,0,0,0,0,0.5350799560546875
0.559355751,0,0,0,0,0,0.152879998087883
0.560288424,0,0,0,0,0,0.152879998087883
0.561306392,0,0,0,0,0,0.6879600286483765
0.562346304,0,0,0,0,0,0.611519992351532
0.563282366,0,0,0,0,0,0.2293200045824051
0.564324778,0,0,0,0,0,0.611519992351532
0.565323098,0,0,0,0,0,0.7644000053405762
0.566272159,0,0,0,0,0,0.305759996175766
0.567289886,0,0,0,0,0,0.152879998087883
0.568276762,0,0,0,0,0,0.2293200045824051
0.569293989,0,0,0,0,0,0.5350799560546875
0.570290532,0,0,0,0,0,0.3822000026702881
0.571327425,0,0,0,0,0,1.223039984703064
0.572269079,0,0,0,0,0,0.9937199950218201
0.573237511,0,0,0,0,0,0.9172800183296204
0.574247979,0,0,0,0,0,1.6816799640655518
0.575243058,0,0,0,0,0,1.070159912109375
0.576300674,0,0,0,0,0,0.4586400091648102
0.577254958,0,0,0,0,0,0.8408399820327759
0.578232204,0,0,0,0,0,0.611519992351532
0.579225524,0,0,0,0,0,-0.152879998087883
0.58022577,0,0,0,0,0,0.5350799560546875
0.581224886,0,0,0,0,0,0.9172800183296204
0.582230114,0,0,0,0,0,-0.152879998087883
0.583226489,0,0,0,0,0,0.611519992351532
0.584225735,0,0,0,0,0,1.375920057296753
0.585225278,0,0,0,0,0,0.3822000026702881
0.58622619,0,0,0,0,0,1.1466000080108643
0.587225788,0,0,0,0,0,1.605239987373352
0.588224941,0,0,0,0,0,0
0.589225299,0,0,0,0,0,0
0.590227804,0,0,0,0,0,1.2994799613952637
0.591225976,0,0,0,0,0,0
0.59222711,0,0,0,0,0,0
0.593225393,0,0,0,0,0,1.375920057296753
0.594227806,0,0,0,0,0,0.152879998087883
0.595227978,0,0,0,0,0,0
0.596226039,0,0,0,0,0,1.8345600366592407
0.597225044,0,0,0,0,0,0.7644000053405762
0.598238568,0,0,0,0,0,0.305759996175766
0.599234499,0,0,0,0,0,2.06387996673584
0.600251596,0,0,0,0,0,0.0764399990439415
0.60148671,0,0,0,0,0,0.152879998087883
0.602306939,0,0,0,0,0,1.1466000080108643
0.60328326,0,0,0,0,0,-0.9937199950218201
0.604248784,0,0,0,0,0,0.0764399990439415
0.605306437,0,0,0,0,0,1.6816799640655518
0.607078117,0,0,0,0,0,0.0764399990439415
0.607257096,0,0,0,0,0,0.3822000026702881
0.608227972,0,0,0,0,0,2.446079969406128
0.609222773,0,0,0,0,0,0.6879600286483765
0.610224501,0,0,0,0,0,1.6816799640655518
0.611222506,0,0,0,0,0,1.375920057296753
0.612222437,0,0,0,0,0,-1.1466000080108643
0.613222128,0,0,0,0,0,0.8408399820327759
0.614230837,0,0,0,0,0,0.4586400091648102
0.615222175,0,0,0,0,0,-0.7644000053405762
0.616222477,0,0,0,0,0,1.6816799640655518
0.61722213,0,0,0,0,0,1.375920057296753
0.618222783,0,0,0,0,0,0
0.619222789,0,0,0,0,0,1.8345600366592407
0.620222238,0,0,0,0,0,1.452359914779663
0.621222114,0,0,0,0,0,0.152879998087883
0.622223323,0,0,0,0,0,1.375920057296753
0.623222365,0,0,0,0,0,-0.6879600286483765
0.624222407,0,0,0,0,0,-0.4586400091648102
0.625222339,0,0,0,0,0,0.7644000053405762
0.626235233,0,0,0,0,0,0
0.627223608,0,0,0,0,0,0.9937199950218201
0.628222428,0,0,0,0,0,1.2994799613952637
0.6292221,0,0,0,0,0,0.8408399820327759
0.630294493,0,0,0,0,0,1.605239987373352
0.631223481,0,0,0,0,0,1.223039984703064
0.632222375,0,0,0,0,0,1.223039984703064
0.633221862,0,0,0,0,0,0.6879600286483765
0.634223941,0,0,0,0,0,-0.4586400091648102
0.635228632,0,0,0,0,0,0.152879998087883
0.636222766,0,0,0,0,0,-0.2293200045824051
0.637222216,0,0,0,0,0,0
0.638223073,0,0,0,0,0,0.7644000053405762
0.639222708,0,0,0,0,0,0
0.640222343,0,0,0,0,0,1.375920057296753
0.6412222,0,0,0,0,0,1.5288000106811523
0.642222779,0,0,0,0,0,0.5350799560546875
0.643222525,0,0,0,0,0,2.3696401119232178
0.644222234,0,0,0,0,0,-9.402119636535645
0.645222425,0,0,0,0,0,0.2293200045824051
0.646222708,0,0,0,0,0,0.152879998087883
0.647222194,0,0,0,0,0,-1.223039984703064
0.648222144,0,0,0,0,0,1.375920057296753
0.649222353,0,0,0,0,0,0.5350799560546875
0.650223043,0,0,0,0,0,0.2293200045824051
0.651222308,0,0,0,0,0,2.828279972076416
0.652222332,0,0,0,0,0,0.7644000053405762
0.653222429,0,0,0,0,0,1.8345600366592407
0.654226805,0,0,0,0,0,1.2994799613952637
0.655224977,0,0,0,0,0,-0.9172800183296204
0.656225093,0,0,0,0,0,0.4586400091648102
0.657225376,0,0,0,0,0,-1.9109998941421509
0.658226567,0,0,0,0,0,0.0764399990439415
0.659224924,0,0,0,0,0,0.0764399990439415
0.660225447,0,0,0,0,0,0
0.661225231,0,0,0,0,0,2.5989599227905273
0.662226199,0,0,0,0,0,1.1466000080108643
0.663225148,0,0,0,0,0,1.8345600366592407
0.664224987,0,0,0,0,0,1.6816799640655518
0.665225307,0,0,0,0,0,-0.7644000053405762
0.666224571,0,0,0,0,0,0.9937199950218201
0.66722241,0,0,0,0,0,-1.9109998941421509
0.668222471,0,0,0,0,0,1.375920057296753
0.66922255,0,0,0,0,0,0.0764399990439415
0.670225426,0,0,0,0,0,0.4586400091648102
0.671224857,0,0,0,0,0,3.516240119934082
0.672224732,0,0,0,0,0,0.9172800183296204
0.673224886,0,0,0,0,0,2.6754000186920166
0.674225798,0,0,0,0,0,1.375920057296753
0.675224674,0,0,0,0,0,-0.305759996175766
0.676224383,0,0,0,0,0,0.4586400091648102
0.67722487,0,0,0,0,0,-1.758120059967041
0.678225764,0,0,0,0,0,0.0764399990439415
0.679224991,0,0,0,0,0,-0.611519992351532
0.6802242,0,0,0,0,0,1.452359914779663
0.681224946,0,0,0,0,0,1.9109998941421509
0.682225581,0,0,0,0,0,0.9937199950218201
0.68322492,0,0,0,0,0,2.904719829559326
0.684224795,0,0,0,0,0,0.6879600286483765
0.685224578,0,0,0,0,0,0
0.686225713,0,0,0,0,0,0
0.687224848,0,0,0,0,0,-0.5350799560546875
0.688224705,0,0,0,0,0,0.9172800183296204
0.689226173,0,0,0,0,0,0.0764399990439415
0.690256863,0,0,0,0,0,3.210479974746704
0.691251109,0,0,0,0,0,2.06387996673584
0.69222543,0,0,0,0,0,2.446079969406128
0.693224787,0,0,0,0,0,2.06387996673584
0.694230718,0,0,0,0,0,-0.611519992351532
0.695224964,0,0,0,0,0,0.2293200045824051
0.696224636,0,0,0,0,0,-1.452359914779663
0.697224474,0,0,0,0,0,-0.152879998087883
0.698225517,0,0,0,0,0,0
0.699224855,0,0,0,0,0,0.2293200045824051
0.700224916,0,0,0,0,0,2.446079969406128
0.701224347,0,0,0,0,0,1.605239987373352
0.702225352,0,0,0,0,0,2.828279972076416
0.703224765,0,0,0,0,0,0.611519992351532
0.704224752,0,0,0,0,0,0.3822000026702881
0.705225757,0,0,0,0,0,0
0.70622691,0,0,0,0,0,-0.7644000053405762
0.707226082,0,0,0,0,0,1.070159912109375
0.708233106,0,0,0,0,0,-0.2293200045824051
0.709224926,0,0,0,0,0,2.2167599201202393
0.71022632,0,0,0,0,0,2.3696401119232178
0.711224992,0,0,0,0,0,1.605239987373352
0.712224923,0,0,0,0,0,2.9811599254608154
0.713224817,0,0,0,0,0,-0.152879998087883
0.714225711,0,0,0,0,0,0.4586400091648102
0.71522468,0,0,0,0,0,-1.223039984703064
0.716224796,0,0,0,0,0,-0.6879600286483765
0.71722469,0,0,0,0,0,-0.2293200045824051
0.718226047,0,0,0,0,0,-0.3822000026702881
0.719224682,0,0,0,0,0,2.2167599201202393
0.720224854,0,0,0,0,0,1.223039984703064
0.721224785,0,0,0,0,0,2.446079969406128
0.722225883,0,0,0,0,0,1.9109998941421509
0.723224666,0,0,0,0,0,-0.152879998087883
0.724224856,0,0,0,0,0,0
0.725224824,0,0,0,0,0,-0.7644000053405762
0.726234774,0,0,0,0,0,1.223039984703064
0.727225613,0,0,0,0,0,-0.152879998087883
0.728224988,0,0,0,0,0,1.9109998941421509
0.729243493,0,0,0,0,0,2.5989599227905273
0.730226591,0,0,0,0,0,1.5288000106811523
0.731225022,0,0,0,0,0,3.516240119934082
0.732224824,0,0,0,0,0,1.070159912109375
0.733224922,0,0,0,0,0,0.5350799560546875
0.734225927,0,0,0,0,0,0.152879998087883
0.73522471,0,0,0,0,0,-1.070159912109375
0.736224808,0,0,0,0,0,0
0.737227609,0,0,0,0,0,-0.4586400091648102
0.738225985,0,0,0,0,0,1.758120059967041
0.739224861,0,0,0,0,0,0.9937199950218201
0.740224699,0,0,0,0,0,2.3696401119232178
0.74122426,0,0,0,0,0,2.522519826889038
0.742225673,0,0,0,0,0,0.0764399990439415
0.743224715,0,0,0,0,0,1.223039984703064
0.74422459,0,0,0,0,0,-0.0764399990439415
0.745224577,0,0,0,0,0,-0.305759996175766
0.74622599,0,0,0,0,0,-0.5350799560546875
0.747231588,0,0,0,0,0,0.9937199950218201
0.748225537,0,0,0,0,0,1.6816799640655518
0.74922482,0,0,0,0,0,1.070159912109375
0.750225714,0,0,0,0,0,3.516240119934082
0.751224831,0,0,0,0,0,1.452359914779663
0.752224929,0,0,0,0,0,0.7644000053405762
0.753224786,0,0,0,0,0,0.6879600286483765
0.754225532,0,0,0,0,0,-0.611519992351532
0.755224815,0,0,0,0,0,0.5350799560546875
0.756224672,0,0,0,0,0,-0.8408399820327759
0.757224918,0,0,0,0,0,0.6879600286483765
0.758225682,0,0,0,0,0,1.2994799613952637
0.759224817,0,0,0,0,0,2.06387996673584
0.760224859,0,0,0,0,0,2.6754000186920166
0.761224716,0,0,0,0,0,0.305759996175766
0.762225777,0,0,0,0,0,0.9937199950218201
0.763224338,0,0,0,0,0,-0.4586400091648102
0.764227732,0,0,0,0,0,-0.305759996175766
0.765225663,0,0,0,0,0,-0.3822000026702881
0.766224631,0,0,0,0,0,-0.3822000026702881
0.76722497,0,0,0,0,0,2.2167599201202393
0.768224642,0,0,0,0,0,0.9937199950218201
0.769224795,0,0,0,0,0,2.522519826889038
0.770224856,0,0,0,0,0,1.8345600366592407
0.771224713,0,0,0,0,0,0.611519992351532
0.772224755,0,0,0,0,0,1.452359914779663
0.773224798,0,0,0,0,0,-0.6879600286483765
0.77422497,0,0,0,0,0,0.6879600286483765
0.775224808,0,0,0,0,0,-0.8408399820327759
0.776224739,0,0,0,0,0,0.5350799560546875
0.777224782,0,0,0,0,0,1.6816799640655518
0.778224713,0,0,0,0,0,0.3822000026702881
0.779225014,0,0,0,0,0,3.134040117263794
0.780224649,0,0,0,0,0,1.5288000106811523
0.781224821,0,0,0,0,0,1.375920057296753
0.782225863,0,0,0,0,0,-0.3822000026702881
0.783224943,0,0,0,0,0,-0.152879998087883
0.784224503,0,0,0,0,0,0
0.785224805,0,0,0,0,0,-0.305759996175766
0.786225829,0,0,0,0,0,1.8345600366592407
0.787232574,0,0,0,0,0,0.3822000026702881
0.788231228,0,0,0,0,0,2.522519826889038
0.789225178,0,0,0,0,0,2.446079969406128
0.790225942,0,0,0,0,0,0.305759996175766
0.791224781,0,0,0,0,0,1.9874399900436401
0.792224953,0,0,0,0,0,0
0.79323468,0,0,0,0,0,0.7644000053405762
0.7942265,0,0,0,0,0,-0.4586400091648102
0.79522469,0,0,0,0,0,0.7644000053405762
0.79622464,0,0,0,0,0,1.5288000106811523
0.797224849,0,0,0,0,0,0.611519992351532
0.798225669,0,0,0,0,0,2.5989599227905273
0.799224952,0,0,0,0,0,1.223039984703064
0.800224902,0,0,0,0,0,0
0.801224629,0,0,0,0,0,0.611519992351532
0.802225727,0,0,0,0,0,-0.611519992351532
0.803224695,0,0,0,0,0,0.4586400091648102
0.804224923,0,0,0,0,0,-0.4586400091648102
0.805224613,0,0,0,0,0,1.8345600366592407
0.806225433,0,0,0,0,0,1.223039984703064
0.807224735,0,0,0,0,0,1.452359914779663
0.808224777,0,0,0,0,0,2.522519826889038
0.809224208,0,0,0,0,0,0
0.810225139,0,0,0,0,0,1.758120059967041
0.81122507,0,0,0,0,0,0
0.812224742,0,0,0,0,0,0.2293200045824051
0.813224785,0,0,0,0,0,0.9937199950218201
0.814225901,0,0,0,0,0,-0.152879998087883
0.815224739,0,0,0,0,0,1.9109998941421509
0.816224893,0,0,0,0,0,0.7644000053405762
0.817225102,0,0,0,0,0,3.0576000213623047
0.818225403,0,0,0,0,0,1.5288000106811523
0.81922489,0,0,0,0,0,0
0.820224747,0,0,0,0,0,1.223039984703064
0.821224641,0,0,0,0,0,-0.5350799560546875
0.822225591,0,0,0,0,0,0.0764399990439415
0.823224652,0,0,0,0,0,-0.5350799560546875
0.824224694,0,0,0,0,0,0.9937199950218201
0.825224607,0,0,0,0,0,1.5288000106811523
0.826233371,0,0,0,0,0,0.611519992351532
0.82722558,0,0,0,0,0,2.446079969406128
0.828225141,0,0,0,0,0,-0.2293200045824051
0.829224887,0,0,0,0,0,0.9937199950218201
0.830225948,0,0,0,0,0,-0.152879998087883
0.831224471,0,0,0,0,0,-0.305759996175766
0.832224865,0,0,0,0,0,1.070159912109375
0.833224871,0,0,0,0,0,-0.4586400091648102
0.834225654,0,0,0,0,0,2.2932000160217285
0.83522464,0,0,0,0,0,0.9937199950218201
0.836224664,0,0,0,0,0,2.14031982421875
0.837224725,0,0,0,0,0,2.751840114593506
0.838225786,0,0,0,0,0,0
0.83922468,0,0,0,0,0,1.6816799640655518
0.840224704,0,0,0,0,0,-0.2293200045824051
0.84122469,0,0,0,0,0,0.305759996175766
0.842225825,0,0,0,0,0,0.0764399990439415
0.843224775,0,0,0,0,0,1.223039984703064
0.844224762,0,0,0,0,0,1.9874399900436401
0.845223415,0,0,0,0,0,0.9172800183296204
0.846225679,0,0,0,0,0,2.751840114593506
0.84722487,0,0,0,0,0,0.152879998087883
0.848224653,0,0,0,0,0,-0.5350799560546875
0.849224528,0,0,0,0,0,-9.478560447692871
0.850225626,0,0,0,0,0,-0.9937199950218201
0.851224502,0,0,0,0,0,0.9937199950218201
0.852224266,0,0,0,0,0,0.0764399990439415
0.853224401,0,0,0,0,0,2.2932000160217285
0.854225703,0,0,0,0,0,1.452359914779663
0.855224615,0,0,0,0,0,1.8345600366592407
0.856224639,0,0,0,0,0,2.446079969406128
0.857231626,0,0,0,0,0,0.0764399990439415
0.858225946,0,0,0,0,0,1.070159912109375
0.859224581,0,0,0,0,0,0
0.860224641,0,0,0,0,0,0.3822000026702881
0.861224702,0,0,0,0,0,0.7644000053405762
0.86222567,0,0,0,0,0,1.223039984703064
0.863224713,0,0,0,0,0,2.904719829559326
0.864224625,0,0,0,0,0,1.375920057296753
0.86522489,0,0,0,0,0,3.2869198322296143
0.866225969,0,0,0,0,0,0.9937199950218201
0.867224678,0,0,0,0,0,-0.2293200045824051
0.868224794,0,0,0,0,0,0.7644000053405762
0.869224763,0,0,0,0,0,-1.070159912109375
0.870225638,0,0,0,0,0,0.7644000053405762
0.871224329,0,0,0,0,0,0.3822000026702881
0.872224797,0,0,0,0,0,0.8408399820327759
0.873224598,0,0,0,0,0,2.14031982421875
0.874225289,0,0,0,0,0,0.7644000053405762
0.87522509,0,0,0,0,0,2.5989599227905273
0.876224762,0,0,0,0,0,0.5350799560546875
0.877225027,0,0,0,0,0,-0.305759996175766
0.878225476,0,0,0,0,0,0.9937199950218201
0.879224796,0,0,0,0,0,-0.7644000053405762
0.880224616,0,0,0,0,0,1.452359914779663
0.881224714,0,0,0,0,0,1.5288000106811523
0.882225627,0,0,0,0,0,0.9172800183296204
0.883224854,0,0,0,0,0,2.9811599254608154
0.884224656,0,0,0,0,0,1.223039984703064
0.885224939,0,0,0,0,0,2.9811599254608154
0.886225777,0,0,0,0,0,0.305759996175766
0.887224764,0,0,0,0,0,0.152879998087883
0.888224714,0,0,0,0,0,1.6816799640655518
0.889224775,0,0,0,0,0,-0.7644000053405762
0.890225965,0,0,0,0,0,1.452359914779663
0.891224804,0,0,0,0,0,1.223039984703064
0.892224309,0,0,0,0,0,0.4586400091648102
0.893224666,0,0,0,0,0,2.9811599254608154
0.894225856,0,0,0,0,0,0.5350799560546875
0.895224602,0,0,0,0,0,2.446079969406128
0.896224607,0,0,0,0,0,0.9172800183296204
0.897224798,0,0,0,0,0,-0.9937199950218201
0.898224822,0,0,0,0,0,1.1466000080108643
0.899224864,0,0,0,0,0,-0.611519992351532
0.900224665,0,0,0,0,0,-0.2293200045824051
0.901224763,0,0,0,0,0,1.8345600366592407
0.902224768,0,0,0,0,0,-0.2293200045824051
0.903224626,0,0,0,0,0,1.9874399900436401
0.904224779,0,0,0,0,0,2.2932000160217285
0.905224692,0,0,0,0,0,1.452359914779663
0.906225789,0,0,0,0,0,3.134040117263794
0.907224554,0,0,0,0,0,0.5350799560546875
0.90822467,0,0,0,0,0,0.9172800183296204
0.90922475,0,0,0,0,0,0.6879600286483765
0.910225681,0,0,0,0,0,-0.4586400091648102
0.911224686,0,0,0,0,0,0.3822000026702881
0.912224562,0,0,0,0,0,0.9172800183296204
0.913225067,0,0,0,0,0,0.6879600286483765
0.914225183,0,0,0,0,0,2.14031982421875
0.915224836,0,0,0,0,0,1.452359914779663
0.916224619,0,0,0,0,0,2.14031982421875
0.917224347,0,0,0,0,0,2.2932000160217285
0.918225278,0,0,0,0,0,0.7644000053405762
0.919224913,0,0,0,0,0,0.2293200045824051
0.920224751,0,0,0,0,0,0.2293200045824051
0.921230701,0,0,0,0,0,0
0.922226095,0,0,0,0,0,0.2293200045824051
0.923225008,0,0,0,0,0,0.8408399820327759
0.924224772,0,0,0,0,0,1.375920057296753
0.925224518,0,0,0,0,0,1.605239987373352
0.926231486,0,0,0,0,0,1.8345600366592407
0.927225381,0,0,0,0,0,1.6816799640655518
0.928225016,0,0,0,0,0,1.605239987373352
0.929225002,0,0,0,0,0,0.9937199950218201
0.930225989,0,0,0,0,0,0.611519992351532
0.931224735,0,0,0,0,0,0.7644000053405762
0.932224611,0,0,0,0,0,0.7644000053405762
0.933224819,0,0,0,0,0,0.611519992351532
0.934225806,0,0,0,0,0,0.9172800183296204
0.935224793,0,0,0,0,0,1.375920057296753
0.936224835,0,0,0,0,0,0.5350799560546875
0.937224822,0,0,0,0,0,1.452359914779663
0.938225568,0,0,0,0,0,1.9109998941421509
0.939224258,0,0,0,0,0,1.1466000080108643
0.940225041,0,0,0,0,0,1.6816799640655518
0.941257435,0,0,0,0,0,1.5288000106811523
0.942246514,0,0,0,0,0,0.0764399990439415
0.943225964,0,0,0,0,0,1.070159912109375
0.944224784,0,0,0,0,0,1.223039984703064
0.945224808,0,0,0,0,0,0
0.946228369,0,0,0,0,0,1.223039984703064
0.947224893,0,0,0,0,0,1.9874399900436401
0.948224602,0,0,0,0,0,0.611519992351532
0.949224607,0,0,0,0,0,1.8345600366592407
0.950225575,0,0,0,0,0,1.8345600366592407
0.951224784,0,0,0,0,0,0.611519992351532
0.952224789,0,0,0,0,0,2.446079969406128
0.953224739,0,0,0,0,0,0.8408399820327759
0.954225818,0,0,0,0,0,0
0.955224657,0,0,0,0,0,1.2994799613952637
0.956224977,0,0,0,0,0,0.6879600286483765
0.957224778,0,0,0,0,0,0.0764399990439415
0.958225598,0,0,0,0,0,1.223039984703064
0.959224715,0,0,0,0,0,1.070159912109375
0.960224294,0,0,0,0,0,0
0.961224373,0,0,0,0,0,0.8408399820327759
0.962225934,0,0,0,0,0,1.6816799640655518
0.963224773,0,0,0,0,0,1.375920057296753
0.964224852,0,0,0,0,0,1.605239987373352
0.965228079,0,0,0,0,0,1.9109998941421509
0.966225622,0,0,0,0,0,0.8408399820327759
0.967224905,0,0,0,0,0,0.9172800183296204
0.968224706,0,0,0,0,0,0.9172800183296204
0.969224748,0,0,0,0,0,0.5350799560546875
0.970224976,0,0,0,0,0,0.5350799560546875
0.971224685,0,0,0,0,0,1.1466000080108643
0.97222469,0,0,0,0,0,1.070159912109375
0.973224714,0,0,0,0,0,0.152879998087883
0.974224978,0,0,0,0,0,0.9172800183296204
0.975224761,0,0,0,0,0,1.1466000080108643
0.976224804,0,0,0,0,0,0.9172800183296204
0.977224698,0,0,0,0,0,1.6816799640655518
0.978224703,0,0,0,0,0,1.8345600366592407
0.979224356,0,0,0,0,0,0.9172800183296204
0.98022488,0,0,0,0,0,1.070159912109375
0.981224867,0,0,0,0,0,1.1466000080108643
0.982224428,0,0,0,0,0,0.8408399820327759
0.983224581,0,0,0,0,0,0.611519992351532
0.984224679,0,0,0,0,0,1.1466000080108643
0.985232962,0,0,0,0,0,0.9937199950218201
0.986225708,0,0,0,0,0,0.152879998087883
0.987224676,0,0,0,0,0,0.2293200045824051
0.988224848,0,0,0,0,0,1.5288000106811523
0.989224779,0,0,0,0,0,0.9937199950218201
0.990225877,0,0,0,0,0,1.223039984703064
0.991224697,0,0,0,0,0,2.3696401119232178
0.992224795,0,0,0,0,0,1.6816799640655518
0.99322467,0,0,0,0,0,1.605239987373352
0.994233768,0,0,0,0,0,1.223039984703064
0.995300865,0,0,0,0,0,0.7644000053405762
0.99628913,0,0,0,0,0,1.375920057296753
0.99726195,0,0,0,0,0,0.7644000053405762
0.998294344,0,0,0,0,0,1.070159912109375
0.999283256,0,0,0,0,0,0.9937199950218201
1.000341409,0,0,0,0,0,0.3822000026702881
1.001263286,0,0,0,0,0,0.4586400091648102
1.002272717,0,0,0,0,0,0.9172800183296204
1.003253778,0,0,0,0,0,0.8408399820327759
1.004253264,0,0,0,0,0,0.7644000053405762
1.00527938,0,0,0,0,0,2.2167599201202393
1.006289774,0,0,0,0,0,1.9109998941421509
1.007279372,0,0,0,0,0,2.06387996673584
1.008278415,0,0,0,0,0,1.1466000080108643
1.009286235,0,0,0,0,0,1.070159912109375
1.010322017,0,0,0,0,0,1.070159912109375
1.011301949,0,0,0,0,0,0.8408399820327759
1.012284658,0,0,0,0,0,1.223039984703064
1.013260478,0,0,0,0,0,1.223039984703064
1.014240706,0,0,0,0,0,0.3822000026702881
1.015246396,0,0,0,0,0,0.3822000026702881
1.016267642,0,0,0,0,0,-0.152879998087883
1.017236814,0,0,0,0,0,0.152879998087883
1.018247671,0,0,0,0,0,0.9937199950218201
1.019256102,0,0,0,0,0,0.8408399820327759
1.020340365,0,0,0,0,0,2.2932000160217285
1.021282927,0,0,0,0,0,1.758120059967041
1.022234007,0,0,0,0,0,2.3696401119232178
1.023236845,0,0,0,0,0,1.452359914779663
1.024230647,0,0,0,0,0,0.9937199950218201
1.025321077,0,0,0,0,0,1.1466000080108643
1.026248287,0,0,0,0,0,1.1466000080108643
1.027231144,0,0,0,0,0,0.9172800183296204
1.028227798,0,0,0,0,0,1.223039984703064
1.029228414,0,0,0,0,0,1.2994799613952637
1.030233919,0,0,0,0,0,0.5350799560546875
1.031229554,0,0,0,0,0,0.305759996175766
1.032229874,0,0,0,0,0,0
1.033230972,0,0,0,0,0,0.2293200045824051
1.034234347,0,0,0,0,0,1.375920057296753
1.03522739,0,0,0,0,0,1.223039984703064
1.036226228,0,0,0,0,0,2.14031982421875
1.037226752,0,0,0,0,0,1.9109998941421509
1.038441495,0,0,0,0,0,1.8345600366592407
1.039285021,0,0,0,0,0,1.223039984703064
1.040252249,0,0,0,0,0,0.9172800183296204
1.041253717,0,0,0,0,0,0.7644000053405762
1.042280592,0,0,0,0,0,0.9937199950218201
1.043308264,0,0,0,0,0,1.452359914779663
1.044278288,0,0,0,0,0,1.070159912109375
1.04528333,0,0,0,0,0,1.223039984703064
1.046294835,0,0,0,0,0,0.611519992351532
1.047333155,0,0,0,0,0,0
1.048290587,0,0,0,0,0,0
1.0492655,0,0,0,0,0,0
1.050271394,0,0,0,0,0,0
1.051288491,0,0,0,0,0,1.605239987373352
1.052261182,0,0,0,0,0,1.223039984703064
1.053264576,0,0,0,0,0,1.9109998941421509
1.054269655,0,0,0,0,0,1.9109998941421509
1.055253883,0,0,0,0,0,1.5288000106811523
1.056271462,0,0,0,0,0,2.06387996673584
1.057269245,0,0,0,0,0,0.9937199950218201
1.058286898,0,0,0,0,0,1.452359914779663
1.059257441,0,0,0,0,0,1.223039984703064
1.060276742,0,0,0,0,0,1.070159912109375
1.06125847,0,0,0,0,0,1.605239987373352
1.062261253,0,0,0,0,0,0.4586400091648102
1.063263406,0,0,0,0,0,0.9172800183296204
1.064250597,0,0,0,0,0,0.6879600286483765
1.06525875,0,0,0,0,0,0
1.066294736,0,0,0,0,0,0.152879998087883
1.06729763,0,0,0,0,0,0.0764399990439415
1.068251377,0,0,0,0,0,0.7644000053405762
1.069229197,0,0,0,0,0,1.2994799613952637
1.070224573,0,0,0,0,0,1.6816799640655518
1.071223023,0,0,0,0,0,1.223039984703064
1.072224472,0,0,0,0,0,-37.532039642333984
1.073222348,0,0,0,0,0,0
1.074226353,0,0,0,0,0,1.223039984703064
1.075222469,0,0,0,0,0,1.8345600366592407
1.076223141,0,0,0,0,0,1.452359914779663
1.077223221,0,0,0,0,0,0.6879600286483765
1.078223744,0,0,0,0,0,1.452359914779663
1.0792229899999999,0,0,0,0,0,1.070159912109375
1.080222588,0,0,0,0,0,1.605239987373352
1.081238315,0,0,0,0,0,0.9937199950218201
1.0822239869999999,0,0,0,0,0,0.152879998087883
1.083223048,0,0,0,0,0,0.8408399820327759
1.084223776,0,0,0,0,0,0.2293200045824051
1.085222707,0,0,0,0,0,0.611519992351532
1.086227157,0,0,0,0,0,0.5350799560546875
1.087228069,0,0,0,0,0,0.7644000053405762
1.088241259,0,0,0,0,0,1.223039984703064
1.08922658,0,0,0,0,0,1.375920057296753
1.090225159,0,0,0,0,0,2.06387996673584
1.091225572,0,0,0,0,0,1.452359914779663
1.092225466,0,0,0,0,0,1.223039984703064
1.09322536,0,0,0,0,0,1.8345600366592407
1.09422418,0,0,0,0,0,1.375920057296753
1.0952225740000001,0,0,0,0,0,0.9937199950218201
1.096222431,0,0,0,0,0,1.375920057296753
1.097222714,0,0,0,0,0,0.9172800183296204
1.09822596,0,0,0,0,0,0.7644000053405762
1.099225336,0,0,0,0,0,0.7644000053405762
1.100225156,0,0,0,0,0,1.452359914779663
1.101225272,0,0,0,0,0,0.9937199950218201
1.102225314,0,0,0,0,0,0.5350799560546875
1.103225264,0,0,0,0,0,0.3822000026702881
1.104225288,0,0,0,0,0,0.4586400091648102
1.105225386,0,0,0,0,0,0.5350799560546875
1.1062239090000001,0,0,0,0,0,0.7644000053405762
1.107222526,0,0,0,0,0,0.4586400091648102
1.108222179,0,0,0,0,0,1.452359914779663
1.109222536,0,0,0,0,0,1.223039984703064
1.110225949,0,0,0,0,0,1.070159912109375
1.11122538,0,0,0,0,0,1.758120059967041
1.112225033,0,0,0,0,0,1.223039984703064
1.113225613,0,0,0,0,0,1.6816799640655518
1.114223877,0,0,0,0,0,1.605239987373352
1.115222493,0,0,0,0,0,1.070159912109375
1.11622261,0,0,0,0,0,1.1466000080108643
1.117222652,0,0,0,0,0,1.223039984703064
1.118233713,0,0,0,0,0,0.9937199950218201
1.1192232,0,0,0,0,0,1.1466000080108643
1.120222705,0,0,0,0,0,0.9937199950218201
1.121222395,0,0,0,0,0,0.9172800183296204
1.12222303,0,0,0,0,0,0.9172800183296204
1.123222757,0,0,0,0,0,1.070159912109375
1.124222337,0,0,0,0,0,1.223039984703064
1.1252222490000001,0,0,0,0,0,1.223039984703064
1.126229551,0,0,0,0,0,0.9937199950218201
1.127223278,0,0,0,0,0,1.2994799613952637
1.128222413,0,0,0,0,0,0.5350799560546875
1.129222307,0,0,0,0,0,1.1466000080108643
1.130222739,0,0,0,0,0,0.9937199950218201
1.131222651,0,0,0,0,0,1.223039984703064
1.132222342,0,0,0,0,0,1.2994799613952637
1.133221754,0,0,0,0,0,1.070159912109375
1.134225278,0,0,0,0,0,1.2994799613952637
1.135225042,0,0,0,0,0,0.6879600286483765
1.136224696,0,0,0,0,0,0.611519992351532
1.137225071,0,0,0,0,0,0.6879600286483765
1.138226021,0,0,0,0,0,1.375920057296753
1.139224711,0,0,0,0,0,0.9172800183296204
1.14022468,0,0,0,0,0,1.375920057296753
1.141224926,0,0,0,0,0,1.5288000106811523
1.14222556,0,0,0,0,0,0.9937199950218201
1.143224899,0,0,0,0,0,0.9937199950218201
1.144224608,0,0,0,0,0,1.1466000080108643
1.145224558,0,0,0,0,0,1.070159912109375
1.146225544,0,0,0,0,0,1.5288000106811523
1.147224827,0,0,0,0,0,1.2994799613952637
1.148224629,0,0,0,0,0,0.9172800183296204
1.1492247820000001,0,0,0,0,0,0.9172800183296204
1.150225806,0,0,0,0,0,0.3822000026702881
1.151224867,0,0,0,0,0,0.2293200045824051
1.152224465,0,0,0,0,0,1.070159912109375
1.153224785,0,0,0,0,0,1.1466000080108643
1.154225568,0,0,0,0,0,1.223039984703064
1.155224369,0,0,0,0,0,1.6816799640655518
1.156224782,0,0,0,0,0,1.2994799613952637
1.157224694,0,0,0,0,0,0.9172800183296204
1.158225737,0,0,0,0,0,0.3822000026702881
1.15922489,0,0,0,0,0,0.611519992351532
1.160224581,0,0,0,0,0,1.070159912109375
1.161224641,0,0,0,0,0,1.223039984703064
1.162225647,0,0,0,0,0,1.223039984703064
1.163224522,0,0,0,0,0,1.5288000106811523
1.164224694,0,0,0,0,0,1.1466000080108643
1.165228236,0,0,0,0,0,0.6879600286483765
1.16622526,0,0,0,0,0,0.5350799560546875
1.167225339,0,0,0,0,0,0.3822000026702881
1.168225011,0,0,0,0,0,0.8408399820327759
1.169225276,0,0,0,0,0,1.452359914779663
1.170223929,0,0,0,0,0,1.758120059967041
1.171222508,0,0,0,0,0,2.06387996673584
1.172222588,0,0,0,0,0,0.9937199950218201
1.173222186,0,0,0,0,0,1.070159912109375
1.174225413,0,0,0,0,0,0.9172800183296204
1.175224974,0,0,0,0,0,0.3822000026702881
1.176224275,0,0,0,0,0,1.070159912109375
1.177224558,0,0,0,0,0,1.070159912109375
1.178225045,0,0,0,0,0,1.223039984703064
1.179224717,0,0,0,0,0,1.375920057296753
1.180224815,0,0,0,0,0,1.223039984703064
1.181224672,0,0,0,0,0,0.8408399820327759
1.182225881,0,0,0,0,0,1.2994799613952637
1.183224812,0,0,0,0,0,0.6879600286483765
1.1842247989999999,0,0,0,0,0,0.611519992351532
1.1852245080000001,0,0,0,0,0,1.1466000080108643
1.1862256979999999,0,0,0,0,0,0.6879600286483765
1.187224777,0,0,0,0,0,1.375920057296753
1.188224634,0,0,0,0,0,1.070159912109375
1.189224584,0,0,0,0,0,1.5288000106811523
1.190225756,0,0,0,0,0,1.2994799613952637
1.191228002,0,0,0,0,0,1.223039984703064
1.192256766,0,0,0,0,0,1.375920057296753
1.1932618640000001,0,0,0,0,0,1.070159912109375
1.1942310919999999,0,0,0,0,0,0.9172800183296204
1.195224856,0,0,0,0,0,1.1466000080108643
1.19622501,0,0,0,0,0,0.9172800183296204
1.197224793,0,0,0,0,0,0.5350799560546875
1.198225279,0,0,0,0,0,0.9172800183296204
1.199224747,0,0,0,0,0,0.9172800183296204
1.200224753,0,0,0,0,0,1.070159912109375
1.201224869,0,0,0,0,0,1.223039984703064
1.20222593,0,0,0,0,0,0.9172800183296204
1.2032247680000001,0,0,0,0,0,0.9172800183296204
1.204224644,0,0,0,0,0,0.9172800183296204
1.20522489,0,0,0,0,0,1.070159912109375
1.206225451,0,0,0,0,0,1.070159912109375
1.207224678,0,0,0,0,0,1.1466000080108643
1.208224665,0,0,0,0,0,1.1466000080108643
1.209224522,0,0,0,0,0,1.375920057296753
1.21022599,0,0,0,0,0,0.9172800183296204
1.211224977,0,0,0,0,0,0.9937199950218201
1.21222463,0,0,0,0,0,1.070159912109375
1.213224543,0,0,0,0,0,1.070159912109375
1.214225622,0,0,0,0,0,1.070159912109375
1.215224813,0,0,0,0,0,1.1466000080108643
1.216224151,0,0,0,0,0,0.9937199950218201
1.217224805,0,0,0,0,0,1.1466000080108643
1.218225643,0,0,0,0,0,1.2994799613952637
1.219224889,0,0,0,0,0,1.1466000080108643
1.22022432,0,0,0,0,0,1.375920057296753
1.22122477,0,0,0,0,0,1.2994799613952637
1.2222255340000001,0,0,0,0,0,0.9937199950218201
1.223224984,0,0,0,0,0,0.9937199950218201
1.22422473,0,0,0,0,0,0.9172800183296204
1.225224754,0,0,0,0,0,1.070159912109375
1.226252055,0,0,0,0,0,0.9172800183296204
1.22728506,0,0,0,0,0,0.305759996175766
1.2282672319999999,0,0,0,0,0,0.5350799560546875
1.229270126,0,0,0,0,0,0.7644000053405762
1.230241132,0,0,0,0,0,0.8408399820327759
1.231226063,0,0,0,0,0,1.070159912109375
1.232225531,0,0,0,0,0,0.9172800183296204
1.23322537,0,0,0,0,0,1.375920057296753
1.234223782,0,0,0,0,0,1.375920057296753
1.235222695,0,0,0,0,0,1.223039984703064
1.236222552,0,0,0,0,0,1.1466000080108643
1.237222594,0,0,0,0,0,1.223039984703064
1.2382260999999999,0,0,0,0,0,1.2994799613952637
1.239225364,0,0,0,0,0,1.375920057296753
1.240225166,0,0,0,0,0,1.1466000080108643
1.241224893,0,0,0,0,0,0.9937199950218201
1.2422239720000001,0,0,0,0,0,1.070159912109375
1.243222792,0,0,0,0,0,0.9172800183296204
1.244222538,0,0,0,0,0,0.8408399820327759
1.245222544,0,0,0,0,0,0.5350799560546875
1.246225715,0,0,0,0,0,0.8408399820327759
1.2472252209999999,0,0,0,0,0,0.6879600286483765
1.248225207,0,0,0,0,0,0.8408399820327759
1.249228176,0,0,0,0,0,0.9172800183296204
1.25022644,0,0,0,0,0,0.9172800183296204
1.251225056,0,0,0,0,0,1.2994799613952637
1.252225117,0,0,0,0,0,1.1466000080108643
1.253225067,0,0,0,0,0,1.605239987373352
1.254226091,0,0,0,0,0,1.070159912109375
1.255225188,0,0,0,0,0,0.9937199950218201
1.256225027,0,0,0,0,0,1.1466000080108643
1.2572251620000001,0,0,0,0,0,0.7644000053405762
1.258226204,0,0,0,0,0,1.070159912109375
1.259243524,0,0,0,0,0,0.7644000053405762
1.26022577,0,0,0,0,0,0.8408399820327759
1.261225109,0,0,0,0,0,1.070159912109375
1.262226114,0,0,0,0,0,0.9172800183296204
1.263224656,0,0,0,0,0,1.223039984703064
1.264225198,0,0,0,0,0,0.9172800183296204
1.265225241,0,0,0,0,0,0.9172800183296204
1.266226135,0,0,0,0,0,1.2994799613952637
1.267225362,0,0,0,0,0,0.9172800183296204
1.268225164,0,0,0,0,0,0.9172800183296204
1.269225262,0,0,0,0,0,0.6879600286483765
1.270225767,0,0,0,0,0,0.611519992351532
1.2712250680000001,0,0,0,0,0,0.9172800183296204
1.272225055,0,0,0,0,0,1.070159912109375
1.273224968,0,0,0,0,0,1.452359914779663
1.274224566,0,0,0,0,0,1.2994799613952637
1.275222515,0,0,0,0,0,1.6816799640655518
1.2762222429999999,0,0,0,0,0,1.452359914779663
1.277222304,0,0,0,0,0,0.9937199950218201
1.278225272,0,0,0,0,0,1.070159912109375
1.279224888,0,0,0,0,0,0.6879600286483765
1.280224893,0,0,0,0,0,1.070159912109375
1.281224176,0,0,0,0,0,0.6879600286483765
1.282225774,0,0,0,0,0,0.9172800183296204
1.283224557,0,0,0,0,0,1.1466000080108643
1.284224118,0,0,0,0,0,0.9172800183296204
1.285224401,0,0,0,0,0,1.070159912109375
1.286225739,0,0,0,0,0,0.9172800183296204
1.287224634,0,0,0,0,0,0.611519992351532
1.288225009,0,0,0,0,0,1.758120059967041
1.2892246250000001,0,0,0,0,0,1.1466000080108643
1.290225853,0,0,0,0,0,1.5288000106811523
1.29122458,0,0,0,0,0,1.375920057296753
1.292224826,0,0,0,0,0,1.070159912109375
1.293224813,0,0,0,0,0,0.9172800183296204
1.29422554,0,0,0,0,0,1.1466000080108643
1.295224675,0,0,0,0,0,1.375920057296753
1.296224773,0,0,0,0,0,1.070159912109375
1.29722476,0,0,0,0,0,1.070159912109375
1.298225691,0,0,0,0,0,1.452359914779663
1.299224715,0,0,0,0,0,0.9172800183296204
1.300224609,0,0,0,0,0,0.9172800183296204
1.301224559,0,0,0,0,0,0.4586400091648102
1.302225601,0,0,0,0,0,0.9937199950218201
1.30322468,0,0,0,0,0,1.223039984703064
1.304224722,0,0,0,0,0,0.9937199950218201
1.305224746,0,0,0,0,0,1.5288000106811523
1.306225159,0,0,0,0,0,1.070159912109375
1.307245312,0,0,0,0,0,1.070159912109375
1.308230132,0,0,0,0,0,1.5288000106811523
1.309225119,0,0,0,0,0,0.9172800183296204
1.310226106,0,0,0,0,0,1.375920057296753
1.311224722,0,0,0,0,0,0.9172800183296204
1.312224672,0,0,0,0,0,0.9172800183296204
1.313224844,0,0,0,0,0,1.070159912109375
1.314225571,0,0,0,0,0,0.7644000053405762
1.315224761,0,0,0,0,0,0.9937199950218201
1.3162246,0,0,0,0,0,1.070159912109375
1.317224753,0,0,0,0,0,0.6879600286483765
1.318225518,0,0,0,0,0,1.070159912109375
1.319224986,0,0,0,0,0,1.223039984703064
1.320224751,0,0,0,0,0,1.070159912109375
1.321224719,0,0,0,0,0,1.375920057296753
1.322226002,0,0,0,0,0,1.223039984703064
1.323224748,0,0,0,0,0,1.223039984703064
1.324224475,0,0,0,0,0,1.2994799613952637
1.325224888,0,0,0,0,0,1.375920057296753
1.326233819,0,0,0,0,0,1.223039984703064
1.32722575,0,0,0,0,0,1.223039984703064
1.3282246070000001,0,0,0,0,0,0.9937199950218201
1.329224835,0,0,0,0,0,1.1466000080108643
1.3302257100000001,0,0,0,0,0,0.8408399820327759
1.331224975,0,0,0,0,0,0.8408399820327759
1.332224573,0,0,0,0,0,0.5350799560546875
1.333224559,0,0,0,0,0,0.7644000053405762
1.334225564,0,0,0,0,0,0.8408399820327759
1.335224607,0,0,0,0,0,0.7644000053405762
1.3362245750000001,0,0,0,0,0,0.611519992351532
1.337224858,0,0,0,0,0,0.9172800183296204
1.338225585,0,0,0,0,0,1.2994799613952637
1.339224628,0,0,0,0,0,1.1466000080108643
1.340224651,0,0,0,0,0,1.375920057296753
1.341224712,0,0,0,0,0,1.5288000106811523
1.342226514,0,0,0,0,0,1.375920057296753
1.3432223890000001,0,0,0,0,0,1.6816799640655518
1.34422245,0,0,0,0,0,1.223039984703064
1.345222678,0,0,0,0,0,1.1466000080108643
1.346224794,0,0,0,0,0,1.1466000080108643
1.347224947,0,0,0,0,0,0.6879600286483765
1.348224934,0,0,0,0,0,0.6879600286483765
1.349223921,0,0,0,0,0,0.611519992351532
1.350225778,0,0,0,0,0,0.5350799560546875
1.351224653,0,0,0,0,0,0.7644000053405762
1.352224677,0,0,0,0,0,0.6879600286483765
1.353224719,0,0,0,0,0,0.4586400091648102
1.354225576,0,0,0,0,0,1.1466000080108643
1.3552248040000001,0,0,0,0,0,0.9172800183296204
1.35622468,0,0,0,0,0,0.9937199950218201
1.357224611,0,0,0,0,0,1.452359914779663
1.3582256529999999,0,0,0,0,0,0.9937199950218201
1.359224492,0,0,0,0,0,1.223039984703064
1.360224515,0,0,0,0,0,1.223039984703064
1.361224743,0,0,0,0,0,1.452359914779663
1.3622256,0,0,0,0,0,1.452359914779663
1.3632245680000001,0,0,0,0,0,0.9172800183296204
1.364226869,0,0,0,0,0,0.9172800183296204
1.365224819,0,0,0,0,0,0.9937199950218201
1.366225565,0,0,0,0,0,1.223039984703064
1.3672247739999999,0,0,0,0,0,1.223039984703064
1.368225187,0,0,0,0,0,1.452359914779663
1.36922521,0,0,0,0,0,1.2994799613952637
1.370223623,0,0,0,0,0,1.070159912109375
1.371222314,0,0,0,0,0,1.223039984703064
1.372222485,0,0,0,0,0,0.8408399820327759
1.373222565,0,0,0,0,0,0.6879600286483765
1.374225737,0,0,0,0,0,0.6879600286483765
1.375225149,0,0,0,0,0,0.9172800183296204
1.376225099,0,0,0,0,0,1.375920057296753
1.377225141,0,0,0,0,0,-37.68491744995117
1.378225072,0,0,0,0,0,0
1.3792252440000001,0,0,0,0,0,1.452359914779663
1.380225101,0,0,0,0,0,1.223039984703064
1.381225051,0,0,0,0,0,0.7644000053405762
1.382225741,0,0,0,0,0,0.6879600286483765
1.383254043,0,0,0,0,0,0.611519992351532
1.384224344,0,0,0,0,0,0.5350799560546875
1.3852224610000001,0,0,0,0,0,0.9937199950218201
1.386225522,0,0,0,0,0,1.223039984703064
1.3873197290000001,0,0,0,0,0,1.223039984703064
1.388270902,0,0,0,0,0,1.5288000106811523
1.3892276479999999,0,0,0,0,0,1.452359914779663
1.390225005,0,0,0,0,0,1.223039984703064
1.391224696,0,0,0,0,0,0.9937199950218201
1.392224368,0,0,0,0,0,0.611519992351532
1.393224169,0,0,0,0,0,0.7644000053405762
1.394226323,0,0,0,0,0,0.5350799560546875
1.39522455,0,0,0,0,0,1.070159912109375
1.396224796,0,0,0,0,0,1.070159912109375
1.397224431,0,0,0,0,0,0.9172800183296204
1.398225566,0,0,0,0,0,1.223039984703064
1.39922483,0,0,0,0,0,0.9172800183296204
1.400224428,0,0,0,0,0,0.8408399820327759
1.401224619,0,0,0,0,0,0.7644000053405762
1.402225698,0,0,0,0,0,0.8408399820327759
1.403224481,0,0,0,0,0,0.7644000053405762
1.4042245420000001,0,0,0,0,0,1.5288000106811523
1.405224602,0,0,0,0,0,1.8345600366592407
1.406224719,0,0,0,0,0,2.06387996673584
1.407224539,0,0,0,0,0,1.758120059967041
1.408224488,0,0,0,0,0,1.223039984703064
1.409225364,0,0,0,0,0,0.7644000053405762
1.4102259799999999,0,0,0,0,0,0.6879600286483765
1.4112247629999999,0,0,0,0,0,1.1466000080108643
1.412224435,0,0,0,0,0,1.070159912109375
1.4132245700000001,0,0,0,0,0,1.070159912109375
1.414225353,0,0,0,0,0,1.1466000080108643
1.415224932,0,0,0,0,0,0.8408399820327759
1.416224567,0,0,0,0,0,0.4586400091648102
1.417224869,0,0,0,0,0,0.6879600286483765
1.418225337,0,0,0,0,0,0.3822000026702881
1.419224583,0,0,0,0,0,0.9172800183296204
1.420224403,0,0,0,0,0,1.452359914779663
1.421224686,0,0,0,0,0,1.375920057296753
1.422225506,0,0,0,0,0,1.375920057296753
1.423232289,0,0,0,0,0,1.1466000080108643
1.424251775,0,0,0,0,0,0.9937199950218201
1.425224429,0,0,0,0,0,1.070159912109375
1.42623112,0,0,0,0,0,0.7644000053405762
1.427223551,0,0,0,0,0,1.070159912109375
1.428222778,0,0,0,0,0,1.223039984703064
1.42923345,0,0,0,0,0,0.9937199950218201
1.43022327,0,0,0,0,0,0.611519992351532
1.431222387,0,0,0,0,0,0.7644000053405762
1.4322218549999999,0,0,0,0,0,1.1466000080108643
1.433228341,0,0,0,0,0,1.375920057296753
1.434223569,0,0,0,0,0,1.758120059967041
1.435221833,0,0,0,0,0,1.452359914779663
1.436221987,0,0,0,0,0,1.223039984703064
1.437222603,0,0,0,0,0,1.070159912109375
1.438222479,0,0,0,0,0,0.7644000053405762
1.4392224470000001,0,0,0,0,0,1.2994799613952637
1.440222378,0,0,0,0,0,0.7644000053405762
1.441222328,0,0,0,0,0,1.223039984703064
1.44222887,0,0,0,0,0,1.223039984703064
1.443254708,0,0,0,0,0,0.4586400091648102
1.444257843,0,0,0,0,0,1.070159912109375
1.4452240889999999,0,0,0,0,0,0.8408399820327759
1.446226391,0,0,0,0,0,0.7644000053405762
1.447224952,0,0,0,0,0,1.2994799613952637
1.448224883,0,0,0,0,0,0.611519992351532
1.4492248509999999,0,0,0,0,0,0.9937199950218201
1.450225949,0,0,0,0,0,1.223039984703064
1.451224769,0,0,0,0,0,0.611519992351532
1.452225144,0,0,0,0,0,0.9172800183296204
1.453224909,0,0,0,0,0,1.1466000080108643
1.454225248,0,0,0,0,0,0.7644000053405762
1.455227549,0,0,0,0,0,1.223039984703064
1.456225017,0,0,0,0,0,1.375920057296753
1.457224485,0,0,0,0,0,1.5288000106811523
1.458225954,0,0,0,0,0,1.6816799640655518
1.459224718,0,0,0,0,0,1.9874399900436401
1.460224797,0,0,0,0,0,1.070159912109375
1.461224377,0,0,0,0,0,1.605239987373352
1.462225752,0,0,0,0,0,1.2994799613952637
1.463224702,0,0,0,0,0,0.611519992351532
1.464224448,0,0,0,0,0,0.9937199950218201
1.465224583,0,0,0,0,0,0.7644000053405762
1.466225903,0,0,0,0,0,1.375920057296753
1.467224704,0,0,0,0,0,1.1466000080108643
1.468224636,0,0,0,0,0,0.9172800183296204
1.469224622,0,0,0,0,0,1.2994799613952637
1.470225868,0,0,0,0,0,0.305759996175766
1.471224799,0,0,0,0,0,0.7644000053405762
1.472224823,0,0,0,0,0,0.5350799560546875
1.473224588,0,0,0,0,0,0.152879998087883
1.474225556,0,0,0,0,0,0.7644000053405762
1.475224302,0,0,0,0,0,0.4586400091648102
1.476224696,0,0,0,0,0,0.6879600286483765
1.477224572,0,0,0,0,0,1.9874399900436401
1.478225669,0,0,0,0,0,1.375920057296753
1.479224212,0,0,0,0,0,2.522519826889038
1.480224587,0,0,0,0,0,1.6816799640655518
1.481224574,0,0,0,0,0,1.5288000106811523
1.482225635,0,0,0,0,0,1.5288000106811523
1.483224399,0,0,0,0,0,0.7644000053405762
1.484224701,0,0,0,0,0,1.2994799613952637
1.485224706,0,0,0,0,0,0.9172800183296204
1.4862256,0,0,0,0,0,1.2994799613952637
1.48722455,0,0,0,0,0,1.605239987373352
1.488224611,0,0,0,0,0,1.2994799613952637
1.489224523,0,0,0,0,0,0.611519992351532
1.490225602,0,0,0,0,0,0.3822000026702881
1.491224645,0,0,0,0,0,0.5350799560546875
1.492224502,0,0,0,0,0,0
1.493224581,0,0,0,0,0,0.3822000026702881
1.494225772,0,0,0,0,0,0.4586400091648102
1.49522461,0,0,0,0,0,0.5350799560546875
1.496224449,0,0,0,0,0,1.5288000106811523
1.497242213,0,0,0,0,0,1.375920057296753
1.49822607,0,0,0,0,0,1.9109998941421509
1.499224409,0,0,0,0,0,1.6816799640655518
1.500224118,0,0,0,0,0,1.605239987373352
1.5012243079999998,0,0,0,0,0,1.223039984703064
1.502225591,0,0,0,0,0,1.375920057296753
1.5032363549999999,0,0,0,0,0,0.9937199950218201
1.504225972,0,0,0,0,0,0.6879600286483765
1.505225329,0,0,0,0,0,1.9874399900436401
1.506226705,0,0,0,0,0,1.5288000106811523
1.507224784,0,0,0,0,0,1.223039984703064
1.508224678,0,0,0,0,0,1.6816799640655518
1.509224831,0,0,0,0,0,0.305759996175766
1.510225781,0,0,0,0,0,-0.152879998087883
1.5112246200000001,0,0,0,0,0,0
1.5122247359999998,0,0,0,0,0,-0.152879998087883
1.5132246299999998,0,0,0,0,0,0.9172800183296204
1.51422558,0,0,0,0,0,0.7644000053405762
1.515224881,0,0,0,0,0,2.14031982421875
1.5162247199999999,0,0,0,0,0,1.605239987373352
1.5172247250000002,0,0,0,0,0,1.758120059967041
1.5182258229999999,0,0,0,0,0,1.605239987373352
1.5192244019999999,0,0,0,0,0,0.8408399820327759
1.520224796,0,0,0,0,0,0.8408399820327759
1.521224765,0,0,0,0,0,0.8408399820327759
1.522224622,0,0,0,0,0,1.452359914779663
1.523224682,0,0,0,0,0,1.6816799640655518
1.524224706,0,0,0,0,0,1.605239987373352
1.525224508,0,0,0,0,0,1.452359914779663
1.526233957,0,0,0,0,0,0.9172800183296204
1.52722587,0,0,0,0,0,0.4586400091648102
1.528225172,0,0,0,0,0,0
1.529224973,0,0,0,0,0,0.0764399990439415
1.530224793,0,0,0,0,0,0.7644000053405762
1.5312248720000001,0,0,0,0,0,1.223039984703064
1.532224878,0,0,0,0,0,1.5288000106811523
1.533224901,0,0,0,0,0,1.758120059967041
1.5342257400000001,0,0,0,0,0,1.758120059967041
1.535224653,0,0,0,0,0,1.223039984703064
1.536224658,0,0,0,0,0,0.5350799560546875
1.537224645,0,0,0,0,0,1.5288000106811523
1.5382257049999999,0,0,0,0,0,1.375920057296753
1.539224766,0,0,0,0,0,1.223039984703064
1.540224179,0,0,0,0,0,1.6816799640655518
1.541224758,0,0,0,0,0,0.4586400091648102
1.542225485,0,0,0,0,0,0.305759996175766
1.5432241389999999,0,0,0,0,0,-0.152879998087883
1.544224255,0,0,0,0,0,-0.7644000053405762
1.5452248530000001,0,0,0,0,0,0.5350799560546875
1.546225747,0,0,0,0,0,1.2994799613952637
1.547224789,0,0,0,0,0,1.5288000106811523
1.5482247390000001,0,0,0,0,0,2.06387996673584
1.5492248,0,0,0,0,0,2.14031982421875
1.5502258420000001,0,0,0,0,0,1.375920057296753
1.551224755,0,0,0,0,0,1.452359914779663
1.552224593,0,0,0,0,0,1.5288000106811523
1.553224784,0,0,0,0,0,0.9172800183296204
1.554225604,0,0,0,0,0,1.452359914779663
1.555224739,0,0,0,0,0,2.06387996673584
1.5562247070000002,0,0,0,0,0,0.6879600286483765
1.557224786,0,0,0,0,0,0.4586400091648102
1.5582254770000001,0,0,0,0,0,-0.2293200045824051
1.5592246300000001,0,0,0,0,0,0.2293200045824051
1.560224654,0,0,0,0,0,0.305759996175766
1.561233381,0,0,0,0,0,0.2293200045824051
1.562225738,0,0,0,0,0,1.9874399900436401
1.5632246140000001,0,0,0,0,0,1.605239987373352
1.564224675,0,0,0,0,0,1.452359914779663
1.5652264759999999,0,0,0,0,0,1.6816799640655518
1.5662254070000001,0,0,0,0,0,1.5288000106811523
1.5672253569999999,0,0,0,0,0,1.070159912109375
1.56822514,0,0,0,0,0,0.9172800183296204
1.5692250159999999,0,0,0,0,0,1.5288000106811523
1.5702237239999999,0,0,0,0,0,1.5288000106811523
1.571222508,0,0,0,0,0,0.611519992351532
1.572222568,0,0,0,0,0,0.9172800183296204
1.573222685,0,0,0,0,0,0.9172800183296204
1.5742266900000002,0,0,0,0,0,0.3822000026702881
1.575225528,0,0,0,0,0,0.9937199950218201
1.576225071,0,0,0,0,0,1.6816799640655518
1.577225113,0,0,0,0,0,0.7644000053405762
1.578223822,0,0,0,0,0,1.223039984703064
1.579222697,0,0,0,0,0,1.9109998941421509
1.5802227210000002,0,0,0,0,0,1.2994799613952637
1.581222634,0,0,0,0,0,1.452359914779663
1.5822253979999998,0,0,0,0,0,1.375920057296753
1.5832243670000001,0,0,0,0,0,0.9937199950218201
1.584224575,0,0,0,0,0,0.4586400091648102
1.585224358,0,0,0,0,0,0.2293200045824051
1.58622466,0,0,0,0,0,0.5350799560546875
1.5872242760000002,0,0,0,0,0,0.5350799560546875
1.588224707,0,0,0,0,0,0.9172800183296204
1.589224805,0,0,0,0,0,1.605239987373352
1.590225885,0,0,0,0,0,0.9172800183296204
1.591224649,0,0,0,0,0,1.223039984703064
1.592224858,0,0,0,0,0,1.8345600366592407
1.593224752,0,0,0,0,0,1.070159912109375
1.594225517,0,0,0,0,0,0.9937199950218201
1.5952247069999999,0,0,0,0,0,1.758120059967041
1.596224546,0,0,0,0,0,0.6879600286483765
1.597224458,0,0,0,0,0,0.3822000026702881
1.5982249259999999,0,0,0,0,0,1.1466000080108643
1.59922458,0,0,0,0,0,0.611519992351532
1.60023314,0,0,0,0,0,0.4586400091648102
1.6012253680000001,0,0,0,0,0,1.8345600366592407
1.6022256700000002,0,0,0,0,0,1.605239987373352
1.603224656,0,0,0,0,0,1.452359914779663
1.604224791,0,0,0,0,0,2.2932000160217285
1.605224111,0,0,0,0,0,0.9172800183296204
1.606225394,0,0,0,0,0,0.9937199950218201
1.607334454,0,0,0,0,0,1.8345600366592407
1.608225886,0,0,0,0,0,0.2293200045824051
1.609224336,0,0,0,0,0,-0.611519992351532
1.610226489,0,0,0,0,0,0.4586400091648102
1.6112246799999999,0,0,0,0,0,0.3822000026702881
1.612224944,0,0,0,0,0,0.0764399990439415
1.613224542,0,0,0,0,0,1.2994799613952637
1.614225603,0,0,0,0,0,1.1466000080108643
1.6152867739999999,0,0,0,0,0,0.9937199950218201
1.6162252609999999,0,0,0,0,0,1.8345600366592407
1.6172248040000001,0,0,0,0,0,1.223039984703064
1.618226105,0,0,0,0,0,0.4586400091648102
1.619224833,0,0,0,0,0,2.06387996673584
1.620226856,0,0,0,0,0,0.9937199950218201
1.621224824,0,0,0,0,0,0
1.622225867,0,0,0,0,0,1.375920057296753
1.623224761,0,0,0,0,0,0.4586400091648102
1.624224618,0,0,0,0,0,0.305759996175766
1.62523403,0,0,0,0,0,2.446079969406128
1.626233091,0,0,0,0,0,1.6816799640655518
1.627225856,0,0,0,0,0,1.1466000080108643
1.6282251570000001,0,0,0,0,0,2.5989599227905273
1.6292254590000002,0,0,0,0,0,0.9172800183296204
1.630225872,0,0,0,0,0,1.452359914779663
1.631225358,0,0,0,0,0,1.452359914779663
1.632225197,0,0,0,0,0,-0.5350799560546875
1.6332252390000002,0,0,0,0,0,0.4586400091648102
1.634226078,0,0,0,0,0,0.0764399990439415
1.635225398,0,0,0,0,0,-0.305759996175766
1.636225236,0,0,0,0,0,1.452359914779663
1.63722513,0,0,0,0,0,0.8408399820327759
1.638226006,0,0,0,0,0,1.2994799613952637
1.6392250480000001,0,0,0,0,0,2.06387996673584
1.640225035,0,0,0,0,0,0.8408399820327759
1.6412252619999999,0,0,0,0,0,0.7644000053405762
1.642226027,0,0,0,0,0,0.5350799560546875
1.643225347,0,0,0,0,0,0
1.644225037,0,0,0,0,0,0.5350799560546875
1.645225172,0,0,0,0,0,0.2293200045824051
1.646226103,0,0,0,0,0,0.611519992351532
1.647225146,0,0,0,0,0,2.14031982421875
1.648224743,0,0,0,0,0,1.9109998941421509
1.649225156,0,0,0,0,0,2.6754000186920166
1.65022518,0,0,0,0,0,2.14031982421875
1.651224926,0,0,0,0,0,1.1466000080108643
1.652224746,0,0,0,0,0,1.9109998941421509
1.653225288,0,0,0,0,0,0
1.6542262189999999,0,0,0,0,0,-0.9937199950218201
1.655225373,0,0,0,0,0,0.7644000053405762
1.656225193,0,0,0,0,0,-0.8408399820327759
1.657225179,0,0,0,0,0,1.1466000080108643
1.658225388,0,0,0,0,0,2.6754000186920166
1.659222671,0,0,0,0,0,0.7644000053405762
1.66022251,0,0,0,0,0,2.751840114593506
1.661222386,0,0,0,0,0,0.2293200045824051
1.662225983,0,0,0,0,0,1.070159912109375
1.663225044,0,0,0,0,0,1.5288000106811523
1.664224957,0,0,0,0,0,-1.070159912109375
1.6652250180000001,0,0,0,0,0,0.9937199950218201
1.6662261520000001,0,0,0,0,0,-0.7644000053405762
1.667225213,0,0,0,0,0,0
1.668224959,0,0,0,0,0,2.5989599227905273
1.669225094,0,0,0,0,0,0.8408399820327759
1.670224599,0,0,0,0,0,2.5989599227905273
1.671222827,0,0,0,0,0,1.5288000106811523
1.672222332,0,0,0,0,0,1.1466000080108643
1.673222059,0,0,0,0,0,2.3696401119232178
1.674225565,0,0,0,0,0,-0.3822000026702881
1.67522544,0,0,0,0,0,0.5350799560546875
1.67622526,0,0,0,0,0,0.152879998087883
1.677225043,0,0,0,0,0,-0.305759996175766
1.678226067,0,0,0,0,0,2.6754000186920166
1.679225165,0,0,0,0,0,0.8408399820327759
1.680224948,0,0,0,0,0,2.446079969406128
1.6812249160000001,0,0,0,0,0,2.446079969406128
1.6822259769999999,0,0,0,0,0,1.5288000106811523
1.683224852,0,0,0,0,0,1.9874399900436401
1.684224987,0,0,0,0,0,-0.2293200045824051
1.685225067,0,0,0,0,0,1.452359914779663
1.686225942,0,0,0,0,0,-1.1466000080108643
1.687245984,0,0,0,0,0,-0.6879600286483765
1.6882259899999998,0,0,0,0,0,1.6816799640655518
1.689233106,0,0,0,0,0,-0.305759996175766
1.690225315,0,0,0,0,0,2.2932000160217285
1.691222302,0,0,0,0,0,1.6816799640655518
1.692223103,0,0,0,0,0,0.6879600286483765
1.693253552,0,0,0,0,0,1.5288000106811523
1.694265409,0,0,0,0,0,-0.305759996175766
1.695226304,0,0,0,0,0,1.070159912109375
1.696225069,0,0,0,0,0,-0.9937199950218201
1.697224777,0,0,0,0,0,0.7644000053405762
1.6982272269999998,0,0,0,0,0,1.8345600366592407
1.699224362,0,0,0,0,0,0.9937199950218201
1.7002245710000001,0,0,0,0,0,3.134040117263794
1.701224484,0,0,0,0,0,1.070159912109375
1.702225618,0,0,0,0,0,2.2932000160217285
1.7032244570000001,0,0,0,0,0,0.9937199950218201
1.704224388,0,0,0,0,0,-0.305759996175766
1.705224708,0,0,0,0,0,0
1.706225436,0,0,0,0,0,-1.2994799613952637
1.7072248110000001,0,0,0,0,0,1.452359914779663
1.708224391,0,0,0,0,0,0.305759996175766
1.709224562,0,0,0,0,0,1.758120059967041
1.710225308,0,0,0,0,0,2.06387996673584
1.71122461,0,0,0,0,0,0.9172800183296204
1.712224486,0,0,0,0,0,1.5288000106811523
1.71322412,0,0,0,0,0,0.0764399990439415
1.7142257,0,0,0,0,0,0.9172800183296204
1.715224279,0,0,0,0,0,-0.152879998087883
1.7162241360000001,0,0,0,0,0,9.478560447692871
1.717224493,0,0,0,0,0,1.605239987373352
1.718225387,0,0,0,0,0,0.7644000053405762
1.7192246519999999,0,0,0,0,0,2.5989599227905273
1.72022462,0,0,0,0,0,1.1466000080108643
1.721224718,0,0,0,0,0,1.375920057296753
1.7222255560000002,0,0,0,0,0,0.305759996175766
1.723224469,0,0,0,0,0,-0.4586400091648102
1.724224419,0,0,0,0,0,0.152879998087883
1.725224739,0,0,0,0,0,-1.452359914779663
1.7262330590000001,0,0,0,0,0,1.223039984703064
1.727225416,0,0,0,0,0,1.9109998941421509
1.728224847,0,0,0,0,0,1.5288000106811523
1.72922463,0,0,0,0,0,2.522519826889038
1.730225746,0,0,0,0,0,0.7644000053405762
1.731224585,0,0,0,0,0,1.452359914779663
1.732224572,0,0,0,0,0,0
1.7332245579999999,0,0,0,0,0,0.305759996175766
1.7342254339999998,0,0,0,0,0,0.0764399990439415
1.735224717,0,0,0,0,0,-0.152879998087883
1.736224556,0,0,0,0,0,2.446079969406128
1.7372245419999999,0,0,0,0,0,1.070159912109375
1.738225159,0,0,0,0,0,1.6816799640655518
1.739224571,0,0,0,0,0,1.6816799640655518
1.7402246510000001,0,0,0,0,0,0.9172800183296204
1.741224619,0,0,0,0,0,0.6879600286483765
1.742225513,0,0,0,0,0,0
1.743224685,0,0,0,0,0,1.1466000080108643
1.7442245600000001,0,0,0,0,0,-0.7644000053405762
1.745224621,0,0,0,0,0,1.1466000080108643
1.746225478,0,0,0,0,0,1.6816799640655518
1.7472245389999999,0,0,0,0,0,0.2293200045824051
1.7482245440000002,0,0,0,0,0,2.06387996673584
1.7492248460000002,0,0,0,0,0,0.2293200045824051
1.7502255359999999,0,0,0,0,0,0.3822000026702881
1.751224634,0,0,0,0,0,0.2293200045824051
1.752224658,0,0,0,0,0,0.5350799560546875
1.7532416259999999,0,0,0,0,0,1.375920057296753
1.75422602,0,0,0,0,0,0.2293200045824051
1.755224636,0,0,0,0,0,2.446079969406128
1.756224234,0,0,0,0,0,1.223039984703064
1.757224702,0,0,0,0,0,0.9937199950218201
1.7582255039999999,0,0,0,0,0,1.452359914779663
1.7592241020000001,0,0,0,0,0,0
1.760224163,0,0,0,0,0,0.3822000026702881
1.761224742,0,0,0,0,0,-0.9172800183296204
1.7622256360000002,0,0,0,0,0,0.3822000026702881
1.763271807,0,0,0,0,0,-0.9172800183296204
1.7642248870000001,0,0,0,0,0,0.3822000026702881
1.765225985,0,0,0,0,0,1.9109998941421509
1.766226064,0,0,0,0,0,0.3822000026702881
1.767225847,0,0,0,0,0,2.446079969406128
1.768225223,0,0,0,0,0,1.375920057296753
1.769225024,0,0,0,0,0,0.2293200045824051
1.770223567,0,0,0,0,0,1.452359914779663
1.771230794,0,0,0,0,0,-0.7644000053405762
1.77222341,0,0,0,0,0,0.305759996175766
1.773222601,0,0,0,0,0,-0.3822000026702881
1.774226254,0,0,0,0,0,1.1466000080108643
1.775225056,0,0,0,0,0,2.2167599201202393
1.7762252090000001,0,0,0,0,0,0.3822000026702881
1.77722514,0,0,0,0,0,2.904719829559326
1.7782237379999999,0,0,0,0,0,0.9937199950218201
1.779222484,0,0,0,0,0,0.4586400091648102
1.780222341,0,0,0,0,0,1.223039984703064
1.781222235,0,0,0,0,0,-1.070159912109375
1.7822249810000002,0,0,0,0,0,0
1.783224857,0,0,0,0,0,-0.9937199950218201
1.784224714,0,0,0,0,0,-0.6879600286483765
1.7852247559999999,0,0,0,0,0,1.9109998941421509
1.7862245209999998,0,0,0,0,0,0.5350799560546875
1.787224637,0,0,0,0,0,2.522519826889038
1.788224439,0,0,0,0,0,-37.68491744995117
1.789224666,0,0,0,0,0,0
1.7902259489999999,0,0,0,0,0,1.375920057296753
1.7912245470000001,0,0,0,0,0,-0.9172800183296204
1.792224663,0,0,0,0,0,0.0764399990439415
1.79322465,0,0,0,0,0,0
1.7942255249999999,0,0,0,0,0,-0.8408399820327759
1.795224734,0,0,0,0,0,1.8345600366592407
1.796224703,0,0,0,0,0,1.452359914779663
1.7972247449999998,0,0,0,0,0,1.9109998941421509
1.798225454,0,0,0,0,0,2.522519826889038
1.7992242,0,0,0,0,0,0.152879998087883
1.800224557,0,0,0,0,0,1.1466000080108643
1.801224451,0,0,0,0,0,0.4586400091648102
1.8022255299999999,0,0,0,0,0,-0.6879600286483765
1.80322411,0,0,0,0,0,0.305759996175766
1.804224726,0,0,0,0,0,-0.7644000053405762
1.805224583,0,0,0,0,0,0
1.8062253849999999,0,0,0,0,0,1.605239987373352
1.807224723,0,0,0,0,0,1.452359914779663
1.808224525,0,0,0,0,0,1.9109998941421509
1.809224771,0,0,0,0,0,1.758120059967041
1.810225405,0,0,0,0,0,0.9172800183296204
1.81122454,0,0,0,0,0,0.2293200045824051
1.8122247489999999,0,0,0,0,0,-0.6879600286483765
1.813224403,0,0,0,0,0,-1.5288000106811523
1.814225593,0,0,0,0,0,-0.9937199950218201
1.8152246349999999,0,0,0,0,0,-0.3822000026702881
1.816224455,0,0,0,0,0,0.3822000026702881
1.8172307939999999,0,0,0,0,0,1.452359914779663
1.818226281,0,0,0,0,0,2.2932000160217285
1.819224786,0,0,0,0,0,1.223039984703064
1.820224569,0,0,0,0,0,1.9874399900436401
1.8212244069999999,0,0,0,0,0,0.9172800183296204
1.822225561,0,0,0,0,0,0
1.823224659,0,0,0,0,0,0.3822000026702881
1.824224294,0,0,0,0,0,0
1.825224651,0,0,0,0,0,-0.2293200045824051
1.826233137,0,0,0,0,0,0.5350799560546875
1.8272262719999999,0,0,0,0,0,1.223039984703064
1.82822537,0,0,0,0,0,0.9172800183296204
1.829225264,0,0,0,0,0,2.6754000186920166
1.830226103,0,0,0,0,0,1.5288000106811523
1.8312251819999998,0,0,0,0,0,0.7644000053405762
1.832225132,0,0,0,0,0,0.9937199950218201
1.833225118,0,0,0,0,0,-0.152879998087883
1.834225994,0,0,0,0,0,0.0764399990439415
1.835225203,0,0,0,0,0,0.8408399820327759
1.836225134,0,0,0,0,0,0.0764399990439415
1.837225028,0,0,0,0,0,0.0764399990439415
1.838226015,0,0,0,0,0,0.9937199950218201
1.8392252980000001,0,0,0,0,0,0.2293200045824051
1.840225118,0,0,0,0,0,0
1.84122516,0,0,0,0,0,1.605239987373352
1.842225628,0,0,0,0,0,-0.152879998087883
1.843225263,0,0,0,0,0,0.9172800183296204
1.844224954,0,0,0,0,0,1.605239987373352
1.8452251629999998,0,0,0,0,0,0.152879998087883
1.846225668,0,0,0,0,0,0.7644000053405762
1.847225192,0,0,0,0,0,1.223039984703064
1.8482251779999999,0,0,0,0,0,-0.2293200045824051
1.84922498,0,0,0,0,0,0.0764399990439415
1.850226041,0,0,0,0,0,0.4586400091648102
1.851223842,0,0,0,0,0,0.0764399990439415
1.8522227180000002,0,0,0,0,0,0.6879600286483765
1.853222334,0,0,0,0,0,1.8345600366592407
1.854226191,0,0,0,0,0,0.6879600286483765
1.855225122,0,0,0,0,0,1.223039984703064
1.8562251829999998,0,0,0,0,0,1.223039984703064
1.85722517,0,0,0,0,0,0.7644000053405762
1.8582260449999999,0,0,0,0,0,0.4586400091648102
1.859225217,0,0,0,0,0,0.9937199950218201
1.86022513,0,0,0,0,0,0.611519992351532
1.861225191,0,0,0,0,0,0.2293200045824051
1.862226011,0,0,0,0,0,0.4586400091648102
1.863224979,0,0,0,0,0,0.9937199950218201
1.864224799,0,0,0,0,0,0.4586400091648102
1.865225101,0,0,0,0,0,0.7644000053405762
1.866225884,0,0,0,0,0,1.1466000080108643
1.867224741,0,0,0,0,0,0.5350799560546875
1.868224894,0,0,0,0,0,0.8408399820327759
1.8692252329999999,0,0,0,0,0,0.8408399820327759
1.8702260339999999,0,0,0,0,0,0.3822000026702881
1.87122528,0,0,0,0,0,0.8408399820327759
1.872225174,0,0,0,0,0,0.2293200045824051
1.873225124,0,0,0,0,0,0.611519992351532
1.874225999,0,0,0,0,0,0.7644000053405762
1.8752250419999998,0,0,0,0,0,-0.3822000026702881
1.876224899,0,0,0,0,0,0.4586400091648102
1.877225182,0,0,0,0,0,0.4586400091648102
1.8782261500000001,0,0,0,0,0,0.9172800183296204
1.879225192,0,0,0,0,0,1.8345600366592407
1.880224975,0,0,0,0,0,1.2994799613952637
1.881231906,0,0,0,0,0,1.375920057296753
1.8822265040000001,0,0,0,0,0,0.9937199950218201
1.883225009,0,0,0,0,0,0.6879600286483765
1.884225144,0,0,0,0,0,1.070159912109375
1.8852251679999998,0,0,0,0,0,0.611519992351532
1.886226062,0,0,0,0,0,0.9937199950218201
1.887224993,0,0,0,0,0,0.9172800183296204
1.888225073,0,0,0,0,0,0.152879998087883
1.889224763,0,0,0,0,0,-0.5350799560546875
1.89022612,0,0,0,0,0,-0.2293200045824051
1.891225033,0,0,0,0,0,0
1.892225223,0,0,0,0,0,0
1.893225191,0,0,0,0,0,1.070159912109375
1.894225956,0,0,0,0,0,0.611519992351532
1.895224887,0,0,0,0,0,1.2994799613952637
1.8962253,0,0,0,0,0,1.070159912109375
1.897225175,0,0,0,0,0,1.1466000080108643
1.898226199,0,0,0,0,0,1.5288000106811523
1.8992251119999999,0,0,0,0,0,0.4586400091648102
1.900224969,0,0,0,0,0,0.8408399820327759
1.901225067,0,0,0,0,0,0.5350799560546875
1.90222522,0,0,0,0,0,0.3822000026702881
1.9032251329999998,0,0,0,0,0,-0.2293200045824051
1.904225045,0,0,0,0,0,-0.4586400091648102
1.905225106,0,0,0,0,0,-0.4586400091648102
1.906226278,0,0,0,0,0,0
1.907269357,0,0,0,0,0,0.7644000053405762
1.908226566,0,0,0,0,0,1.223039984703064
1.9092250530000001,0,0,0,0,0,1.223039984703064
1.910226336,0,0,0,0,0,1.2994799613952637
1.911224711,0,0,0,0,0,0.7644000053405762
1.912225106,0,0,0,0,0,1.5288000106811523
1.913225111,0,0,0,0,0,1.1466000080108643
1.914226135,0,0,0,0,0,0.9172800183296204
1.91522514,0,0,0,0,0,1.9109998941421509
1.916225071,0,0,0,0,0,1.223039984703064
1.917225187,0,0,0,0,0,0.305759996175766
1.918224544,0,0,0,0,0,0
1.919222624,0,0,0,0,0,-1.1466000080108643
1.920222592,0,0,0,0,0,-0.3822000026702881
1.92122256,0,0,0,0,0,-0.6879600286483765
1.922225825,0,0,0,0,0,0.305759996175766
1.923224996,0,0,0,0,0,1.223039984703064
1.924224798,0,0,0,0,0,1.1466000080108643
1.925224637,0,0,0,0,0,1.070159912109375
1.9262312339999998,0,0,0,0,0,0.9172800183296204
1.92722574,0,0,0,0,0,0.5350799560546875
1.928224967,0,0,0,0,0,0.6879600286483765
1.929224491,0,0,0,0,0,1.223039984703064
1.9302257,0,0,0,0,0,1.758120059967041
1.9312246119999998,0,0,0,0,0,1.9109998941421509
1.932224081,0,0,0,0,0,1.6816799640655518
1.933224623,0,0,0,0,0,0.9172800183296204
1.934225739,0,0,0,0,0,0.0764399990439415
1.9352245959999999,0,0,0,0,0,-1.223039984703064
1.936224787,0,0,0,0,0,-0.7644000053405762
1.937224607,0,0,0,0,0,-0.5350799560546875
1.938225686,0,0,0,0,0,0.2293200045824051
1.939224617,0,0,0,0,0,1.758120059967041
1.940224585,0,0,0,0,0,0.9937199950218201
1.941224794,0,0,0,0,0,1.223039984703064
1.942225707,0,0,0,0,0,0.7644000053405762
1.943225953,0,0,0,0,0,0.4586400091648102
1.944257439,0,0,0,0,0,0.3822000026702881
1.945287037,0,0,0,0,0,1.070159912109375
1.946231931,0,0,0,0,0,1.9109998941421509
1.9472252330000002,0,0,0,0,0,1.452359914779663
1.948224942,0,0,0,0,0,1.1466000080108643
1.9492249099999999,0,0,0,0,0,0.9172800183296204
1.9502253600000001,0,0,0,0,0,-0.152879998087883
1.951224976,0,0,0,0,0,-0.3822000026702881
1.9522249440000001,0,0,0,0,0,-0.8408399820327759
1.9532247090000001,0,0,0,0,0,-0.9937199950218201
1.954225047,0,0,0,0,0,-0.305759996175766
1.955224368,0,0,0,0,0,0.4586400091648102
1.956340538,0,0,0,0,0,1.223039984703064
1.957225859,0,0,0,0,0,1.223039984703064
1.9582260310000001,0,0,0,0,0,0.9937199950218201
1.959224833,0,0,0,0,0,1.223039984703064
1.960224616,0,0,0,0,0,0.6879600286483765
1.961224603,0,0,0,0,0,1.223039984703064
1.962231034,0,0,0,0,0,0.6879600286483765
1.963278427,0,0,0,0,0,0.6879600286483765
1.964229155,0,0,0,0,0,1.9109998941421509
1.9652248270000001,0,0,0,0,0,1.452359914779663
1.9662337029999999,0,0,0,0,0,1.6816799640655518
1.967228245,0,0,0,0,0,1.452359914779663
1.9682269730000002,0,0,0,0,0,0.2293200045824051
1.969224904,0,0,0,0,0,-0.305759996175766
1.9702273529999998,0,0,0,0,0,-0.9937199950218201
1.9712257850000001,0,0,0,0,0,-0.4586400091648102
1.972225197,0,0,0,0,0,-0.9937199950218201
1.973227721,0,0,0,0,0,0.4586400091648102
1.974222948,0,0,0,0,0,0.6879600286483765
1.975224842,0,0,0,0,0,1.223039984703064
1.976222181,0,0,0,0,0,2.2932000160217285
1.977238112,0,0,0,0,0,1.1466000080108643
1.978226099,0,0,0,0,0,0.9172800183296204
1.9792249750000002,0,0,0,0,0,0.5350799560546875
1.9802260170000001,0,0,0,0,0,0
1.98122467,0,0,0,0,0,0.6879600286483765
1.982224564,0,0,0,0,0,0.611519992351532
1.983224477,0,0,0,0,0,1.1466000080108643
1.984224445,0,0,0,0,0,1.605239987373352
1.985224395,0,0,0,0,0,1.5288000106811523
1.986226085,0,0,0,0,0,1.2994799613952637
1.987226553,0,0,0,0,0,0.2293200045824051
1.988227373,0,0,0,0,0,0.2293200045824051
1.989224545,0,0,0,0,0,0.0764399990439415
1.9902255690000001,0,0,0,0,0,-0.9937199950218201
1.991224648,0,0,0,0,0,0.4586400091648102
1.9922246540000002,0,0,0,0,0,-0.2293200045824051
1.993224677,0,0,0,0,0,0.152879998087883
1.994225331,0,0,0,0,0,0.8408399820327759
1.995225095,0,0,0,0,0,0.8408399820327759
1.9962244340000002,0,0,0,0,0,1.1466000080108643
1.9972241240000002,0,0,0,0,0,1.452359914779663
1.998225481,0,0,0,0,0,1.1466000080108643
1.999224635,0,0,0,0,0,0.6879600286483765
2.000224473,0,0,0,0,0,0.2293200045824051
2.001224553,0,0,0,0,0,0.8408399820327759
2.002225724,0,0,0,0,0,0.611519992351532
2.003224711,0,0,0,0,0,0.611519992351532
2.004224661,0,0,0,0,0,0.9172800183296204
2.005224648,0,0,0,0,0,0.7644000053405762
2.006225468,0,0,0,0,0,0.6879600286483765
2.007224714,0,0,0,0,0,1.070159912109375
2.008224589,0,0,0,0,0,0.8408399820327759
2.009240502,0,0,0,0,0,0.5350799560546875
2.010226396,0,0,0,0,0,0.305759996175766
2.011224586,0,0,0,0,0,0.3822000026702881
2.012224499,0,0,0,0,0,0.5350799560546875
2.013225023,0,0,0,0,0,0.6879600286483765
2.014225546,0,0,0,0,0,0.3822000026702881
2.015224607,0,0,0,0,0,0.611519992351532
2.016224798,0,0,0,0,0,0
2.017224525,0,0,0,0,0,0.3822000026702881
2.018225012,0,0,0,0,0,0.305759996175766
2.019224369,0,0,0,0,0,1.375920057296753
2.0202248,0,0,0,0,0,1.070159912109375
2.021224527,0,0,0,0,0,1.2994799613952637
2.022225792,0,0,0,0,0,1.1466000080108643
2.023224575,0,0,0,0,0,0.4586400091648102
2.024224617,0,0,0,0,0,0.4586400091648102
2.02522453,0,0,0,0,0,0.2293200045824051
2.026235553,0,0,0,0,0,0.5350799560546875
2.027226355,0,0,0,0,0,0.9937199950218201
2.028229953,0,0,0,0,0,1.070159912109375
2.029226217,0,0,0,0,0,0.8408399820327759
2.030225038,0,0,0,0,0,1.1466000080108643
2.031222469,0,0,0,0,0,0.4586400091648102
2.032222363,0,0,0,0,0,0.5350799560546875
2.033222461,0,0,0,0,0,0.4586400091648102
2.034231373,0,0,0,0,0,0.611519992351532
2.035225416,0,0,0,0,0,1.1466000080108643
2.036225199,0,0,0,0,0,0.5350799560546875
2.037224482,0,0,0,0,0,0.611519992351532
2.03822645,0,0,0,0,0,0.611519992351532
2.039224844,0,0,0,0,0,0.611519992351532
2.040224553,0,0,0,0,0,0.5350799560546875
2.041225058,0,0,0,0,0,0.2293200045824051
2.04230097,0,0,0,0,0,0.305759996175766
2.043228068,0,0,0,0,0,0.0764399990439415
2.044225314,0,0,0,0,0,0
2.045225023,0,0,0,0,0,0.152879998087883
2.046226547,0,0,0,0,0,0.611519992351532
2.047224515,0,0,0,0,0,0.6879600286483765
2.048224632,0,0,0,0,0,1.223039984703064
2.049351857,0,0,0,0,0,1.375920057296753
2.050229753,0,0,0,0,0,0.9937199950218201
2.051225147,0,0,0,0,0,0.9172800183296204
2.052224801,0,0,0,0,0,0.6879600286483765
2.053224917,0,0,0,0,0,0.4586400091648102
2.054225663,0,0,0,0,0,0.7644000053405762
2.055224816,0,0,0,0,0,0.6879600286483765
2.056224692,0,0,0,0,0,0.7644000053405762
2.057224568,0,0,0,0,0,1.223039984703064
2.058225091,0,0,0,0,0,0.9172800183296204
2.059224837,0,0,0,0,0,0.3822000026702881
2.060224583,0,0,0,0,0,0
2.0612247,0,0,0,0,0,0
2.062225353,0,0,0,0,0,0.152879998087883
2.063224914,0,0,0,0,0,0.2293200045824051
2.064224641,0,0,0,0,0,0.9172800183296204
2.0652245909999998,0,0,0,0,0,1.5288000106811523
2.066226059,0,0,0,0,0,1.1466000080108643
2.067225157,0,0,0,0,0,0.9172800183296204
2.068224551,0,0,0,0,0,0.9172800183296204
2.069408183,0,0,0,0,0,0.611519992351532
2.070260339,0,0,0,0,0,0.611519992351532
2.071252844,0,0,0,0,0,0.305759996175766
2.072260423,0,0,0,0,0,0.6879600286483765
2.07363959,0,0,0,0,0,0.9172800183296204
2.074243527,0,0,0,0,0,0.7644000053405762
2.075246439,0,0,0,0,0,0.5350799560546875
2.076533181,0,0,0,0,0,0.5350799560546875
2.077756591,0,0,0,0,0,0.0764399990439415
2.078274936,0,0,0,0,0,0.152879998087883
2.079259479,0,0,0,0,0,0.152879998087883
2.080249317,0,0,0,0,0,0
2.0812706,0,0,0,0,0,0.2293200045824051
2.082266198,0,0,0,0,0,0.9172800183296204
2.083262129,0,0,0,0,0,0.9172800183296204
2.084252246,0,0,0,0,0,1.5288000106811523
2.08524614,0,0,0,0,0,0.9937199950218201
2.086250978,0,0,0,0,0,1.1466000080108643
2.08733089,0,0,0,0,0,1.375920057296753
2.0882676,0,0,0,0,0,0.9937199950218201
2.089226142,0,0,0,0,0,0.5350799560546875
2.090226685,0,0,0,0,0,0.8408399820327759
2.091224097,0,0,0,0,0,0.3822000026702881
2.092223936,0,0,0,0,0,0.3822000026702881
2.093223867,0,0,0,0,0,0.4586400091648102
2.094224446,0,0,0,0,0,0.305759996175766
2.095223896,0,0,0,0,0,0.6879600286483765
2.096443324,0,0,0,0,0,0.4586400091648102
2.09722574,0,0,0,0,0,0.305759996175766
2.098225615,0,0,0,0,0,0.611519992351532
2.099223343,0,0,0,0,0,0.611519992351532
2.100223737,0,0,0,0,0,0.7644000053405762
2.101223761,0,0,0,0,0,0.9172800183296204
2.102223377,0,0,0,0,0,0.7644000053405762
2.10322366,0,0,0,0,0,0.9172800183296204
2.104223536,0,0,0,0,0,0.9937199950218201
2.105223726,0,0,0,0,0,0.611519992351532
2.106224305,0,0,0,0,0,1.070159912109375
2.107223829,0,0,0,0,0,0.3822000026702881
2.108223908,0,0,0,0,0,0.305759996175766
2.109223654,0,0,0,0,0,0.4586400091648102
2.110224271,0,0,0,0,0,0.3822000026702881
2.11123872,0,0,0,0,0,0.6879600286483765
2.112224226,0,0,0,0,0,0.5350799560546875
2.113223638,0,0,0,0,0,0.6879600286483765
2.114225292,0,0,0,0,0,0.7644000053405762
2.115223741,0,0,0,0,0,0.7644000053405762
2.116223487,0,0,0,0,0,0.5350799560546875
2.117223752,0,0,0,0,0,0.7644000053405762
2.118224294,0,0,0,0,0,0.5350799560546875
2.119223651,0,0,0,0,0,0.5350799560546875
2.12022349,0,0,0,0,0,0.8408399820327759
2.121223625,0,0,0,0,0,0.5350799560546875
2.122224741,0,0,0,0,0,0.4586400091648102
2.123223857,0,0,0,0,0,0.3822000026702881
2.124223251,0,0,0,0,0,0.5350799560546875
2.12522359,0,0,0,0,0,0.8408399820327759
2.126230095,0,0,0,0,0,0.4586400091648102
2.127227026,0,0,0,0,0,0.305759996175766
2.128226883,0,0,0,0,0,0.8408399820327759
2.129227759,0,0,0,0,0,0.8408399820327759
2.130227357,0,0,0,0,0,0.6879600286483765
2.131226288,0,0,0,0,0,0.9172800183296204
2.132226256,0,0,0,0,0,0.7644000053405762
2.133226335,0,0,0,0,0,0.8408399820327759
2.134226322,0,0,0,0,0,0.6879600286483765
2.135397862,0,0,0,0,0,1.070159912109375
2.136233295,0,0,0,0,0,0.9172800183296204
2.137228745,0,0,0,0,0,0.9172800183296204
2.138253824,0,0,0,0,0,0.2293200045824051
2.139227626,0,0,0,0,0,0.8408399820327759
2.140226576,0,0,0,0,0,0.2293200045824051
2.141226525,0,0,0,0,0,0.5350799560546875
2.142226531,0,0,0,0,0,0.152879998087883
2.143226814,0,0,0,0,0,0.2293200045824051
2.144226449,0,0,0,0,0,0.6879600286483765
2.145226454,0,0,0,0,0,0.3822000026702881
2.146226403,0,0,0,0,0,0.7644000053405762
2.147226353,0,0,0,0,0,0.611519992351532
2.148226377,0,0,0,0,0,0.4586400091648102
2.149226512,0,0,0,0,0,0.8408399820327759
2.150226721,0,0,0,0,0,0.8408399820327759
2.151226504,0,0,0,0,0,0.9172800183296204
2.152226657,0,0,0,0,0,0.7644000053405762
2.153226607,0,0,0,0,0,0.7644000053405762
2.154228056,0,0,0,0,0,0.611519992351532
2.155226599,0,0,0,0,0,0.9172800183296204
2.156226604,0,0,0,0,0,0.611519992351532
2.157226331,0,0,0,0,0,0.5350799560546875
2.158227411,0,0,0,0,0,1.070159912109375
2.159226583,0,0,0,0,0,0.611519992351532
2.160226532,0,0,0,0,0,0.4586400091648102
2.1612265,0,0,0,0,0,1.070159912109375
2.162227209,0,0,0,0,0,0.2293200045824051
2.163226289,0,0,0,0,0,0.6879600286483765
2.164225998,0,0,0,0,0,0.6879600286483765
2.1652266510000002,0,0,0,0,0,0.3822000026702881
2.166226082,0,0,0,0,0,1.223039984703064
2.167225735,0,0,0,0,0,0.9937199950218201
2.168223704,0,0,0,0,0,1.070159912109375
2.169224116,0,0,0,0,0,0.7644000053405762
2.170228251,0,0,0,0,0,0.305759996175766
2.171226534,0,0,0,0,0,0.152879998087883
2.172226373,0,0,0,0,0,0.611519992351532
2.17322623,0,0,0,0,0,0.6879600286483765
2.174226217,0,0,0,0,0,0.8408399820327759
2.175225963,0,0,0,0,0,0.7644000053405762
2.176226023,0,0,0,0,0,0.611519992351532
2.177225936,0,0,0,0,0,1.070159912109375
2.178226608,0,0,0,0,0,0.4586400091648102
2.179225909,0,0,0,0,0,0.7644000053405762
2.180225952,0,0,0,0,0,0.611519992351532
2.181225864,0,0,0,0,0,0.5350799560546875
2.182226055,0,0,0,0,0,0.5350799560546875
2.1832260039999998,0,0,0,0,0,1.2994799613952637
2.184226121,0,0,0,0,0,1.1466000080108643
2.185226033,0,0,0,0,0,0.152879998087883
2.186226131,0,0,0,0,0,0.305759996175766
2.187226007,0,0,0,0,0,0.2293200045824051
2.188225771,0,0,0,0,0,0.6879600286483765
2.189225258,0,0,0,0,0,0.0764399990439415
2.190226152,0,0,0,0,0,0.2293200045824051
2.191226009,0,0,0,0,0,0.8408399820327759
2.192225811,0,0,0,0,0,0
2.193225927,0,0,0,0,0,0.6879600286483765
2.195197493,0,0,0,0,0,0.4586400091648102
2.19539425,0,0,0,0,0,0.4586400091648102
2.196230554,0,0,0,0,0,1.2994799613952637
2.197225281,0,0,0,0,0,0.7644000053405762
2.198232898,0,0,0,0,0,0.6879600286483765
2.199225181,0,0,0,0,0,0.9937199950218201
2.200228741,0,0,0,0,0,0.3822000026702881
2.201225524,0,0,0,0,0,0.611519992351532
2.202225826,0,0,0,0,0,0.7644000053405762
2.203224813,0,0,0,0,0,0.6879600286483765
2.204224707,0,0,0,0,0,0.305759996175766
2.205224656,0,0,0,0,0,0.4586400091648102
2.206225976,0,0,0,0,0,0.6879600286483765
2.207247185,0,0,0,0,0,0.305759996175766
2.208226635,0,0,0,0,0,0.4586400091648102
2.209224511,0,0,0,0,0,0.2293200045824051
2.210225886,0,0,0,0,0,0.8408399820327759
2.211224651,0,0,0,0,0,0.611519992351532
2.212224638,0,0,0,0,0,0.4586400091648102
2.213224106,0,0,0,0,0,0.6879600286483765
2.214225648,0,0,0,0,0,0.305759996175766
2.215224727,0,0,0,0,0,0.9172800183296204
2.216224584,0,0,0,0,0,0.5350799560546875
2.217224516,0,0,0,0,0,0.6879600286483765
2.218225521,0,0,0,0,0,0.9172800183296204
2.2192246190000002,0,0,0,0,0,0.5350799560546875
2.220224679,0,0,0,0,0,0.7644000053405762
2.221224629,0,0,0,0,0,0.8408399820327759
2.222225468,0,0,0,0,0,0.611519992351532
2.223224584,0,0,0,0,0,0.6879600286483765
2.224224552,0,0,0,0,0,0.9937199950218201
2.225224446,0,0,0,0,0,0.4586400091648102
2.226233933,0,0,0,0,0,0.6879600286483765
2.227304289,0,0,0,0,0,0.611519992351532
2.228283906,0,0,0,0,0,0.611519992351532
2.229247856,0,0,0,0,0,0.5350799560546875
2.230266083,0,0,0,0,0,0.4586400091648102
2.231226311,0,0,0,0,0,0.611519992351532
2.232228261,0,0,0,0,0,0.4586400091648102
2.233225544,0,0,0,0,0,0.611519992351532
2.234223827,0,0,0,0,0,0.4586400091648102
2.235222591,0,0,0,0,0,0.5350799560546875
2.236222411,0,0,0,0,0,0.8408399820327759
2.237222731,0,0,0,0,0,1.2994799613952637
2.238225107,0,0,0,0,0,1.070159912109375
2.239224649,0,0,0,0,0,0.9172800183296204
2.240224488,0,0,0,0,0,1.2994799613952637
2.241224345,0,0,0,0,0,0.7644000053405762
2.242224535,0,0,0,0,0,1.070159912109375
2.243224392,0,0,0,0,0,0.611519992351532
2.2442242119999998,0,0,0,0,0,0.4586400091648102
2.245224366,0,0,0,0,0,0.7644000053405762
2.246225778,0,0,0,0,0,0.4586400091648102
2.247224524,0,0,0,0,0,0.0764399990439415
2.2482244,0,0,0,0,0,0.152879998087883
2.249224424,0,0,0,0,0,0.152879998087883
2.250225355,0,0,0,0,0,0.3822000026702881
2.251224508,0,0,0,0,0,0.3822000026702881
2.252224606,0,0,0,0,0,0.611519992351532
2.25322463,0,0,0,0,0,0.9937199950218201
2.254225561,0,0,0,0,0,0.7644000053405762
2.255224418,0,0,0,0,0,1.452359914779663
2.256224016,0,0,0,0,0,0.6879600286483765
2.257224577,0,0,0,0,0,0.611519992351532
2.258225711,0,0,0,0,0,0.611519992351532
2.259224328,0,0,0,0,0,0.4586400091648102
2.260224333,0,0,0,0,0,0.4586400091648102
2.261224505,0,0,0,0,0,0.2293200045824051
2.26222551,0,0,0,0,0,0.6879600286483765
2.263224423,0,0,0,0,0,0.2293200045824051
2.264224484,0,0,0,0,0,0.5350799560546875
2.265224581,0,0,0,0,0,0.305759996175766
2.266225494,0,0,0,0,0,1.070159912109375
2.267224592,0,0,0,0,0,0.9172800183296204
2.268224486,0,0,0,0,0,0.9937199950218201
2.269224621,0,0,0,0,0,0.7644000053405762
2.270225367,0,0,0,0,0,0.7644000053405762
2.271224576,0,0,0,0,0,0.2293200045824051
2.272224303,0,0,0,0,0,0.611519992351532
2.273224512,0,0,0,0,0,0.5350799560546875
2.274225036,0,0,0,0,0,0.3822000026702881
2.275224819,0,0,0,0,0,0.6879600286483765
2.276224583,0,0,0,0,0,0.8408399820327759
2.277224496,0,0,0,0,0,0.8408399820327759
2.278225223,0,0,0,0,0,0.9172800183296204
2.2792245429999998,0,0,0,0,0,0.3822000026702881
2.280224752,0,0,0,0,0,0.152879998087883
2.281224628,0,0,0,0,0,0.2293200045824051
2.282244614,0,0,0,0,0,0.2293200045824051
2.283224861,0,0,0,0,0,0.5350799560546875
2.284224533,0,0,0,0,0,0.7644000053405762
2.285224427,0,0,0,0,0,1.1466000080108643
2.286225432,0,0,0,0,0,1.452359914779663
2.287225882,0,0,0,0,0,1.2994799613952637
2.2882294979999998,0,0,0,0,0,0.6879600286483765
2.289224725,0,0,0,0,0,0.4586400091648102
2.290224675,0,0,0,0,0,0
2.291224754,0,0,0,0,0,0.2293200045824051
2.292224704,0,0,0,0,0,0.5350799560546875
2.293224506,0,0,0,0,0,0.9172800183296204
2.294225622,0,0,0,0,0,0.8408399820327759
2.295224738,0,0,0,0,0,1.1466000080108643
2.296224003,0,0,0,0,0,0.9937199950218201
2.297224545,0,0,0,0,0,0.4586400091648102
2.298225476,0,0,0,0,0,0.152879998087883
2.299224148,0,0,0,0,0,0.0764399990439415
2.300224524,0,0,0,0,0,0.4586400091648102
2.301224714,0,0,0,0,0,0.9172800183296204
2.302225627,0,0,0,0,0,1.223039984703064
2.303224558,0,0,0,0,0,1.5288000106811523
2.304224526,0,0,0,0,0,1.375920057296753
2.305224587,0,0,0,0,0,0.9937199950218201
2.306225611,0,0,0,0,0,0.3822000026702881
2.307224542,0,0,0,0,0,0.0764399990439415
2.30822451,0,0,0,0,0,0
2.309224608,0,0,0,0,0,0
2.310225409,0,0,0,0,0,0.5350799560546875
2.311224655,0,0,0,0,0,1.223039984703064
2.312224549,0,0,0,0,0,0.6879600286483765
2.313224555,0,0,0,0,0,0.6879600286483765
2.314225523,0,0,0,0,0,0.2293200045824051
2.315224676,0,0,0,0,0,0
2.31622457,0,0,0,0,0,0.4586400091648102
2.317224131,0,0,0,0,0,0.9172800183296204
2.318225525,0,0,0,0,0,0.6879600286483765
2.319224567,0,0,0,0,0,1.9874399900436401
2.320224406,0,0,0,0,0,1.070159912109375
2.321224208,0,0,0,0,0,1.1466000080108643
2.322225324,0,0,0,0,0,0.9172800183296204
2.323224607,0,0,0,0,0,0.9172800183296204
2.324224649,0,0,0,0,0,0.611519992351532
2.325224414,0,0,0,0,0,0.3822000026702881
2.326234585,0,0,0,0,0,0.4586400091648102
2.327225813,0,0,0,0,0,0.2293200045824051
2.328224874,0,0,0,0,0,0
2.329224286,0,0,0,0,0,0
2.330225755,0,0,0,0,0,0.152879998087883
2.3312245750000002,0,0,0,0,0,0.2293200045824051
2.332224524,0,0,0,0,0,0.3822000026702881
2.33322453,0,0,0,0,0,0.9172800183296204
2.334225498,0,0,0,0,0,0.4586400091648102
2.335224522,0,0,0,0,0,0.2293200045824051
2.336224305,0,0,0,0,0,0.611519992351532
2.337224643,0,0,0,0,0,0.6879600286483765
2.338225408,0,0,0,0,0,0.8408399820327759
2.339224265,0,0,0,0,0,1.223039984703064
2.340224714,0,0,0,0,0,0.7644000053405762
2.34122459,0,0,0,0,0,0.6879600286483765
2.342225058,0,0,0,0,0,0.6879600286483765
2.343223971,0,0,0,0,0,0.611519992351532
2.344224661,0,0,0,0,0,0.9172800183296204
2.345224648,0,0,0,0,0,0.8408399820327759
2.346223709,0,0,0,0,0,0.305759996175766
2.347222436,0,0,0,0,0,0.9937199950218201
2.348222423,0,0,0,0,0,1.070159912109375
2.349222317,0,0,0,0,0,0.4586400091648102
2.350225804,0,0,0,0,0,0.305759996175766
2.3512252350000002,0,0,0,0,0,0.152879998087883
2.352224796,0,0,0,0,0,-0.2293200045824051
2.353224708,0,0,0,0,0,0
2.354225769,0,0,0,0,0,0.611519992351532
2.355224552,0,0,0,0,0,0.7644000053405762
2.356224557,0,0,0,0,0,0.7644000053405762
2.357224637,0,0,0,0,0,0.8408399820327759
2.3582256790000002,0,0,0,0,0,-0.3822000026702881
2.359224851,0,0,0,0,0,0.3822000026702881
2.360224634,0,0,0,0,0,0.7644000053405762
2.361224713,0,0,0,0,0,0.152879998087883
2.362225792,0,0,0,0,0,0.5350799560546875
2.363224575,0,0,0,0,0,0.9937199950218201
2.364224488,0,0,0,0,0,0.9172800183296204
2.365224678,0,0,0,0,0,0.4586400091648102
2.366225795,0,0,0,0,0,1.8345600366592407
2.367226374,0,0,0,0,0,0.9172800183296204
2.36822475,0,0,0,0,0,0.8408399820327759
2.369224866,0,0,0,0,0,1.2994799613952637
2.370225186,0,0,0,0,0,0.0764399990439415
2.371225451,0,0,0,0,0,0.8408399820327759
2.372225234,0,0,0,0,0,0.2293200045824051
2.373225202,0,0,0,0,0,-0.4586400091648102
2.374223763,0,0,0,0,0,0.5350799560546875
2.375222527,0,0,0,0,0,0.3822000026702881
2.376222551,0,0,0,0,0,0.611519992351532
2.377222482,0,0,0,0,0,0.9172800183296204
2.378225654,0,0,0,0,0,0.0764399990439415
2.379224733,0,0,0,0,0,0.5350799560546875
2.380224572,0,0,0,0,0,0
2.381225095,0,0,0,0,0,0.3822000026702881
2.382233675,0,0,0,0,0,0.2293200045824051
2.383346901,0,0,0,0,0,0.4586400091648102
2.384237518,0,0,0,0,0,0.9937199950218201
2.3852251349999998,0,0,0,0,0,1.223039984703064
2.386227844,0,0,0,0,0,1.9874399900436401
2.387226738,0,0,0,0,0,1.5288000106811523
2.388285576,0,0,0,0,0,1.5288000106811523
2.3892336739999998,0,0,0,0,0,1.5288000106811523
2.390228198,0,0,0,0,0,0.8408399820327759
2.391225055,0,0,0,0,0,0.6879600286483765
2.392224764,0,0,0,0,0,-0.4586400091648102
2.393224788,0,0,0,0,0,0
2.3942255709999998,0,0,0,0,0,0
2.395224817,0,0,0,0,0,0.305759996175766
2.396224748,0,0,0,0,0,0
2.397224957,0,0,0,0,0,0
2.398225814,0,0,0,0,0,0.152879998087883
2.399224634,0,0,0,0,0,0
2.400224824,0,0,0,0,0,0
2.401224589,0,0,0,0,0,0.611519992351532
2.402225742,0,0,0,0,0,0.152879998087883
2.40322484,0,0,0,0,0,1.6816799640655518
2.404223975,0,0,0,0,0,2.2932000160217285
2.405224814,0,0,0,0,0,1.375920057296753
2.406225467,0,0,0,0,0,2.3696401119232178
2.407224194,0,0,0,0,0,1.1466000080108643
2.408224681,0,0,0,0,0,0.9937199950218201
2.409224631,0,0,0,0,0,0.3822000026702881
2.410225747,0,0,0,0,0,0.0764399990439415
2.4112246969999998,0,0,0,0,0,0.2293200045824051
2.412224609,0,0,0,0,0,0.611519992351532
2.4132248,0,0,0,0,0,0.305759996175766
2.414225749,0,0,0,0,0,0
2.415224884,0,0,0,0,0,-0.3822000026702881
2.416224667,0,0,0,0,0,-0.3822000026702881
2.417224599,0,0,0,0,0,0
2.418225696,0,0,0,0,0,0
2.419224535,0,0,0,0,0,0.0764399990439415
2.420224725,0,0,0,0,0,1.8345600366592407
2.421224638,0,0,0,0,0,1.758120059967041
2.422225606,0,0,0,0,0,1.9109998941421509
2.423224722,0,0,0,0,0,2.3696401119232178
2.424248431,0,0,0,0,0,1.8345600366592407
2.425223548,0,0,0,0,0,0.7644000053405762
2.426230942,0,0,0,0,0,0.5350799560546875
2.427223262,0,0,0,0,0,0.6879600286483765
2.428222341,0,0,0,0,0,0
2.429221921,0,0,0,0,0,0
2.430222944,0,0,0,0,0,0.152879998087883
2.431222098,0,0,0,0,0,0
2.43222227,0,0,0,0,0,0.305759996175766
2.43322233,0,0,0,0,0,0
2.434222762,0,0,0,0,0,0
2.435222433,0,0,0,0,0,0.152879998087883
2.436222198,0,0,0,0,0,1.375920057296753
2.437222351,0,0,0,0,0,1.2994799613952637
2.438225986,0,0,0,0,0,2.14031982421875
2.439225528,0,0,0,0,0,2.3696401119232178
2.440225182,0,0,0,0,0,1.605239987373352
2.441225113,0,0,0,0,0,0.611519992351532
2.442226544,0,0,0,0,0,0.611519992351532
2.443225086,0,0,0,0,0,0.305759996175766
2.4442252030000002,0,0,0,0,0,0.4586400091648102
2.445255078,0,0,0,0,0,0
2.446404433,0,0,0,0,0,0
2.447231496,0,0,0,0,0,0
2.448225112,0,0,0,0,0,-0.152879998087883
2.449224914,0,0,0,0,0,-0.7644000053405762
2.450227993,0,0,0,0,0,0.3822000026702881
2.451224684,0,0,0,0,0,0.611519992351532
2.452224689,0,0,0,0,0,1.070159912109375
2.45324399,0,0,0,0,0,1.9109998941421509
2.454226329,0,0,0,0,0,1.9874399900436401
2.45522526,0,0,0,0,0,1.452359914779663
2.456224802,0,0,0,0,0,1.070159912109375
2.457224826,0,0,0,0,0,0.6879600286483765
2.458225646,0,0,0,0,0,0.9172800183296204
2.459224818,0,0,0,0,0,0.0764399990439415
2.460224731,0,0,0,0,0,0.7644000053405762
2.4612248660000002,0,0,0,0,0,0.8408399820327759
2.462225649,0,0,0,0,0,0
2.4632246540000002,0,0,0,0,0,0.152879998087883
2.464224678,0,0,0,0,0,0.3822000026702881
2.465224627,0,0,0,0,0,0.4586400091648102
2.46622591,0,0,0,0,0,0.7644000053405762
2.467224601,0,0,0,0,0,1.070159912109375
2.468224995,0,0,0,0,0,1.452359914779663
2.469224537,0,0,0,0,0,0.9172800183296204
2.470225783,0,0,0,0,0,1.070159912109375
2.471224622,0,0,0,0,0,0.305759996175766
2.472224294,0,0,0,0,0,0.3822000026702881
2.473224762,0,0,0,0,0,0.2293200045824051
2.474225748,0,0,0,0,0,0.305759996175766
2.475225735,0,0,0,0,0,0.611519992351532
2.4762248700000002,0,0,0,0,0,0.2293200045824051
2.477224597,0,0,0,0,0,0.4586400091648102
2.478273787,0,0,0,0,0,1.1466000080108643
2.4792299780000002,0,0,0,0,0,1.1466000080108643
2.480225021,0,0,0,0,0,0.7644000053405762
2.481224915,0,0,0,0,0,0.9172800183296204
2.482226253,0,0,0,0,0,0.3822000026702881
2.483224758,0,0,0,0,0,0.0764399990439415
2.4842248749999998,0,0,0,0,0,0.8408399820327759
2.485224695,0,0,0,0,0,0.9172800183296204
2.4862259780000002,0,0,0,0,0,0.305759996175766
2.487224891,0,0,0,0,0,0.9172800183296204
2.488224692,0,0,0,0,0,21.020999908447266
2.489224716,0,0,0,0,0,0
2.490225351,0,0,0,0,0,0.3822000026702881
2.4912248,0,0,0,0,0,1.6816799640655518
2.492224731,0,0,0,0,0,1.1466000080108643
2.493224792,0,0,0,0,0,0.9937199950218201
2.494225316,0,0,0,0,0,1.9874399900436401
2.495225118,0,0,0,0,0,0.305759996175766
2.496224771,0,0,0,0,0,0.2293200045824051
2.49722448,0,0,0,0,0,0.6879600286483765
2.498226004,0,0,0,0,0,-0.5350799560546875
2.499224564,0,0,0,0,0,0
2.500224736,0,0,0,0,0,0.4586400091648102
2.501224853,0,0,0,0,0,0
2.502225858,0,0,0,0,0,-0.4586400091648102
2.503224826,0,0,0,0,0,0.9937199950218201
2.504224609,0,0,0,0,0,1.1466000080108643
2.505224762,0,0,0,0,0,0.611519992351532
2.506225694,0,0,0,0,0,1.9874399900436401
2.507252532,0,0,0,0,0,0.9172800183296204
2.508229945,0,0,0,0,0,0
2.509225302,0,0,0,0,0,1.223039984703064
2.510226066,0,0,0,0,0,0.9937199950218201
2.511224979,0,0,0,0,0,0.3822000026702881
2.512224595,0,0,0,0,0,1.6816799640655518
2.513224638,0,0,0,0,0,1.2994799613952637
2.5142256610000002,0,0,0,0,0,-0.611519992351532
2.515224555,0,0,0,0,0,1.605239987373352
2.516225005,0,0,0,0,0,1.2994799613952637
2.517224807,0,0,0,0,0,0.6879600286483765
2.518225719,0,0,0,0,0,2.3696401119232178
2.519224947,0,0,0,0,0,0.5350799560546875
2.520224952,0,0,0,0,0,0
2.5212249570000003,0,0,0,0,0,0.8408399820327759
2.522225203,0,0,0,0,0,-0.305759996175766
2.523224838,0,0,0,0,0,-0.8408399820327759
2.524224751,0,0,0,0,0,1.223039984703064
2.525224626,0,0,0,0,0,-0.3822000026702881
2.526235205,0,0,0,0,0,0.305759996175766
2.527226026,0,0,0,0,0,2.446079969406128
2.52822479,0,0,0,0,0,0.152879998087883
2.529224869,0,0,0,0,0,1.9109998941421509
2.530225245,0,0,0,0,0,1.8345600366592407
2.531225417,0,0,0,0,0,-0.152879998087883
2.532225107,0,0,0,0,0,0.8408399820327759
2.533224557,0,0,0,0,0,0.4586400091648102
2.53422634,0,0,0,0,0,-0.7644000053405762
2.535224956,0,0,0,0,0,0.611519992351532
2.536225276,0,0,0,0,0,0.2293200045824051
2.537224504,0,0,0,0,0,-0.2293200045824051
2.538225954,0,0,0,0,0,1.452359914779663
2.539225162,0,0,0,0,0,1.070159912109375
2.540224964,0,0,0,0,0,1.2994799613952637
2.541225136,0,0,0,0,0,1.8345600366592407
2.542225919,0,0,0,0,0,0.2293200045824051
2.543224961,0,0,0,0,0,0.5350799560546875
2.544225077,0,0,0,0,0,-0.2293200045824051
2.545225138,0,0,0,0,0,-0.305759996175766
2.546225792,0,0,0,0,0,0
2.547224945,0,0,0,0,0,0
2.548224987,0,0,0,0,0,0.7644000053405762
2.5492248809999998,0,0,0,0,0,1.375920057296753
2.550226368,0,0,0,0,0,1.1466000080108643
2.551225059,0,0,0,0,0,2.2932000160217285
2.552224934,0,0,0,0,0,0.2293200045824051
2.553225069,0,0,0,0,0,0.305759996175766
2.554226111,0,0,0,0,0,0.611519992351532
2.555224709,0,0,0,0,0,-1.070159912109375
2.5562249550000002,0,0,0,0,0,0.9937199950218201
2.557225201,0,0,0,0,0,-0.2293200045824051
2.558225428,0,0,0,0,0,0
2.559224823,0,0,0,0,0,2.751840114593506
2.560225124,0,0,0,0,0,0.4586400091648102
2.561225055,0,0,0,0,0,1.6816799640655518
2.562225838,0,0,0,0,0,2.828279972076416
2.563225047,0,0,0,0,0,0.2293200045824051
2.564225034,0,0,0,0,0,1.8345600366592407
2.565225354,0,0,0,0,0,-0.7644000053405762
2.56622573,0,0,0,0,0,-0.152879998087883
2.5672259200000003,0,0,0,0,0,0.305759996175766
2.568226999,0,0,0,0,0,-1.223039984703064
2.5692251710000003,0,0,0,0,0,1.1466000080108643
2.570225325,0,0,0,0,0,0.7644000053405762
2.571225348,0,0,0,0,0,0.305759996175766
2.572225317,0,0,0,0,0,2.828279972076416
2.573225285,0,0,0,0,0,0
2.5742237709999998,0,0,0,0,0,1.5288000106811523
2.5752225539999998,0,0,0,0,0,-0.9937199950218201
2.57622256,0,0,0,0,0,-0.4586400091648102
2.5772225090000003,0,0,0,0,0,0.611519992351532
2.57822607,0,0,0,0,0,-1.223039984703064
2.57922489,0,0,0,0,0,2.2932000160217285
2.580224562,0,0,0,0,0,0.9172800183296204
2.581225012,0,0,0,0,0,1.8345600366592407
2.582225073,0,0,0,0,0,2.9811599254608154
2.583225226,0,0,0,0,0,0.2293200045824051
2.584225027,0,0,0,0,0,1.5288000106811523
2.585224792,0,0,0,0,0,-9.631440162658691
2.5862265559999997,0,0,0,0,0,0.6879600286483765
2.587226432,0,0,0,0,0,0.3822000026702881
2.588228122,0,0,0,0,0,-0.5350799560546875
2.589224887,0,0,0,0,0,2.446079969406128
2.590225966,0,0,0,0,0,0.4586400091648102
2.591224953,0,0,0,0,0,1.9874399900436401
2.592225051,0,0,0,0,0,1.9109998941421509
2.593225037,0,0,0,0,0,-1.070159912109375
2.594225932,0,0,0,0,0,1.223039984703064
2.595224955,0,0,0,0,0,-0.8408399820327759
2.596224961,0,0,0,0,0,0
2.597224836,0,0,0,0,0,-0.2293200045824051
2.598224712,0,0,0,0,0,0.7644000053405762
2.599225217,0,0,0,0,0,1.5288000106811523
2.60022787,0,0,0,0,0,1.1466000080108643
2.601224783,0,0,0,0,0,3.3633599281311035
2.602224622,0,0,0,0,0,1.1466000080108643
2.603225219,0,0,0,0,0,1.2994799613952637
2.604224947,0,0,0,0,0,0.6879600286483765
2.605227989,0,0,0,0,0,0
2.606226994,0,0,0,0,0,1.070159912109375
2.607225444,0,0,0,0,0,0.152879998087883
2.608225264,0,0,0,0,0,1.5288000106811523
2.609224954,0,0,0,0,0,0.611519992351532
2.610226182,0,0,0,0,0,2.2167599201202393
2.611225391,0,0,0,0,0,2.3696401119232178
2.6122254700000003,0,0,0,0,0,0
2.613225272,0,0,0,0,0,1.605239987373352
2.614226147,0,0,0,0,0,0
2.615225338,0,0,0,0,0,0
2.616225139,0,0,0,0,0,0
2.617225274,0,0,0,0,0,-0.3822000026702881
2.618226187,0,0,0,0,0,1.605239987373352
2.619225303,0,0,0,0,0,0.5350799560546875
2.6202246049999998,0,0,0,0,0,2.9811599254608154
2.621225221,0,0,0,0,0,0.611519992351532
2.622225467,0,0,0,0,0,0.2293200045824051
2.623239379,0,0,0,0,0,0.8408399820327759
2.62422557,0,0,0,0,0,-0.4586400091648102
2.625225205,0,0,0,0,0,0.611519992351532
2.626232303,0,0,0,0,0,-0.305759996175766
2.627226178,0,0,0,0,0,1.6816799640655518
2.628225535,0,0,0,0,0,1.6816799640655518
2.629225615,0,0,0,0,0,1.1466000080108643
2.630226898,0,0,0,0,0,3.4398000240325928
2.63122544,0,0,0,0,0,0
2.632225575,0,0,0,0,0,1.5288000106811523
2.633225469,0,0,0,0,0,0
2.634226344,0,0,0,0,0,0
2.635225702,0,0,0,0,0,0.5350799560546875
2.636225151,0,0,0,0,0,0.2293200045824051
2.637225582,0,0,0,0,0,2.14031982421875
2.638226476,0,0,0,0,0,0.9172800183296204
2.6392255369999997,0,0,0,0,0,1.9109998941421509
2.640225598,0,0,0,0,0,1.5288000106811523
2.641225159,0,0,0,0,0,-0.4586400091648102
2.642226349,0,0,0,0,0,1.070159912109375
2.643225799,0,0,0,0,0,-0.7644000053405762
2.6442256,0,0,0,0,0,0.9172800183296204
2.645225087,0,0,0,0,0,-0.3822000026702881
2.646226611,0,0,0,0,0,1.2994799613952637
2.647225524,0,0,0,0,0,1.375920057296753
2.648225436,0,0,0,0,0,1.223039984703064
2.649225627,0,0,0,0,0,3.2869198322296143
2.6502262610000002,0,0,0,0,0,0.7644000053405762
2.651225415,0,0,0,0,0,0.0764399990439415
2.652225661,0,0,0,0,0,0.611519992351532
2.653225629,0,0,0,0,0,-0.3822000026702881
2.6542257080000002,0,0,0,0,0,1.5288000106811523
2.655225584,0,0,0,0,0,0.611519992351532
2.656225348,0,0,0,0,0,2.828279972076416
2.65722565,0,0,0,0,0,2.14031982421875
2.65822747,0,0,0,0,0,2.2167599201202393
2.659225494,0,0,0,0,0,2.446079969406128
2.660225666,0,0,0,0,0,0
2.661225652,0,0,0,0,0,0.9937199950218201
2.662226361,0,0,0,0,0,-0.6879600286483765
2.663225237,0,0,0,0,0,-0.152879998087883
2.664225353,0,0,0,0,0,1.1466000080108643
2.665225581,0,0,0,0,0,0
2.666226049,0,0,0,0,0,2.2932000160217285
2.667225091,0,0,0,0,0,0.9172800183296204
2.668225763,0,0,0,0,0,2.904719829559326
2.669225565,0,0,0,0,0,1.375920057296753
2.6702249399999998,0,0,0,0,0,-0.2293200045824051
2.671222631,0,0,0,0,0,1.8345600366592407
2.672222747,0,0,0,0,0,-0.8408399820327759
2.673222419,0,0,0,0,0,0.4586400091648102
2.674226146,0,0,0,0,0,1.605239987373352
2.675225466,0,0,0,0,0,0.9172800183296204
2.676225175,0,0,0,0,0,2.9811599254608154
2.67722531,0,0,0,0,0,0.9172800183296204
2.678226038,0,0,0,0,0,2.904719829559326
2.679225358,0,0,0,0,0,2.2167599201202393
2.680225159,0,0,0,0,0,-0.3822000026702881
2.68122522,0,0,0,0,0,1.758120059967041
2.682224836,0,0,0,0,0,-0.6879600286483765
2.683222508,0,0,0,0,0,0
2.684222587,0,0,0,0,0,1.9109998941421509
2.685222408,0,0,0,0,0,0
2.686226061,0,0,0,0,0,2.5989599227905273
2.687225362,0,0,0,0,0,1.9109998941421509
2.688224719,0,0,0,0,0,0.9937199950218201
2.68922528,0,0,0,0,0,2.6754000186920166
2.6902259710000003,0,0,0,0,0,-0.8408399820327759
2.691225346,0,0,0,0,0,0.4586400091648102
2.692225166,0,0,0,0,0,0
2.69322519,0,0,0,0,0,-0.4586400091648102
2.694226177,0,0,0,0,0,1.8345600366592407
2.695232423,0,0,0,0,0,0.6879600286483765
2.696316705,0,0,0,0,0,0.611519992351532
2.697242396,0,0,0,0,0,2.5989599227905273
2.698230105,0,0,0,0,0,1.452359914779663
2.699225407,0,0,0,0,0,2.446079969406128
2.700225134,0,0,0,0,0,0.8408399820327759
2.701225213,0,0,0,0,0,0.0764399990439415
2.702226108,0,0,0,0,0,1.223039984703064
2.703225372,0,0,0,0,0,-0.2293200045824051
2.704225174,0,0,0,0,0,0.0764399990439415
2.70522516,0,0,0,0,0,0.9937199950218201
2.706225721,0,0,0,0,0,0.4586400091648102
2.707225171,0,0,0,0,0,1.1466000080108643
2.70822512,0,0,0,0,0,2.06387996673584
2.709224644,0,0,0,0,0,2.2932000160217285
2.710225983,0,0,0,0,0,2.14031982421875
2.711225432,0,0,0,0,0,1.605239987373352
2.712225364,0,0,0,0,0,0.3822000026702881
2.713225184,0,0,0,0,0,0.305759996175766
2.714224781,0,0,0,0,0,0.3822000026702881
2.715222527,0,0,0,0,0,0.2293200045824051
2.716222514,0,0,0,0,0,0.7644000053405762
2.717222445,0,0,0,0,0,1.223039984703064
2.718226025,0,0,0,0,0,1.1466000080108643
2.719225104,0,0,0,0,0,1.8345600366592407
2.720224794,0,0,0,0,0,1.9874399900436401
2.721224948,0,0,0,0,0,1.5288000106811523
2.72222586,0,0,0,0,0,1.6816799640655518
2.723224699,0,0,0,0,0,0.305759996175766
2.724225,0,0,0,0,0,0.152879998087883
2.725224913,0,0,0,0,0,0.8408399820327759
2.726232696,0,0,0,0,0,0.305759996175766
2.727225664,0,0,0,0,0,0.5350799560546875
2.728225003,0,0,0,0,0,1.375920057296753
2.729224823,0,0,0,0,0,0.8408399820327759
2.730225958,0,0,0,0,0,1.2994799613952637
2.731224518,0,0,0,0,0,2.5989599227905273
2.732224709,0,0,0,0,0,1.2994799613952637
2.733224844,0,0,0,0,0,1.452359914779663
2.734225812,0,0,0,0,0,0.9172800183296204
2.735224873,0,0,0,0,0,0
2.736224934,0,0,0,0,0,1.375920057296753
2.737224717,0,0,0,0,0,1.2994799613952637
2.7382257770000002,0,0,0,0,0,0.305759996175766
2.739224912,0,0,0,0,0,1.1466000080108643
2.740224769,0,0,0,0,0,1.6816799640655518
2.741224812,0,0,0,0,0,0.3822000026702881
2.742227817,0,0,0,0,0,1.375920057296753
2.743224878,0,0,0,0,0,2.06387996673584
2.7442248830000002,0,0,0,0,0,1.070159912109375
2.745224832,0,0,0,0,0,1.223039984703064
2.746225986,0,0,0,0,0,1.5288000106811523
2.747224991,0,0,0,0,0,0.611519992351532
2.748224978,0,0,0,0,0,1.1466000080108643
2.749224483,0,0,0,0,0,1.070159912109375
2.750225859,0,0,0,0,0,0.0764399990439415
2.751224956,0,0,0,0,0,0.3822000026702881
2.752225147,0,0,0,0,0,1.070159912109375
2.753224689,0,0,0,0,0,0.5350799560546875
2.754226009,0,0,0,0,0,0.152879998087883
2.7552251439999997,0,0,0,0,0,1.6816799640655518
2.756225094,0,0,0,0,0,1.375920057296753
2.757225284,0,0,0,0,0,1.605239987373352
2.758225863,0,0,0,0,0,2.14031982421875
2.759224998,0,0,0,0,0,0.9172800183296204
2.7602248,0,0,0,0,0,0.3822000026702881
2.761224861,0,0,0,0,0,1.375920057296753
2.762225995,0,0,0,0,0,0.6879600286483765
2.76322489,0,0,0,0,0,0.5350799560546875
2.764225006,0,0,0,0,0,1.375920057296753
2.765224715,0,0,0,0,0,0.9172800183296204
2.7662261089999998,0,0,0,0,0,0.8408399820327759
2.767224873,0,0,0,0,0,0.4586400091648102
2.768226323,0,0,0,0,0,0.9172800183296204
2.769224976,0,0,0,0,0,0.9937199950218201
2.770225704,0,0,0,0,0,1.6816799640655518
2.771224876,0,0,0,0,0,1.6816799640655518
2.7722253070000002,0,0,0,0,0,1.2994799613952637
2.773225405,0,0,0,0,0,1.1466000080108643
2.77422354,0,0,0,0,0,1.2994799613952637
2.77522273,0,0,0,0,0,0.5350799560546875
2.7762225320000002,0,0,0,0,0,0.152879998087883
2.7772225,0,0,0,0,0,1.452359914779663
2.778225875,0,0,0,0,0,0.611519992351532
2.779225362,0,0,0,0,0,0.5350799560546875
2.78022483,0,0,0,0,0,0.5350799560546875
2.7812250020000002,0,0,0,0,0,0.5350799560546875
2.782225119,0,0,0,0,0,1.452359914779663
2.783225124,0,0,0,0,0,1.1466000080108643
2.784224962,0,0,0,0,0,1.605239987373352
2.785224875,0,0,0,0,0,1.9874399900436401
2.786228491,0,0,0,0,0,0.9172800183296204
2.787226163,0,0,0,0,0,1.375920057296753
2.788225113,0,0,0,0,0,1.452359914779663
2.7892249700000002,0,0,0,0,0,0.9172800183296204
2.7902260119999998,0,0,0,0,0,0.6879600286483765
2.791224906,0,0,0,0,0,1.223039984703064
2.792224967,0,0,0,0,0,0.8408399820327759
2.793225046,0,0,0,0,0,0.5350799560546875
2.794240607,0,0,0,0,0,0.0764399990439415
2.79522552,0,0,0,0,0,0.5350799560546875
2.796224766,0,0,0,0,0,0.9172800183296204
2.797225067,0,0,0,0,0,0.611519992351532
2.79822585,0,0,0,0,0,1.5288000106811523
2.799224948,0,0,0,0,0,2.06387996673584
2.800224787,0,0,0,0,0,1.758120059967041
2.801224903,0,0,0,0,0,1.375920057296753
2.802225964,0,0,0,0,0,1.223039984703064
2.803224802,0,0,0,0,0,1.1466000080108643
2.80422503,0,0,0,0,0,1.070159912109375
2.805224998,0,0,0,0,0,1.2994799613952637
2.806225948,0,0,0,0,0,0.7644000053405762
2.8072262119999998,0,0,0,0,0,0.7644000053405762
2.8082432170000002,0,0,0,0,0,0.4586400091648102
2.809226556,0,0,0,0,0,-0.152879998087883
2.8102268390000003,0,0,0,0,0,0
2.811225067,0,0,0,0,0,0.6879600286483765
2.812225257,0,0,0,0,0,0.5350799560546875
2.8132247809999997,0,0,0,0,0,1.9109998941421509
2.814225712,0,0,0,0,0,2.446079969406128
2.815224828,0,0,0,0,0,2.2932000160217285
2.816224796,0,0,0,0,0,2.06387996673584
2.817225931,0,0,0,0,0,1.2994799613952637
2.818225825,0,0,0,0,0,1.223039984703064
2.819225108,0,0,0,0,0,0.9937199950218201
2.820224984,0,0,0,0,0,0.611519992351532
2.821224989,0,0,0,0,0,1.070159912109375
2.8222258460000003,0,0,0,0,0,1.1466000080108643
2.823225129,0,0,0,0,0,1.1466000080108643
2.824224894,0,0,0,0,0,0.611519992351532
2.825225084,0,0,0,0,0,0.611519992351532
2.826233515,0,0,0,0,0,0.6879600286483765
2.827226039,0,0,0,0,0,1.1466000080108643
2.82822547,0,0,0,0,0,0.8408399820327759
2.829225198,0,0,0,0,0,1.2994799613952637
2.830226796,0,0,0,0,0,1.6816799640655518
2.831225171,0,0,0,0,0,1.8345600366592407
2.832225547,0,0,0,0,0,1.2994799613952637
2.833225367,0,0,0,0,0,0.5350799560546875
2.834226335,0,0,0,0,0,1.375920057296753
2.835225266,0,0,0,0,0,1.223039984703064
2.836225401,0,0,0,0,0,1.2994799613952637
2.837225147,0,0,0,0,0,1.375920057296753
2.838226208,0,0,0,0,0,0.9172800183296204
2.839225083,0,0,0,0,0,1.070159912109375
2.840225144,0,0,0,0,0,0.4586400091648102
2.841235316,0,0,0,0,0,-0.152879998087883
2.8422267100000003,0,0,0,0,0,0.3822000026702881
2.843225345,0,0,0,0,0,0
2.844225369,0,0,0,0,0,0.611519992351532
2.845225226,0,0,0,0,0,1.452359914779663
2.84622625,0,0,0,0,0,1.6816799640655518
2.847225329,0,0,0,0,0,1.8345600366592407
2.8482254449999997,0,0,0,0,0,1.758120059967041
2.849225247,0,0,0,0,0,2.14031982421875
2.850226048,0,0,0,0,0,1.2994799613952637
2.851225294,0,0,0,0,0,1.070159912109375
2.852225114,0,0,0,0,0,1.070159912109375
2.853225508,0,0,0,0,0,1.2994799613952637
2.8542274770000002,0,0,0,0,0,1.2994799613952637
2.855222686,0,0,0,0,0,0.8408399820327759
2.856222339,0,0,0,0,0,0.8408399820327759
2.857222029,0,0,0,0,0,0.7644000053405762
2.858226479,0,0,0,0,0,0.152879998087883
2.859243706,0,0,0,0,0,0.3822000026702881
2.8603344699999997,0,0,0,0,0,0.2293200045824051
2.861228272,0,0,0,0,0,0.6879600286483765
2.8622610550000003,0,0,0,0,0,0.7644000053405762
2.863228913,0,0,0,0,0,1.6816799640655518
2.864225418,0,0,0,0,0,1.9109998941421509
2.865226867,0,0,0,0,0,1.452359914779663
2.8662333540000002,0,0,0,0,0,2.2932000160217285
2.867225693,0,0,0,0,0,1.605239987373352
2.868225642,0,0,0,0,0,1.8345600366592407
2.869225833,0,0,0,0,0,1.2994799613952637
2.870226745,0,0,0,0,0,0.4586400091648102
2.871225806,0,0,0,0,0,1.758120059967041
2.872225774,0,0,0,0,0,1.1466000080108643
2.873225483,0,0,0,0,0,1.1466000080108643
2.8742381740000003,0,0,0,0,0,1.375920057296753
2.875225809,0,0,0,0,0,0.611519992351532
2.876225166,0,0,0,0,0,0.4586400091648102
2.877226449,0,0,0,0,0,0.0764399990439415
2.878226398,0,0,0,0,0,0.8408399820327759
2.879225107,0,0,0,0,0,0.305759996175766
2.880225576,0,0,0,0,0,0.5350799560546875
2.881225229,0,0,0,0,0,1.2994799613952637
2.882225568,0,0,0,0,0,0.9172800183296204
2.883225443,0,0,0,0,0,2.14031982421875
2.884224985,0,0,0,0,0,1.8345600366592407
2.8852252309999997,0,0,0,0,0,1.070159912109375
2.886226311,0,0,0,0,0,1.8345600366592407
2.887263593,0,0,0,0,0,1.2994799613952637
2.88823008,0,0,0,0,0,0.9937199950218201
2.889226715,0,0,0,0,0,1.6816799640655518
2.890228591,0,0,0,0,0,0.7644000053405762
2.891226892,0,0,0,0,0,0.3822000026702881
2.892226638,0,0,0,0,0,0.6879600286483765
2.893226458,0,0,0,0,0,0.9172800183296204
2.894227852,0,0,0,0,0,0.9937199950218201
2.895226728,0,0,0,0,0,0.9937199950218201
2.8962263630000002,0,0,0,0,0,0.8408399820327759
2.89722622,0,0,0,0,0,0.2293200045824051
2.898227466,0,0,0,0,0,0.2293200045824051
2.899226527,0,0,0,0,0,1.070159912109375
2.90022631,0,0,0,0,0,0.6879600286483765
2.901226426,0,0,0,0,0,0.9172800183296204
2.902227635,0,0,0,0,0,1.1466000080108643
2.903226196,0,0,0,0,0,1.1466000080108643
2.9042261639999998,0,0,0,0,0,1.5288000106811523
2.905244447,0,0,0,0,0,1.1466000080108643
2.906227767,0,0,0,0,0,1.452359914779663
2.907226161,0,0,0,0,0,1.605239987373352
2.908226148,0,0,0,0,0,1.1466000080108643
2.909226264,0,0,0,0,0,1.223039984703064
2.910236918,0,0,0,0,0,1.1466000080108643
2.911358125,0,0,0,0,0,1.375920057296753
2.912482036,0,0,0,0,0,1.1466000080108643
2.913315062,0,0,0,0,0,1.452359914779663
2.914256123,0,0,0,0,0,1.070159912109375
2.9152336290000003,0,0,0,0,0,0.4586400091648102
2.916229134,0,0,0,0,0,1.070159912109375
2.91826794,0,0,0,0,0,1.223039984703064
2.9184651600000002,0,0,0,0,0,1.223039984703064
2.919248539,0,0,0,0,0,1.1466000080108643
2.920229303,0,0,0,0,0,1.070159912109375
2.92122679,0,0,0,0,0,1.070159912109375
2.922225703,0,0,0,0,0,0.7644000053405762
2.923224449,0,0,0,0,0,0.611519992351532
2.92422475,0,0,0,0,0,0.9937199950218201
2.925223718,0,0,0,0,0,1.223039984703064
2.9262313349999998,0,0,0,0,0,1.223039984703064
2.927225673,0,0,0,0,0,0.8408399820327759
2.928224086,0,0,0,0,0,0.4586400091648102
2.929225906,0,0,0,0,0,0.611519992351532
2.930226356,0,0,0,0,0,0.7644000053405762
2.931226102,0,0,0,0,0,1.223039984703064
2.932224162,0,0,0,0,0,1.452359914779663
2.9332245009999998,0,0,0,0,0,1.5288000106811523
2.934236654,0,0,0,0,0,1.223039984703064
2.9352283999999997,0,0,0,0,0,1.375920057296753
2.936228054,0,0,0,0,0,0.6879600286483765
2.937227577,0,0,0,0,0,0.9937199950218201
2.938228749,0,0,0,0,0,1.223039984703064
2.939228088,0,0,0,0,0,1.1466000080108643
2.9402271300000002,0,0,0,0,0,1.452359914779663
2.941226709,0,0,0,0,0,0.8408399820327759
2.942227085,0,0,0,0,0,0.8408399820327759
2.943226887,0,0,0,0,0,0.6879600286483765
2.94422704,0,0,0,0,0,0.5350799560546875
2.945802649,0,0,0,0,0,1.375920057296753
2.947237037,0,0,0,0,0,0.9937199950218201
2.947403738,0,0,0,0,0,1.223039984703064
2.948233542,0,0,0,0,0,1.070159912109375
2.949229436,0,0,0,0,0,1.452359914779663
2.950230127,0,0,0,0,0,0.7644000053405762
2.951306372,0,0,0,0,0,0.611519992351532
2.952574373,0,0,0,0,0,0.611519992351532
2.953288438,0,0,0,0,0,0.9172800183296204
2.954273388,0,0,0,0,0,1.375920057296753
2.955265616,0,0,0,0,0,1.223039984703064
2.956333287,0,0,0,0,0,1.5288000106811523
2.957302311,0,0,0,0,0,1.2994799613952637
2.958306205,0,0,0,0,0,0.7644000053405762
2.959265951,0,0,0,0,0,0.5350799560546875
2.960252568,0,0,0,0,0,0.8408399820327759
2.961248277,0,0,0,0,0,0.4586400091648102
2.962244856,0,0,0,0,0,1.452359914779663
2.963281916,0,0,0,0,0,1.6816799640655518
2.964239922,0,0,0,0,0,1.9874399900436401
2.965258723,0,0,0,0,0,1.605239987373352
2.9664422630000002,0,0,0,0,0,1.223039984703064
2.967254252,0,0,0,0,0,0.6879600286483765
2.968228851,0,0,0,0,0,0.611519992351532
