Time,AccelX1,AccelY1,AccelZ1,AccelX2,AccelY2,AccelZ2
0.000012926,0,0,1.4844050407409668,0,0,0.8408399820327759
0.008985269,0,0,1.4844050407409668,0,0,0.7644000053405762
0.009184378,0,0,1.4844050407409668,0,0,0.7644000053405762
0.009355209,0,0,1.4844050407409668,0,0,0.611519992351532
0.009532151,0,0,1.4844050407409668,0,0,0.611519992351532
0.009708223,0,0,1.5298948287963867,0,0,1.452359914779663
0.009887905,0,0,1.5298948287963867,0,0,1.452359914779663
0.010057385,0,0,1.5298948287963867,0,0,1.2994799613952637
0.01024629,0,0,1.5298948287963867,0,0,1.2994799613952637
0.010416491,0,0,1.5298948287963867,0,0,1.223039984703064
0.010587729,0,0,1.501164436340332,0,0,0.6879600286483765
0.011257887,0,0,1.5610195398330688,0,0,0.8408399820327759
0.012288003,0,0,1.4437036514282227,0,0,0.9172800183296204
0.013259564,0,0,1.335964560508728,0,0,0.6879600286483765
0.014250181,0,0,1.4508862495422363,0,0,0.7644000053405762
0.015244001,0,0,1.4508862495422363,0,0,0.9172800183296204
0.016237839,0,0,1.400607943534851,0,0,1.070159912109375
0.0172344,0,0,1.3479355573654175,0,0,0.9172800183296204
0.018236238,0,0,1.4460978507995605,0,0,0.611519992351532
0.019231373,0,0,1.4939818382263184,0,0,0.7644000053405762
0.020243619,0,0,1.5729905366897583,0,0,1.070159912109375
0.021232976,0,0,1.5490485429763794,0,0,0.7644000053405762
0.022234259,0,0,1.4987702369689941,0,0,0.9172800183296204
0.023234135,0,0,1.4772224426269531,0,0,0.8408399820327759
0.024225621,0,0,1.3239935636520386,0,0,0.9172800183296204
0.025224812,0,0,1.3503297567367554,0,0,0.9937199950218201
0.026228354,0,0,1.4101848602294922,0,0,0.8408399820327759
0.027224267,0,0,1.335964560508728,0,0,0.9172800183296204
0.028226235,0,0,1.3958195447921753,0,0,1.070159912109375
0.029229481,0,0,1.4844050407409668,0,0,0.8408399820327759
0.030238893,0,0,1.5059528350830078,0,0,0.611519992351532
0.03122488,0,0,1.558625340461731,0,0,0.9172800183296204
0.032223941,0,0,1.460463047027588,0,0,0.3822000026702881
0.033228149,0,0,1.3335703611373901,0,0,0.8408399820327759
0.036272387,0,0,1.3335703611373901,0,0,0.9172800183296204
0.03644044,0,0,1.3335703611373901,0,0,0.9172800183296204
0.036607641,0,0,1.3886369466781616,0,0,0.7644000053405762
0.037245003,0,0,1.4053963422775269,0,0,0.8408399820327759
0.038228138,0,0,1.3862427473068237,0,0,0.7644000053405762
0.039224292,0,0,1.400607943534851,0,0,1.070159912109375
0.040223815,0,0,1.4269442558288574,0,0,0.8408399820327759
0.041223802,0,0,1.4987702369689941,0,0,0.8408399820327759
0.042225677,0,0,1.5394717454910278,0,0,0.5350799560546875
0.043223683,0,0,1.4939818382263184,0,0,0.305759996175766
0.044223873,0,0,1.5107412338256836,0,0,0.6879600286483765
0.045223693,0,0,1.5203180313110352,0,0,1.1466000080108643
0.046226587,0,0,1.3407529592514038,0,0,0.7644000053405762
0.047223611,0,0,1.3646949529647827,0,0,0.8408399820327759
0.048223394,0,0,1.4532804489135742,0,0,1.223039984703064
0.049223843,0,0,1.3455413579940796,0,0,0.9172800183296204
0.05022433,0,0,1.3215993642807007,0,0,0.8408399820327759
0.051223465,0,0,1.3527239561080933,0,0,0.6879600286483765
0.05222347,0,0,1.4221558570861816,0,0,0.7644000053405762
0.053223753,0,0,1.4748282432556152,0,0,0.7644000053405762
0.054227777,0,0,1.5275006294250488,0,0,0.5350799560546875
0.055226948,0,0,1.5538369417190552,0,0,0.9172800183296204
0.05622675,0,0,1.5131354331970215,0,0,0.9937199950218201
0.057226607,0,0,1.3718775510787964,0,0,0.7644000053405762
0.058227797,0,0,1.3551181554794312,0,0,1.1466000080108643
0.059226562,0,0,1.4221558570861816,0,0,0.9172800183296204
0.060226604,0,0,1.3287819623947144,0,0,0.8408399820327759
0.06123085,0,0,1.4724340438842773,0,0,0.8408399820327759
0.062228096,0,0,1.4628572463989258,0,0,0.6879600286483765
0.063226712,0,0,1.5179238319396973,0,0,0.9172800183296204
0.064228217,0,0,1.5514427423477173,0,0,1.070159912109375
0.065248926,0,0,1.6089035272598267,0,0,0.7644000053405762
0.06623019,0,0,1.5514427423477173,0,0,0.6879600286483765
0.067226918,0,0,1.5131354331970215,0,0,0.7644000053405762
0.068226442,0,0,1.3623007535934448,0,0,0.611519992351532
0.069226484,0,0,1.3742717504501343,0,0,0.7644000053405762
0.070227822,0,0,1.41257905960083,0,0,0.9937199950218201
0.071226494,0,0,1.3431471586227417,0,0,0.9937199950218201
0.072226481,0,0,1.3718775510787964,0,0,0.9937199950218201
0.073226079,0,0,1.357512354850769,0,0,0.6879600286483765
0.074227769,0,0,1.4772224426269531,0,0,0.611519992351532
0.075226404,0,0,1.482010841369629,0,0,0.9172800183296204
0.076251353,0,0,1.4987702369689941,0,0,0.7644000053405762
0.077231729,0,0,1.5322890281677246,0,0,0.7644000053405762
0.078226753,0,0,1.50355863571167,0,0,0.8408399820327759
0.079226424,0,0,1.414973258972168,0,0,0.9172800183296204
0.080226448,0,0,1.3646949529647827,0,0,0.8408399820327759
0.081226527,0,0,1.4053963422775269,0,0,0.9172800183296204
0.082227681,0,0,1.4101848602294922,0,0,0.6879600286483765
0.083226556,0,0,1.4724340438842773,0,0,0.9172800183296204
0.084226321,0,0,1.381454348564148,0,0,0.7644000053405762
0.085226678,0,0,1.580173134803772,0,0,1.070159912109375
0.086227461,0,0,1.577778935432434,0,0,0.9937199950218201
0.087226669,0,0,1.5322890281677246,0,0,0.4586400091648102
0.088226471,0,0,1.6496049165725708,0,0,0.7644000053405762
0.089227032,0,0,1.5945383310317993,0,0,0.9172800183296204
0.090227722,0,0,1.3407529592514038,0,0,0.9172800183296204
0.091226135,0,0,1.4077905416488647,0,0,0.9172800183296204
0.092239325,0,0,1.4077905416488647,0,0,0.9172800183296204
0.093227497,0,0,1.338358759880066,0,0,0.6879600286483765
0.094227872,0,0,1.4101848602294922,0,0,0.9172800183296204
0.095226118,0,0,1.3646949529647827,0,0,0.8408399820327759
0.09622629,0,0,1.4867992401123047,0,0,0.8408399820327759
0.097226443,0,0,1.558625340461731,0,0,0.9172800183296204
0.098228152,0,0,1.4077905416488647,0,0,0.8408399820327759
0.099226083,0,0,1.5179238319396973,0,0,0.611519992351532
0.100226626,0,0,1.4676456451416016,0,0,0.9937199950218201
0.101226575,0,0,1.403002142906189,0,0,0.611519992351532
0.102227599,0,0,1.4101848602294922,0,0,0.9937199950218201
0.103226567,0,0,1.400607943534851,0,0,0.8408399820327759
0.104226443,0,0,1.4389152526855469,0,0,0.8408399820327759
0.105236596,0,0,1.4508862495422363,0,0,0.8408399820327759
0.106275082,0,0,1.3742717504501343,0,0,0.8408399820327759
0.107275087,0,0,1.5155296325683594,0,0,0.4586400091648102
0.10823887,0,0,1.5610195398330688,0,0,1.070159912109375
0.109287838,0,0,1.5083470344543457,0,0,0.611519992351532
0.11033462,0,0,1.4389152526855469,0,0,0.9172800183296204
0.111371199,0,0,1.5490485429763794,0,0,0.8408399820327759
0.112389482,0,0,1.4508862495422363,0,0,0.9172800183296204
0.113260007,0,0,1.3670891523361206,0,0,0.9172800183296204
0.114244642,0,0,1.3455413579940796,0,0,0.9172800183296204
0.115250073,0,0,1.338358759880066,0,0,0.6879600286483765
0.116242041,0,0,1.4053963422775269,0,0,0.9937199950218201
0.117227899,0,0,1.278503656387329,0,0,1.1466000080108643
0.118230348,0,0,1.3958195447921753,0,0,0.9172800183296204
0.11922652,0,0,1.45806884765625,0,0,0.9937199950218201
0.120226562,0,0,1.5394717454910278,0,0,0.5350799560546875
0.12122653,0,0,1.601720929145813,0,0,0.9172800183296204
0.122240369,0,0,1.5107412338256836,0,0,0.9937199950218201
0.123227726,0,0,1.3862427473068237,0,0,0.8408399820327759
0.124226842,0,0,1.3335703611373901,0,0,0.6879600286483765
0.125226236,0,0,1.338358759880066,0,0,0.6879600286483765
0.126227779,0,0,1.3335703611373901,0,0,0.9172800183296204
0.127226413,0,0,1.3479355573654175,0,0,0.8408399820327759
0.128225715,0,0,1.4197616577148438,0,0,0.9172800183296204
0.129248349,0,0,1.4317326545715332,0,0,0.8408399820327759
0.130229521,0,0,1.434126853942871,0,0,0.7644000053405762
0.131226749,0,0,1.4532804489135742,0,0,0.7644000053405762
0.132226235,0,0,1.501164436340332,0,0,0.611519992351532
0.133226537,0,0,1.434126853942871,0,0,0.9937199950218201
0.134227616,0,0,1.41257905960083,0,0,0.7644000053405762
0.135226344,0,0,1.4173674583435059,0,0,0.7644000053405762
0.136226238,0,0,1.4676456451416016,0,0,0.9937199950218201
0.137226187,0,0,1.4197616577148438,0,0,0.9172800183296204
0.138227359,0,0,1.3886369466781616,0,0,1.1466000080108643
0.139226142,0,0,1.3910311460494995,0,0,0.6879600286483765
0.140241554,0,0,1.4891934394836426,0,0,0.9172800183296204
0.141243708,0,0,1.4844050407409668,0,0,0.8408399820327759
0.142444414,0,0,1.482010841369629,0,0,0.7644000053405762
0.143240255,0,0,1.5418659448623657,0,0,0.7644000053405762
0.144227205,0,0,1.5634137392044067,0,0,0.9172800183296204
0.145226636,0,0,1.4748282432556152,0,0,0.4586400091648102
0.146333343,0,0,1.2761094570159912,0,0,0.5350799560546875
0.147261905,0,0,1.314416766166687,0,0,0.9172800183296204
0.148228855,0,0,1.3287819623947144,0,0,0.6879600286483765
0.149237249,0,0,1.2545616626739502,0,0,20.409481048583984
0.150260328,0,0,1.3263877630233765,0,0,0
0.151264648,0,0,1.455674648284912,0,0,0.611519992351532
0.152239228,0,0,1.5322890281677246,0,0,0.8408399820327759
0.153235251,0,0,1.5107412338256836,0,0,0.6879600286483765
0.154243386,0,0,1.501164436340332,0,0,0.7644000053405762
0.155241817,0,0,1.4963760375976563,0,0,0.5350799560546875
0.156241989,0,0,1.414973258972168,0,0,0.611519992351532
0.15726492,0,0,1.3096283674240112,0,0,1.223039984703064
0.158244684,0,0,1.2856862545013428,0,0,0.8408399820327759
0.159237468,0,0,1.3263877630233765,0,0,1.070159912109375
0.160235084,0,0,1.3048399686813354,0,0,0.9172800183296204
0.161237496,0,0,1.3551181554794312,0,0,0.9937199950218201
0.162242613,0,0,1.4460978507995605,0,0,0.9172800183296204
0.163254729,0,0,1.4700398445129395,0,0,1.070159912109375
0.164251827,0,0,1.4676456451416016,0,0,0.7644000053405762
0.165236202,0,0,1.5442601442337036,0,0,0.611519992351532
0.166238096,0,0,1.5442601442337036,0,0,1.1466000080108643
0.16726886,0,0,1.3646949529647827,0,0,0.9172800183296204
0.168235236,0,0,1.3215993642807007,0,0,0.7644000053405762
0.169225297,0,0,1.4748282432556152,0,0,0.6879600286483765
0.17022945,0,0,1.3694833517074585,0,0,0.8408399820327759
0.171447823,0,0,1.3287819623947144,0,0,0.7644000053405762
0.172238738,0,0,1.335964560508728,0,0,0.611519992351532
0.173387908,0,0,1.45806884765625,0,0,0.7644000053405762
0.174275915,0,0,1.4676456451416016,0,0,0.6879600286483765
0.175258309,0,0,1.4939818382263184,0,0,0.3822000026702881
0.176257426,0,0,1.5059528350830078,0,0,0.7644000053405762
0.177249672,0,0,1.4508862495422363,0,0,1.070159912109375
0.178251214,0,0,1.3862427473068237,0,0,0.4586400091648102
0.179255052,0,0,1.3982137441635132,0,0,0.9937199950218201
0.18024952,0,0,1.3694833517074585,0,0,0.7644000053405762
0.181254618,0,0,1.3623007535934448,0,0,0.8408399820327759
0.182481991,0,0,1.3934253454208374,0,0,0.8408399820327759
0.18327098,0,0,1.3287819623947144,0,0,0.6879600286483765
0.184250134,0,0,1.4101848602294922,0,0,0.611519992351532
0.185261639,0,0,1.5275006294250488,0,0,0.8408399820327759
0.186277958,0,0,1.5538369417190552,0,0,0.5350799560546875
0.187255223,0,0,1.53707754611969,0,0,0.7644000053405762
0.188247266,0,0,1.460463047027588,0,0,1.1466000080108643
0.189271011,0,0,1.4269442558288574,0,0,0.9937199950218201
0.190265702,0,0,1.4221558570861816,0,0,1.070159912109375
0.191258855,0,0,1.4077905416488647,0,0,0.8408399820327759
0.192255675,0,0,1.3742717504501343,0,0,0.8408399820327759
0.193247754,0,0,1.3311761617660522,0,0,0.7644000053405762
0.194253908,0,0,1.3982137441635132,0,0,0
0.195252561,0,0,1.5203180313110352,0,0,0.611519992351532
0.196239233,0,0,1.5969325304031372,0,0,0.9172800183296204
0.197222794,0,0,1.5179238319396973,0,0,0.611519992351532
0.198233651,0,0,1.4460978507995605,0,0,0.6879600286483765
0.199223841,0,0,1.4652514457702637,0,0,0.7644000053405762
0.200222624,0,0,1.3694833517074585,0,0,1.070159912109375
0.201222259,0,0,1.3718775510787964,0,0,0.7644000053405762
0.202224135,0,0,1.3407529592514038,0,0,0.9172800183296204
0.203222751,0,0,1.3335703611373901,0,0,0.9937199950218201
0.204222293,0,0,1.3958195447921753,0,0,0.9172800183296204
0.205222502,0,0,1.3551181554794312,0,0,0.8408399820327759
0.20624034,0,0,1.4221558570861816,0,0,0.6879600286483765
0.20722829,0,0,1.4269442558288574,0,0,0.8408399820327759
0.208222351,0,0,1.4508862495422363,0,0,0.5350799560546875
0.209222449,0,0,1.5442601442337036,0,0,0.7644000053405762
0.210229676,0,0,1.5107412338256836,0,0,1.1466000080108643
0.211225366,0,0,1.41257905960083,0,0,0.9172800183296204
0.212224927,0,0,1.3718775510787964,0,0,0.9172800183296204
0.213224765,0,0,1.4293384552001953,0,0,1.070159912109375
0.214226178,0,0,1.3958195447921753,0,0,0.8408399820327759
0.21522548,0,0,1.3551181554794312,0,0,0.9937199950218201
0.216232225,0,0,1.3096283674240112,0,0,1.070159912109375
0.217224805,0,0,1.4389152526855469,0,0,0.9172800183296204
0.218225236,0,0,1.4891934394836426,0,0,0.9937199950218201
0.219225093,0,0,1.5107412338256836,0,0,0.8408399820327759
0.220224672,0,0,1.41257905960083,0,0,0.9937199950218201
0.221225011,0,0,1.4844050407409668,0,0,1.1466000080108643
0.222225071,0,0,1.414973258972168,0,0,0.6879600286483765
0.223224984,0,0,1.3886369466781616,0,0,0.7644000053405762
0.224224767,0,0,1.3623007535934448,0,0,0.7644000053405762
0.225225142,0,0,1.357512354850769,0,0,0.7644000053405762
0.226225425,0,0,1.359906554222107,0,0,0.9172800183296204
0.227224986,0,0,1.3263877630233765,0,0,0.4586400091648102
0.228225028,0,0,1.436521053314209,0,0,0.9937199950218201
0.229224756,0,0,1.5107412338256836,0,0,0.9172800183296204
0.230224983,0,0,1.5538369417190552,0,0,0.6879600286483765
0.231224729,0,0,1.436521053314209,0,0,0.9937199950218201
0.232224771,0,0,1.5083470344543457,0,0,1.1466000080108643
0.233224795,0,0,1.4437036514282227,0,0,0.7644000053405762
0.234224967,0,0,1.3431471586227417,0,0,0.9937199950218201
0.235224416,0,0,1.4101848602294922,0,0,0.9172800183296204
0.236224977,0,0,1.335964560508728,0,0,0.9172800183296204
0.237225001,0,0,1.3479355573654175,0,0,0.5350799560546875
0.238225061,0,0,1.2856862545013428,0,0,0.8408399820327759
0.239224289,0,0,1.4867992401123047,0,0,0.6879600286483765
0.240224794,0,0,1.4844050407409668,0,0,0.7644000053405762
0.241224873,0,0,1.4700398445129395,0,0,0.6879600286483765
0.242224823,0,0,1.4460978507995605,0,0,0.8408399820327759
0.243224884,0,0,1.4915876388549805,0,0,0.9172800183296204
0.244224963,0,0,1.381454348564148,0,0,0.6879600286483765
0.245752628,0,0,1.381454348564148,0,0,0.9172800183296204
0.246225288,0,0,1.3646949529647827,0,0,0.611519992351532
0.247224849,0,0,1.3503297567367554,0,0,0.8408399820327759
0.248351463,0,0,1.3934253454208374,0,0,0.8408399820327759
0.249226785,0,0,1.3694833517074585,0,0,0.8408399820327759
0.250225346,0,0,1.5275006294250488,0,0,0.8408399820327759
0.251225073,0,0,1.5729905366897583,0,0,0.8408399820327759
0.252225004,0,0,1.436521053314209,0,0,0.7644000053405762
0.253243176,0,0,1.4844050407409668,0,0,0.6879600286483765
0.254226515,0,0,1.522712230682373,0,0,0.6879600286483765
0.255225112,0,0,1.400607943534851,0,0,0.8408399820327759
0.256224821,0,0,1.3263877630233765,0,0,0.611519992351532
0.257243419,0,0,1.381454348564148,0,0,0.7644000053405762
0.25822748,0,0,1.3407529592514038,0,0,0.8408399820327759
0.259225059,0,0,1.335964560508728,0,0,1.070159912109375
0.260224212,0,0,1.400607943534851,0,0,0.8408399820327759
0.261224736,0,0,1.5466543436050415,0,0,0.6879600286483765
0.262227611,0,0,1.5634137392044067,0,0,0.9172800183296204
0.263225413,0,0,1.50355863571167,0,0,0.6879600286483765
0.264224733,0,0,1.4987702369689941,0,0,0.9172800183296204
0.265224886,0,0,1.5418659448623657,0,0,1.2994799613952637
0.26622604,0,0,1.3646949529647827,0,0,1.070159912109375
0.267224711,0,0,1.3000515699386597,0,0,0.9172800183296204
0.268224939,0,0,1.37906014919281,0,0,0.8408399820327759
0.269224759,0,0,1.4077905416488647,0,0,0.8408399820327759
0.270226023,0,0,1.359906554222107,0,0,0.8408399820327759
0.271224714,0,0,1.3479355573654175,0,0,0.9172800183296204
0.2722247,0,0,1.381454348564148,0,0,0.7644000053405762
0.273224946,0,0,1.4724340438842773,0,0,0.8408399820327759
0.274225822,0,0,1.5107412338256836,0,0,0.8408399820327759
0.275224901,0,0,1.4628572463989258,0,0,0.9172800183296204
0.276224999,0,0,1.5131354331970215,0,0,0.9937199950218201
0.277224911,0,0,1.3407529592514038,0,0,0.9937199950218201
0.278225398,0,0,1.3766659498214722,0,0,0.9172800183296204
0.279224977,0,0,1.4508862495422363,0,0,0.7644000053405762
0.280224668,0,0,1.381454348564148,0,0,0.7644000053405762
0.281324208,0,0,1.3670891523361206,0,0,0.9172800183296204
0.282226844,0,0,1.2713210582733154,0,0,0.8408399820327759
0.283225146,0,0,1.3503297567367554,0,0,0.611519992351532
0.284224836,0,0,1.5466543436050415,0,0,0.7644000053405762
0.285224879,0,0,1.4867992401123047,0,0,0.8408399820327759
0.286225495,0,0,1.4221558570861816,0,0,0.8408399820327759
0.287224926,0,0,1.4939818382263184,0,0,0.9937199950218201
0.28822469,0,0,1.479616641998291,0,0,1.070159912109375
0.289224696,0,0,1.37906014919281,0,0,0.611519992351532
0.290225478,0,0,1.3646949529647827,0,0,0.6879600286483765
0.291224928,0,0,1.3024457693099976,0,0,0.9172800183296204
0.292224563,0,0,1.3694833517074585,0,0,0.9937199950218201
0.293224679,0,0,1.403002142906189,0,0,0.4586400091648102
0.294225518,0,0,1.4867992401123047,0,0,0.7644000053405762
0.295224819,0,0,1.556231141090393,0,0,1.1466000080108643
0.296224658,0,0,1.4269442558288574,0,0,0.7644000053405762
0.297224459,0,0,1.3646949529647827,0,0,0.8408399820327759
0.298232835,0,0,1.3982137441635132,0,0,0.9172800183296204
0.299226044,0,0,1.4724340438842773,0,0,0.5350799560546875
0.300224882,0,0,1.3670891523361206,0,0,0.7644000053405762
0.301225202,0,0,1.3431471586227417,0,0,0.9937199950218201
0.302226244,0,0,1.3407529592514038,0,0,0.8408399820327759
0.303224657,0,0,1.3623007535934448,0,0,0.9172800183296204
0.304224755,0,0,1.4844050407409668,0,0,0.9172800183296204
0.305225352,0,0,1.5131354331970215,0,0,0.8408399820327759
0.306226246,0,0,1.4772224426269531,0,0,0.9937199950218201
0.307225159,0,0,1.403002142906189,0,0,0.305759996175766
0.308225201,0,0,1.3862427473068237,0,0,1.070159912109375
0.309225188,0,0,1.4652514457702637,0,0,0.9937199950218201
0.310224804,0,0,1.3958195447921753,0,0,0.7644000053405762
0.31122255,0,0,1.3503297567367554,0,0,0.9172800183296204
0.312222555,0,0,1.3479355573654175,0,0,1.070159912109375
0.313222597,0,0,1.2832920551300049,0,0,0.9172800183296204
0.314225714,0,0,1.3239935636520386,0,0,0.7644000053405762
0.315224997,0,0,1.400607943534851,0,0,0.7644000053405762
0.316224761,0,0,1.436521053314209,0,0,0.9172800183296204
0.317224729,0,0,1.4891934394836426,0,0,0.6879600286483765
0.318225457,0,0,1.525106430053711,0,0,0.9172800183296204
0.319263628,0,0,1.5155296325683594,0,0,0.8408399820327759
0.320247022,0,0,1.4317326545715332,0,0,1.1466000080108643
0.321231416,0,0,1.400607943534851,0,0,0.8408399820327759
0.322227403,0,0,1.3407529592514038,0,0,0.6879600286483765
0.323225445,0,0,1.381454348564148,0,0,0.6879600286483765
0.324225136,0,0,1.3215993642807007,0,0,0.7644000053405762
0.325224604,0,0,1.3958195447921753,0,0,0.9937199950218201
0.326226109,0,0,1.403002142906189,0,0,0.9937199950218201
0.32722517,0,0,1.4508862495422363,0,0,0.9937199950218201
0.328225101,0,0,1.4389152526855469,0,0,0.8408399820327759
0.329225051,0,0,1.577778935432434,0,0,0.6879600286483765
0.330226019,0,0,1.5897499322891235,0,0,0.8408399820327759
0.331239079,0,0,1.5275006294250488,0,0,0.9937199950218201
0.332225547,0,0,1.4676456451416016,0,0,0.8408399820327759
0.333224997,0,0,1.4221558570861816,0,0,0.7644000053405762
0.334226039,0,0,1.3263877630233765,0,0,0.3822000026702881
0.3352251,0,0,1.3527239561080933,0,0,0.6879600286483765
0.336224809,0,0,1.3838485479354858,0,0,0.7644000053405762
0.337225018,0,0,1.3551181554794312,0,0,0.7644000053405762
0.338225875,0,0,1.41257905960083,0,0,0.611519992351532
0.339225176,0,0,1.4891934394836426,0,0,0.7644000053405762
0.340226533,0,0,1.5131354331970215,0,0,0.611519992351532
0.341225538,0,0,1.5298948287963867,0,0,0.7644000053405762
0.34222497,0,0,1.534683346748352,0,0,0.7644000053405762
0.343224678,0,0,1.4939818382263184,0,0,0.7644000053405762
0.344225128,0,0,1.4077905416488647,0,0,0.7644000053405762
0.345224985,0,0,1.4652514457702637,0,0,0.8408399820327759
0.346223324,0,0,1.4269442558288574,0,0,0.9172800183296204
0.347221977,0,0,1.381454348564148,0,0,0.9172800183296204
0.348222704,0,0,1.3335703611373901,0,0,0.7644000053405762
0.349222376,0,0,1.3982137441635132,0,0,0.4586400091648102
0.350225955,0,0,1.4772224426269531,0,0,1.1466000080108643
0.351224775,0,0,1.5514427423477173,0,0,0.4586400091648102
0.352224744,0,0,1.4844050407409668,0,0,0.611519992351532
0.353225804,0,0,1.5275006294250488,0,0,0.9172800183296204
0.354225161,0,0,1.4652514457702637,0,0,0.7644000053405762
0.355224963,0,0,1.4221558570861816,0,0,0.6879600286483765
0.356234523,0,0,1.400607943534851,0,0,1.070159912109375
0.357264806,0,0,1.3742717504501343,0,0,0.6879600286483765
0.358259663,0,0,1.359906554222107,0,0,0.9937199950218201
0.359226706,0,0,1.4101848602294922,0,0,0.9172800183296204
0.36022484,0,0,1.455674648284912,0,0,0.6879600286483765
0.361308307,0,0,1.5203180313110352,0,0,0.8408399820327759
0.362227073,0,0,1.5275006294250488,0,0,0.7644000053405762
0.363224949,0,0,1.5753847360610962,0,0,0.9172800183296204
0.364224898,0,0,1.50355863571167,0,0,0.9172800183296204
0.365224292,0,0,1.4437036514282227,0,0,0.6879600286483765
0.36622576,0,0,1.357512354850769,0,0,0.8408399820327759
0.367224636,0,0,1.3838485479354858,0,0,0.9937199950218201
0.368224178,0,0,1.338358759880066,0,0,0.9937199950218201
0.369224702,0,0,1.3407529592514038,0,0,0.611519992351532
0.370225837,0,0,1.3670891523361206,0,0,0.6879600286483765
0.37122462,0,0,1.4724340438842773,0,0,1.070159912109375
0.372224791,0,0,1.53707754611969,0,0,1.223039984703064
0.37322476,0,0,1.4891934394836426,0,0,0.611519992351532
0.374225746,0,0,1.4772224426269531,0,0,0.8408399820327759
0.375224474,0,0,1.5418659448623657,0,0,1.1466000080108643
0.376224794,0,0,1.434126853942871,0,0,0.9172800183296204
0.377224595,0,0,1.3742717504501343,0,0,0.9172800183296204
0.378224637,0,0,1.460463047027588,0,0,0.9172800183296204
0.379224791,0,0,1.3670891523361206,0,0,0.9937199950218201
0.380224851,0,0,1.403002142906189,0,0,0.9172800183296204
0.381224893,0,0,1.4221558570861816,0,0,0.611519992351532
0.382225899,0,0,1.4939818382263184,0,0,0.8408399820327759
0.38322483,0,0,1.5466543436050415,0,0,0.9172800183296204
0.384224872,0,0,1.4987702369689941,0,0,0.6879600286483765
0.38522471,0,0,1.455674648284912,0,0,0.611519992351532
0.38622429,0,0,1.4748282432556152,0,0,0.9937199950218201
0.387225258,0,0,1.45806884765625,0,0,0.9172800183296204
0.388224874,0,0,1.280897855758667,0,0,0.8408399820327759
0.389224768,0,0,1.3718775510787964,0,0,0.9937199950218201
0.390225366,0,0,1.3479355573654175,0,0,0.611519992351532
0.391224853,0,0,1.357512354850769,0,0,0.9172800183296204
0.392224747,0,0,1.3311761617660522,0,0,0.6879600286483765
0.393224752,0,0,1.3694833517074585,0,0,0.6879600286483765
0.394225738,0,0,1.50355863571167,0,0,1.070159912109375
0.395224558,0,0,1.4987702369689941,0,0,0.7644000053405762
0.396224675,0,0,1.4939818382263184,0,0,0.7644000053405762
0.397224606,0,0,1.5705963373184204,0,0,0.9937199950218201
0.398233037,0,0,1.3910311460494995,0,0,0.5350799560546875
0.399228264,0,0,1.4700398445129395,0,0,0.9937199950218201
0.400275528,0,0,1.4293384552001953,0,0,0.8408399820327759
0.401228201,0,0,1.314416766166687,0,0,1.070159912109375
0.402225447,0,0,1.3263877630233765,0,0,0.9172800183296204
0.403225118,0,0,1.3982137441635132,0,0,0.5350799560546875
0.404224864,0,0,1.5179238319396973,0,0,0.611519992351532
0.405224944,0,0,1.5514427423477173,0,0,1.2994799613952637
0.406225615,0,0,1.4676456451416016,0,0,0.5350799560546875
0.407224787,0,0,1.5203180313110352,0,0,0.7644000053405762
0.408224311,0,0,1.5610195398330688,0,0,0.9172800183296204
0.409224835,0,0,1.4269442558288574,0,0,0.4586400091648102
0.410225673,0,0,1.2473790645599365,0,0,0.611519992351532
0.411224345,0,0,1.3263877630233765,0,0,0.6879600286483765
0.41222448,0,0,1.400607943534851,0,0,0.7644000053405762
0.413233874,0,0,1.4221558570861816,0,0,0.611519992351532
0.414226323,0,0,1.3646949529647827,0,0,0.9937199950218201
0.415228069,0,0,1.3886369466781616,0,0,0.7644000053405762
0.416225297,0,0,1.4484920501708984,0,0,0.9937199950218201
0.417224765,0,0,1.4173674583435059,0,0,0.305759996175766
0.418225974,0,0,1.4676456451416016,0,0,0.7644000053405762
0.419224609,0,0,1.534683346748352,0,0,1.1466000080108643
0.420224928,0,0,1.4077905416488647,0,0,0.3822000026702881
0.421224582,0,0,1.3048399686813354,0,0,0.611519992351532
0.422225717,0,0,1.3096283674240112,0,0,0.8408399820327759
0.423224796,0,0,1.314416766166687,0,0,0.5350799560546875
0.424224708,0,0,1.3527239561080933,0,0,0.9172800183296204
0.425224806,0,0,1.434126853942871,0,0,0.8408399820327759
0.426225626,0,0,1.4652514457702637,0,0,0.8408399820327759
0.427224761,0,0,1.5083470344543457,0,0,1.2994799613952637
0.428224711,0,0,1.4939818382263184,0,0,0.611519992351532
0.429224679,0,0,1.5107412338256836,0,0,0.6879600286483765
0.430225665,0,0,1.601720929145813,0,0,0.9172800183296204
0.431224763,0,0,1.4915876388549805,0,0,0.5350799560546875
0.432224676,0,0,1.45806884765625,0,0,0.9172800183296204
0.433224144,0,0,1.3910311460494995,0,0,0.9937199950218201
0.43422576,0,0,1.3000515699386597,0,0,0.9172800183296204
0.435224728,0,0,1.3311761617660522,0,0,0.8408399820327759
0.436224641,0,0,1.3862427473068237,0,0,0.8408399820327759
0.437224683,0,0,1.455674648284912,0,0,0.9172800183296204
0.43822567,0,0,1.4628572463989258,0,0,0.9172800183296204
0.439224879,0,0,1.4915876388549805,0,0,0.611519992351532
0.440224754,0,0,1.41257905960083,0,0,0.7644000053405762
0.441224815,0,0,1.4700398445129395,0,0,0.9172800183296204
0.442225616,0,0,1.4915876388549805,0,0,0.8408399820327759
0.443224529,0,0,1.4221558570861816,0,0,0.6879600286483765
0.444224756,0,0,1.455674648284912,0,0,0.9172800183296204
0.445224687,0,0,1.3838485479354858,0,0,0.6879600286483765
0.446225489,0,0,1.4293384552001953,0,0,0.8408399820327759
0.447224624,0,0,1.3958195447921753,0,0,1.070159912109375
0.448224758,0,0,1.525106430053711,0,0,0.6879600286483765
0.449224893,0,0,1.5873557329177856,0,0,0.8408399820327759
0.450225639,0,0,1.5298948287963867,0,0,0.5350799560546875
0.4512242,0,0,1.5083470344543457,0,0,0.611519992351532
0.452224816,0,0,1.4867992401123047,0,0,0.9172800183296204
0.453224692,0,0,1.414973258972168,0,0,0.8408399820327759
0.454225123,0,0,1.3455413579940796,0,0,0.8408399820327759
0.455223221,0,0,1.37906014919281,0,0,0.7644000053405762
0.456222707,0,0,1.400607943534851,0,0,0.611519992351532
0.457222694,0,0,1.2737152576446533,0,0,0.8408399820327759
0.458225681,0,0,1.3694833517074585,0,0,0.6879600286483765
0.459224741,0,0,1.4676456451416016,0,0,0.7644000053405762
0.460224709,0,0,1.45806884765625,0,0,0.8408399820327759
0.461224733,0,0,1.5275006294250488,0,0,0.611519992351532
0.462225812,0,0,1.5298948287963867,0,0,0.8408399820327759
0.463224521,0,0,1.4748282432556152,0,0,1.070159912109375
0.464224841,0,0,1.3311761617660522,0,0,0.5350799560546875
0.465224846,0,0,1.3479355573654175,0,0,0.7644000053405762
0.466225574,0,0,1.3024457693099976,0,0,1.1466000080108643
0.467224597,0,0,1.3910311460494995,0,0,0.8408399820327759
0.468224492,0,0,1.359906554222107,0,0,0.6879600286483765
0.469224626,0,0,1.45806884765625,0,0,0.8408399820327759
0.47022565,0,0,1.4724340438842773,0,0,0.8408399820327759
0.471224692,0,0,1.4652514457702637,0,0,0.9172800183296204
0.472224753,0,0,1.5107412338256836,0,0,0.6879600286483765
0.473224332,0,0,1.6208745241165161,0,0,0.9172800183296204
0.474225634,0,0,1.482010841369629,0,0,1.070159912109375
0.475224843,0,0,1.3551181554794312,0,0,0.8408399820327759
0.476224218,0,0,1.4077905416488647,0,0,0.8408399820327759
0.477231612,0,0,1.400607943534851,0,0,1.1466000080108643
0.478261561,0,0,1.357512354850769,0,0,0.7644000053405762
0.479225493,0,0,1.3527239561080933,0,0,0.9937199950218201
0.48022498,0,0,1.414973258972168,0,0,0.9937199950218201
0.481225114,0,0,1.5514427423477173,0,0,0.9172800183296204
0.482225823,0,0,1.501164436340332,0,0,0.8408399820327759
0.483224902,0,0,1.479616641998291,0,0,0.8408399820327759
0.484224648,0,0,1.5322890281677246,0,0,0.8408399820327759
0.485224857,0,0,1.436521053314209,0,0,1.1466000080108643
0.48622564,0,0,1.3431471586227417,0,0,0.7644000053405762
0.487224831,0,0,1.400607943534851,0,0,1.070159912109375
0.488224484,0,0,1.4101848602294922,0,0,0.9937199950218201
0.489224693,0,0,1.4317326545715332,0,0,1.070159912109375
0.490225716,0,0,1.4101848602294922,0,0,0.9172800183296204
0.491224647,0,0,1.436521053314209,0,0,1.070159912109375
0.49222456,0,0,1.534683346748352,0,0,0.8408399820327759
0.493224602,0,0,1.5658079385757446,0,0,1.070159912109375
0.494225163,0,0,1.482010841369629,0,0,0.5350799560546875
0.495224909,0,0,1.5203180313110352,0,0,0.6879600286483765
0.496224562,0,0,1.4437036514282227,0,0,0.9172800183296204
0.497224827,0,0,1.4437036514282227,0,0,0.8408399820327759
0.498269109,0,0,1.381454348564148,0,0,0.8408399820327759
0.499225596,0,0,1.314416766166687,0,0,0.9172800183296204
0.50022562,0,0,1.2737152576446533,0,0,0.8408399820327759
0.501225736,0,0,1.314416766166687,0,0,1.070159912109375
0.502226686,0,0,1.4748282432556152,0,0,0.6879600286483765
0.503225376,0,0,1.5131354331970215,0,0,0.6879600286483765
0.504224974,0,0,1.5538369417190552,0,0,0.9172800183296204
0.505225405,0,0,1.5298948287963867,0,0,0.8408399820327759
0.506226132,0,0,1.5322890281677246,0,0,0.9172800183296204
0.507225397,0,0,1.4891934394836426,0,0,1.070159912109375
0.508225347,0,0,1.4101848602294922,0,0,0.8408399820327759
0.509225259,0,0,1.4652514457702637,0,0,1.070159912109375
0.510226227,0,0,1.3670891523361206,0,0,0.6879600286483765
0.511225362,0,0,1.2976573705673218,0,0,0.8408399820327759
0.512225182,0,0,1.357512354850769,0,0,0.9937199950218201
0.513254946,0,0,1.4700398445129395,0,0,0.6879600286483765
0.514227322,0,0,1.5107412338256836,0,0,0.7644000053405762
0.515225494,0,0,1.4963760375976563,0,0,0.5350799560546875
0.516224758,0,0,1.4748282432556152,0,0,0.7644000053405762
0.517225171,0,0,1.4628572463989258,0,0,0.8408399820327759
0.518226083,0,0,1.5083470344543457,0,0,1.1466000080108643
0.519224774,0,0,1.3623007535934448,0,0,0.5350799560546875
0.52022476,0,0,1.3311761617660522,0,0,0.9937199950218201
0.521225062,0,0,1.3479355573654175,0,0,0.9172800183296204
0.522225937,0,0,1.2832920551300049,0,0,0.7644000053405762
0.523225165,0,0,1.4293384552001953,0,0,0.9937199950218201
0.524225281,0,0,1.5203180313110352,0,0,0.7644000053405762
0.525225286,0,0,1.50355863571167,0,0,0.7644000053405762
0.526225958,0,0,1.5418659448623657,0,0,1.070159912109375
0.527225334,0,0,1.436521053314209,0,0,0.611519992351532
0.528225098,0,0,1.5729905366897583,0,0,0.6879600286483765
0.529225437,0,0,1.4987702369689941,0,0,0.9172800183296204
0.530226886,0,0,1.3934253454208374,0,0,0.6879600286483765
0.531225188,0,0,1.3766659498214722,0,0,0.8408399820327759
0.532225248,0,0,1.3934253454208374,0,0,0.7644000053405762
0.533225198,0,0,1.3407529592514038,0,0,0.4586400091648102
0.534226259,0,0,1.414973258972168,0,0,1.1466000080108643
0.535225153,0,0,1.4724340438842773,0,0,0.6879600286483765
0.536225176,0,0,1.5155296325683594,0,0,0.7644000053405762
0.537225404,0,0,1.501164436340332,0,0,0.9937199950218201
0.538226113,0,0,1.479616641998291,0,0,0.5350799560546875
0.539225359,0,0,1.50355863571167,0,0,0.8408399820327759
0.540225271,0,0,1.4915876388549805,0,0,1.223039984703064
0.541227128,0,0,1.316810965538025,0,0,0.6879600286483765
0.542225911,0,0,1.3646949529647827,0,0,0.8408399820327759
0.543225416,0,0,1.359906554222107,0,0,0.9172800183296204
0.544225255,0,0,1.2952631711959839,0,0,1.070159912109375
0.545225242,0,0,1.2880805730819702,0,0,1.1466000080108643
0.546225376,0,0,1.4197616577148438,0,0,0.8408399820327759
0.547225344,0,0,1.4676456451416016,0,0,0.8408399820327759
0.548225072,0,0,1.4915876388549805,0,0,1.070159912109375
0.549225373,0,0,1.525106430053711,0,0,0.5350799560546875
0.550225397,0,0,1.5418659448623657,0,0,0.8408399820327759
0.551225365,0,0,1.4867992401123047,0,0,0.8408399820327759
0.552224907,0,0,1.3479355573654175,0,0,0.6879600286483765
0.553225246,0,0,1.3766659498214722,0,0,0.6879600286483765
0.554225251,0,0,1.4173674583435059,0,0,0.8408399820327759
0.555225219,0,0,1.3048399686813354,0,0,0.9172800183296204
0.556225298,0,0,1.3311761617660522,0,0,0.8408399820327759
0.557225155,0,0,1.482010841369629,0,0,0.7644000053405762
0.558224753,0,0,1.53707754611969,0,0,0.5350799560546875
0.559221962,0,0,1.525106430053711,0,0,1.1466000080108643
0.560222764,0,0,1.5107412338256836,0,0,0.611519992351532
0.561222417,0,0,1.4413094520568848,0,0,0.8408399820327759
0.562225385,0,0,1.4460978507995605,0,0,0.6879600286483765
0.563224761,0,0,1.3862427473068237,0,0,0.7644000053405762
0.564224803,0,0,1.3096283674240112,0,0,1.1466000080108643
0.565224882,0,0,1.338358759880066,0,0,0.9172800183296204
0.566226091,0,0,1.3311761617660522,0,0,0.6879600286483765
0.567224707,0,0,1.3096283674240112,0,0,0.9172800183296204
0.568224805,0,0,1.4389152526855469,0,0,0.8408399820327759
0.56922481,0,0,1.5538369417190552,0,0,0.8408399820327759
0.570225575,0,0,1.5418659448623657,0,0,0.9937199950218201
0.57122495,0,0,1.4987702369689941,0,0,0.611519992351532
0.572224715,0,0,1.4867992401123047,0,0,0.9172800183296204
0.573224794,0,0,1.4221558570861816,0,0,1.070159912109375
0.574225725,0,0,1.3048399686813354,0,0,0.7644000053405762
0.575224915,0,0,1.3766659498214722,0,0,0
0.576224809,0,0,1.3646949529647827,0,0,0.9937199950218201
0.577224814,0,0,1.2713210582733154,0,0,0.9937199950218201
0.57822569,0,0,1.2401964664459229,0,0,0.8408399820327759
0.579224677,0,0,1.400607943534851,0,0,0.8408399820327759
0.580224589,0,0,1.5083470344543457,0,0,0.9172800183296204
0.581329556,0,0,1.5322890281677246,0,0,0.6879600286483765
0.582227729,0,0,1.5394717454910278,0,0,0.9172800183296204
0.583224957,0,0,1.534683346748352,0,0,0.9172800183296204
0.584224554,0,0,1.4532804489135742,0,0,1.070159912109375
0.58522493,0,0,1.2880805730819702,0,0,0.4586400091648102
0.586236731,0,0,1.3311761617660522,0,0,0.9937199950218201
0.587225125,0,0,1.2856862545013428,0,0,0.8408399820327759
0.588224686,0,0,1.335964560508728,0,0,0
0.589224784,0,0,1.314416766166687,0,0,0.6879600286483765
0.590225548,0,0,1.4389152526855469,0,0,0.9172800183296204
0.591224794,0,0,1.4844050407409668,0,0,0.6879600286483765
0.592288039,0,0,1.436521053314209,0,0,0.9937199950218201
0.593238527,0,0,1.3527239561080933,0,0,0.6879600286483765
0.594227736,0,0,1.45806884765625,0,0,0.6879600286483765
0.595225,0,0,1.4173674583435059,0,0,0.9172800183296204
0.596224542,0,0,1.3335703611373901,0,0,0.6879600286483765
0.597224936,0,0,1.3646949529647827,0,0,1.070159912109375
0.598232497,0,0,1.4077905416488647,0,0,0.6879600286483765
0.599225669,0,0,1.4245500564575195,0,0,0.8408399820327759
0.600224767,0,0,1.359906554222107,0,0,0.8408399820327759
0.601224976,0,0,1.460463047027588,0,0,0.8408399820327759
0.602225407,0,0,1.5897499322891235,0,0,0.6879600286483765
0.603224893,0,0,1.436521053314209,0,0,0.9172800183296204
0.604224732,0,0,1.4700398445129395,0,0,0.611519992351532
0.605345624,0,0,1.534683346748352,0,0,0.8408399820327759
0.60622839,0,0,1.403002142906189,0,0,1.070159912109375
0.607233044,0,0,1.2952631711959839,0,0,0.7644000053405762
0.608342547,0,0,1.359906554222107,0,0,1.070159912109375
0.609243146,0,0,1.3335703611373901,0,0,0.7644000053405762
0.610230189,0,0,1.4053963422775269,0,0,0.8408399820327759
0.611225361,0,0,1.3431471586227417,0,0,0.9172800183296204
0.612225495,0,0,1.4293384552001953,0,0,0.9172800183296204
0.613225353,0,0,1.4724340438842773,0,0,1.070159912109375
0.614226284,0,0,1.4867992401123047,0,0,1.070159912109375
0.615225011,0,0,1.522712230682373,0,0,0.611519992351532
0.616225257,0,0,1.4867992401123047,0,0,0.4586400091648102
0.617225318,0,0,1.4293384552001953,0,0,1.070159912109375
0.618225971,0,0,1.381454348564148,0,0,0.5350799560546875
0.619225032,0,0,1.3742717504501343,0,0,0.8408399820327759
0.620225389,0,0,1.381454348564148,0,0,0.7644000053405762
0.621251319,0,0,1.3646949529647827,0,0,0.8408399820327759
0.622230121,0,0,1.3072341680526733,0,0,1.070159912109375
0.623225108,0,0,1.501164436340332,0,0,0.5350799560546875
0.62422478,0,0,1.5753847360610962,0,0,0.8408399820327759
0.62522897,0,0,1.5322890281677246,0,0,1.223039984703064
0.626225901,0,0,1.50355863571167,0,0,0.4586400091648102
0.627224629,0,0,1.5131354331970215,0,0,0.9937199950218201
0.628239023,0,0,1.3455413579940796,0,0,0.6879600286483765
0.629226435,0,0,1.2952631711959839,0,0,0.8408399820327759
0.630225292,0,0,1.3407529592514038,0,0,0.9937199950218201
0.63122539,0,0,1.3311761617660522,0,0,0.9172800183296204
0.632225303,0,0,1.292868971824646,0,0,0.9172800183296204
0.633225437,0,0,1.3527239561080933,0,0,1.070159912109375
0.634225313,0,0,1.4748282432556152,0,0,0.9172800183296204
0.635225114,0,0,1.525106430053711,0,0,0.611519992351532
0.636225194,0,0,1.5538369417190552,0,0,0.7644000053405762
0.637225254,0,0,1.4867992401123047,0,0,0.3822000026702881
0.638225482,0,0,1.4915876388549805,0,0,0.6879600286483765
0.639222561,0,0,1.4173674583435059,0,0,0.9172800183296204
0.640222511,0,0,1.3215993642807007,0,0,0.7644000053405762
0.64122272,0,0,1.3838485479354858,0,0,0.8408399820327759
0.642226058,0,0,1.3120225667953491,0,0,0.7644000053405762
0.643224989,0,0,1.316810965538025,0,0,0.6879600286483765
0.644224994,0,0,1.3215993642807007,0,0,1.1466000080108643
0.645225,0,0,1.45806884765625,0,0,0.6879600286483765
0.646225857,0,0,1.5538369417190552,0,0,0.8408399820327759
0.647224991,0,0,1.5083470344543457,0,0,0.9937199950218201
0.648224848,0,0,1.4532804489135742,0,0,0.611519992351532
0.649229909,0,0,1.5490485429763794,0,0,0.7644000053405762
0.650226877,0,0,1.4867992401123047,0,0,1.2994799613952637
0.651225197,0,0,1.2976573705673218,0,0,0.8408399820327759
0.652225128,0,0,1.4077905416488647,0,0,0.7644000053405762
0.653224782,0,0,1.4221558570861816,0,0,0.9172800183296204
0.65422575,0,0,1.4317326545715332,0,0,0.6879600286483765
0.655224903,0,0,1.3479355573654175,0,0,1.1466000080108643
0.65622476,0,0,1.4437036514282227,0,0,0.7644000053405762
0.657224654,0,0,1.4939818382263184,0,0,0.9937199950218201
0.65822577,0,0,1.4891934394836426,0,0,0.9172800183296204
0.659224979,0,0,1.4221558570861816,0,0,0.611519992351532
0.660224781,0,0,1.4987702369689941,0,0,0.8408399820327759
0.6612601,0,0,1.4413094520568848,0,0,1.1466000080108643
0.662227069,0,0,1.4053963422775269,0,0,0.9172800183296204
0.663225167,0,0,1.4460978507995605,0,0,0.9172800183296204
0.664224987,0,0,1.4891934394836426,0,0,0.9172800183296204
0.665224788,0,0,1.4987702369689941,0,0,0.9172800183296204
0.666225886,0,0,1.3862427473068237,0,0,0.9937199950218201
0.667224521,0,0,1.4628572463989258,0,0,0.9172800183296204
0.668224915,0,0,1.5203180313110352,0,0,0.7644000053405762
0.669224957,0,0,1.5203180313110352,0,0,0.6879600286483765
0.670225277,0,0,1.5418659448623657,0,0,0.5350799560546875
0.671224412,0,0,1.5298948287963867,0,0,0.5350799560546875
0.672225028,0,0,1.3694833517074585,0,0,1.070159912109375
0.6732247,0,0,1.3096283674240112,0,0,0.9172800183296204
0.674225742,0,0,1.3455413579940796,0,0,0.9937199950218201
0.675224729,0,0,1.3623007535934448,0,0,0.9937199950218201
0.676224752,0,0,1.3263877630233765,0,0,0.9937199950218201
0.677224721,0,0,1.3239935636520386,0,0,1.070159912109375
0.678225818,0,0,1.41257905960083,0,0,0.7644000053405762
0.679224879,0,0,1.4317326545715332,0,0,0.6879600286483765
0.68022481,0,0,1.4532804489135742,0,0,0.7644000053405762
0.681224982,0,0,1.4460978507995605,0,0,0.611519992351532
0.68222582,0,0,1.400607943534851,0,0,0.8408399820327759
0.683224826,0,0,1.3646949529647827,0,0,1.070159912109375
0.684224664,0,0,1.3431471586227417,0,0,0.9172800183296204
0.685224688,0,0,1.4077905416488647,0,0,1.1466000080108643
0.686225563,0,0,1.3072341680526733,0,0,0.7644000053405762
0.687224883,0,0,1.2880805730819702,0,0,0.8408399820327759
0.68822474,0,0,1.316810965538025,0,0,0.8408399820327759
0.689224709,0,0,1.4676456451416016,0,0,0.7644000053405762
0.690228491,0,0,1.5825673341751099,0,0,0.611519992351532
0.69122496,0,0,1.5682021379470825,0,0,1.070159912109375
0.692226706,0,0,1.5705963373184204,0,0,0.9937199950218201
0.693598558,0,0,1.5897499322891235,0,0,1.070159912109375
0.694260734,0,0,1.4700398445129395,0,0,0.9172800183296204
0.695645475,0,0,1.3910311460494995,0,0,0.611519992351532
0.696229448,0,0,1.3335703611373901,0,0,0.9172800183296204
0.697229139,0,0,1.292868971824646,0,0,0.5350799560546875
0.698233996,0,0,1.4053963422775269,0,0,0.7644000053405762
0.699226279,0,0,1.4317326545715332,0,0,0.6879600286483765
0.700225117,0,0,1.4508862495422363,0,0,0.6879600286483765
0.701224789,0,0,1.482010841369629,0,0,0.9937199950218201
0.702225165,0,0,1.5394717454910278,0,0,0.9172800183296204
0.703224799,0,0,1.522712230682373,0,0,0.6879600286483765
0.704224953,0,0,1.5825673341751099,0,0,0.9172800183296204
0.70522618,0,0,1.400607943534851,0,0,1.070159912109375
0.706226685,0,0,1.3215993642807007,0,0,0.9937199950218201
0.707224857,0,0,1.4532804489135742,0,0,1.070159912109375
0.708224992,0,0,1.403002142906189,0,0,0.6879600286483765
0.70922496,0,0,1.357512354850769,0,0,0.9172800183296204
0.710225688,0,0,1.314416766166687,0,0,0.9172800183296204
0.711224748,0,0,1.4652514457702637,0,0,0.611519992351532
0.712224828,0,0,1.4939818382263184,0,0,0.7644000053405762
0.713224759,0,0,1.4437036514282227,0,0,1.070159912109375
0.714225319,0,0,1.5107412338256836,0,0,0.6879600286483765
0.715224936,0,0,1.4939818382263184,0,0,0.7644000053405762
0.716224885,0,0,1.3646949529647827,0,0,1.1466000080108643
0.717224853,0,0,1.2856862545013428,0,0,0.5350799560546875
0.718225784,0,0,1.3694833517074585,0,0,1.070159912109375
0.719224993,0,0,1.4293384552001953,0,0,0.4586400091648102
0.72022498,0,0,1.4508862495422363,0,0,0.8408399820327759
0.721224726,0,0,1.3910311460494995,0,0,1.070159912109375
0.722225768,0,0,1.4891934394836426,0,0,1.070159912109375
0.723224736,0,0,1.5322890281677246,0,0,1.1466000080108643
0.724225001,0,0,1.4772224426269531,0,0,0.8408399820327759
0.725224876,0,0,1.4891934394836426,0,0,0.8408399820327759
0.726225752,0,0,1.5131354331970215,0,0,0.7644000053405762
0.727224757,0,0,1.414973258972168,0,0,1.2994799613952637
0.728224873,0,0,1.403002142906189,0,0,0.5350799560546875
0.729224786,0,0,1.414973258972168,0,0,0.7644000053405762
0.73022555,0,0,1.3623007535934448,0,0,0.8408399820327759
0.731224796,0,0,1.4077905416488647,0,0,0.611519992351532
0.73222432,0,0,1.381454348564148,0,0,0.9937199950218201
0.733236177,0,0,1.4700398445129395,0,0,0.8408399820327759
0.734225164,0,0,1.4987702369689941,0,0,0.8408399820327759
0.735224261,0,0,1.5083470344543457,0,0,0.6879600286483765
0.736224766,0,0,1.4844050407409668,0,0,0.9937199950218201
0.737224735,0,0,1.4891934394836426,0,0,0.8408399820327759
0.738225943,0,0,1.41257905960083,0,0,1.1466000080108643
0.739224745,0,0,1.3742717504501343,0,0,0.6879600286483765
0.74022638,0,0,1.4197616577148438,0,0,0.9172800183296204
0.741225181,0,0,1.3311761617660522,0,0,0.7644000053405762
0.742225149,0,0,1.3287819623947144,0,0,0.8408399820327759
0.743224877,0,0,1.2617442607879639,0,0,0.7644000053405762
0.744224734,0,0,1.403002142906189,0,0,0.7644000053405762
0.745808546,0,0,1.436521053314209,0,0,0.611519992351532
0.746231392,0,0,1.4532804489135742,0,0,0.8408399820327759
0.747228823,0,0,1.5418659448623657,0,0,0.7644000053405762
0.748228032,0,0,1.5131354331970215,0,0,0.7644000053405762
0.749229685,0,0,1.4221558570861816,0,0,0.9172800183296204
0.750230431,0,0,1.3862427473068237,0,0,0.7644000053405762
0.751226807,0,0,1.3287819623947144,0,0,1.223039984703064
0.752226405,0,0,1.3263877630233765,0,0,0.9937199950218201
0.753226873,0,0,1.3646949529647827,0,0,1.070159912109375
0.754226878,0,0,1.3072341680526733,0,0,0.8408399820327759
0.755226217,0,0,1.41257905960083,0,0,0.8408399820327759
0.756226111,0,0,1.5298948287963867,0,0,0.9172800183296204
0.757240301,0,0,1.522712230682373,0,0,0.8408399820327759
0.758227602,0,0,1.4221558570861816,0,0,0.5350799560546875
0.759226552,0,0,1.4891934394836426,0,0,0.7644000053405762
0.760226724,0,0,1.4269442558288574,0,0,0.8408399820327759
0.761226766,0,0,1.3479355573654175,0,0,0.611519992351532
0.762225919,0,0,1.3096283674240112,0,0,0.9937199950218201
0.763224073,0,0,1.314416766166687,0,0,0.9172800183296204
0.764224078,0,0,1.4413094520568848,0,0,0.7644000053405762
0.765224046,0,0,1.381454348564148,0,0,0.9937199950218201
0.76622807,0,0,1.4652514457702637,0,0,0.9172800183296204
0.767227056,0,0,1.5203180313110352,0,0,0.6879600286483765
0.768226673,0,0,1.6065093278884888,0,0,1.1466000080108643
0.769226807,0,0,1.5658079385757446,0,0,0.7644000053405762
0.77022772,0,0,1.5155296325683594,0,0,0.9937199950218201
0.771226688,0,0,1.3910311460494995,0,0,0.9172800183296204
0.772226416,0,0,1.3335703611373901,0,0,0.7644000053405762
0.773226661,0,0,1.3431471586227417,0,0,0.9937199950218201
0.774227704,0,0,1.3192051649093628,0,0,0.9172800183296204
0.775226727,0,0,1.3766659498214722,0,0,0.6879600286483765
0.776226751,0,0,1.3239935636520386,0,0,1.070159912109375
0.777226071,0,0,1.4676456451416016,0,0,0.8408399820327759
0.778253817,0,0,1.525106430053711,0,0,0.6879600286483765
0.779231526,0,0,1.4915876388549805,0,0,1.1466000080108643
0.780227031,0,0,1.4508862495422363,0,0,0.9937199950218201
0.781226499,0,0,1.479616641998291,0,0,0.8408399820327759
0.782226875,0,0,1.3527239561080933,0,0,0.9172800183296204
0.783226713,0,0,1.2952631711959839,0,0,0.9172800183296204
0.784226515,0,0,1.357512354850769,0,0,1.1466000080108643
0.78522902,0,0,1.4101848602294922,0,0,0.7644000053405762
0.786227266,0,0,1.3335703611373901,0,0,0.5350799560546875
0.787226419,0,0,1.3910311460494995,0,0,0.9172800183296204
0.788226684,0,0,1.4987702369689941,0,0,0.6879600286483765
0.789226744,0,0,1.5083470344543457,0,0,0.7644000053405762
0.79022662,0,0,1.4508862495422363,0,0,1.1466000080108643
0.791226662,0,0,1.4724340438842773,0,0,0.611519992351532
0.792226704,0,0,1.6136919260025024,0,0,0.9172800183296204
0.793226691,0,0,1.5298948287963867,0,0,0.9172800183296204
0.794228381,0,0,1.357512354850769,0,0,0.9172800183296204
0.795226183,0,0,1.4197616577148438,0,0,0.9172800183296204
0.796226873,0,0,1.460463047027588,0,0,0.9172800183296204
0.797239822,0,0,1.3407529592514038,0,0,0.9937199950218201
0.798228902,0,0,1.2856862545013428,0,0,0.8408399820327759
0.799225463,0,0,1.4867992401123047,0,0,0.9172800183296204
0.800226468,0,0,1.580173134803772,0,0,0.9937199950218201
0.801226732,0,0,1.5969325304031372,0,0,0.9172800183296204
0.802228571,0,0,1.45806884765625,0,0,0.7644000053405762
0.803226446,0,0,1.5490485429763794,0,0,0.9937199950218201
0.804226581,0,0,1.4460978507995605,0,0,0.7644000053405762
0.805226549,0,0,1.3431471586227417,0,0,0.7644000053405762
0.80622748,0,0,1.3287819623947144,0,0,1.1466000080108643
0.80722643,0,0,1.37906014919281,0,0,0.7644000053405762
0.808226694,0,0,1.436521053314209,0,0,0.7644000053405762
0.809226625,0,0,1.3646949529647827,0,0,0.7644000053405762
0.810226353,0,0,1.4915876388549805,0,0,0.611519992351532
0.811224173,0,0,1.5083470344543457,0,0,0.7644000053405762
0.812224011,0,0,1.4628572463989258,0,0,0.9172800183296204
0.813224109,0,0,1.436521053314209,0,0,0.4586400091648102
0.814227707,0,0,1.5298948287963867,0,0,0.9172800183296204
0.815226879,0,0,1.5322890281677246,0,0,0.611519992351532
0.816226532,0,0,1.3287819623947144,0,0,0.7644000053405762
0.817225704,0,0,1.3000515699386597,0,0,0.9172800183296204
0.818227413,0,0,1.37906014919281,0,0,0.8408399820327759
0.819226325,0,0,1.3694833517074585,0,0,0.6879600286483765
0.820225923,0,0,1.3646949529647827,0,0,1.070159912109375
0.821225928,0,0,1.4891934394836426,0,0,0.9937199950218201
0.822227637,0,0,1.4652514457702637,0,0,0.6879600286483765
0.823226198,0,0,1.4915876388549805,0,0,0.6879600286483765
0.824226351,0,0,1.4700398445129395,0,0,0.4586400091648102
0.825226227,0,0,1.6041151285171509,0,0,1.1466000080108643
0.826229306,0,0,1.4197616577148438,0,0,1.1466000080108643
0.827226311,0,0,1.3694833517074585,0,0,1.070159912109375
0.828226298,0,0,1.3910311460494995,0,0,0.8408399820327759
0.829245543,0,0,1.3215993642807007,0,0,0.7644000053405762
0.830241919,0,0,1.4053963422775269,0,0,0.7644000053405762
0.831228295,0,0,1.3024457693099976,0,0,0.5350799560546875
0.83222667,0,0,1.4484920501708984,0,0,0.6879600286483765
0.833226287,0,0,1.5658079385757446,0,0,0.7644000053405762
0.834227477,0,0,1.5825673341751099,0,0,0.8408399820327759
0.83522639,0,0,1.5203180313110352,0,0,0.6879600286483765
0.836226358,0,0,1.556231141090393,0,0,0.8408399820327759
0.837226011,0,0,1.4867992401123047,0,0,0.9937199950218201
0.838227164,0,0,1.4317326545715332,0,0,0.5350799560546875
0.839226336,0,0,1.5059528350830078,0,0,1.2994799613952637
0.840226471,0,0,1.41257905960083,0,0,0.9172800183296204
0.841226106,0,0,1.403002142906189,0,0,0.9172800183296204
0.842226926,0,0,1.3862427473068237,0,0,0.6879600286483765
0.843226394,0,0,1.4173674583435059,0,0,0.6879600286483765
0.844226177,0,0,1.5298948287963867,0,0,0.8408399820327759
0.845226312,0,0,1.482010841369629,0,0,0.8408399820327759
0.846227409,0,0,1.5394717454910278,0,0,0.6879600286483765
0.847226285,0,0,1.4915876388549805,0,0,0.8408399820327759
0.848226216,0,0,1.4437036514282227,0,0,0.9172800183296204
0.849226221,0,0,1.357512354850769,0,0,0.8408399820327759
0.850227338,0,0,1.2880805730819702,0,0,0.7644000053405762
0.851226083,0,0,1.2210428714752197,0,0,0.8408399820327759
0.852226292,0,0,1.3024457693099976,0,0,0.9172800183296204
0.853226057,0,0,1.3886369466781616,0,0,0.8408399820327759
0.854227192,0,0,1.5107412338256836,0,0,1.070159912109375
0.855226178,0,0,1.601720929145813,0,0,0.611519992351532
0.856226146,0,0,1.5298948287963867,0,0,1.070159912109375
0.857227226,0,0,1.6089035272598267,0,0,0.6879600286483765
0.858944888,0,0,1.6089035272598267,0,0,1.223039984703064
0.859227329,0,0,1.4173674583435059,0,0,0.8408399820327759
0.860223408,0,0,1.235408067703247,0,0,0.9172800183296204
0.861238728,0,0,1.3503297567367554,0,0,1.070159912109375
0.862227529,0,0,1.4053963422775269,0,0,0.8408399820327759
0.863225423,0,0,1.434126853942871,0,0,0.9937199950218201
0.864225003,0,0,1.4293384552001953,0,0,0.8408399820327759
0.865224452,0,0,1.50355863571167,0,0,0.7644000053405762
0.866225883,0,0,1.5849615335464478,0,0,0.9172800183296204
0.867225166,0,0,1.4389152526855469,0,0,1.070159912109375
0.868224838,0,0,1.5059528350830078,0,0,0.8408399820327759
0.869225121,0,0,1.5059528350830078,0,0,0.9937199950218201
0.870225089,0,0,1.4197616577148438,0,0,0.8408399820327759
0.871225094,0,0,1.3215993642807007,0,0,0.7644000053405762
0.87222484,0,0,1.3670891523361206,0,0,0.6879600286483765
0.873224864,0,0,1.2737152576446533,0,0,1.070159912109375
0.874226258,0,0,1.3503297567367554,0,0,0.611519992351532
0.875224726,0,0,1.381454348564148,0,0,0.9937199950218201
0.876224657,0,0,1.3623007535934448,0,0,0.7644000053405762
0.877224903,0,0,1.4724340438842773,0,0,0.8408399820327759
0.878225519,0,0,1.5418659448623657,0,0,0.4586400091648102
0.87922495,0,0,1.4508862495422363,0,0,1.1466000080108643
0.880224789,0,0,1.5155296325683594,0,0,0.9937199950218201
0.881319441,0,0,1.3527239561080933,0,0,0.8408399820327759
0.882228003,0,0,1.2880805730819702,0,0,0.611519992351532
0.883224601,0,0,1.3646949529647827,0,0,0.9937199950218201
0.884225032,0,0,1.316810965538025,0,0,1.070159912109375
0.885224741,0,0,1.3120225667953491,0,0,0.8408399820327759
0.886225394,0,0,1.3120225667953491,0,0,0.6879600286483765
0.887224696,0,0,1.4676456451416016,0,0,0.9172800183296204
0.8883067,0,0,1.5514427423477173,0,0,0.6879600286483765
0.889228817,0,0,1.6089035272598267,0,0,0.6879600286483765
0.890228637,0,0,1.5849615335464478,0,0,0.8408399820327759
0.891255994,0,0,1.5083470344543457,0,0,1.070159912109375
0.892227203,0,0,1.3335703611373901,0,0,0.9172800183296204
0.893225393,0,0,1.3072341680526733,0,0,0.7644000053405762
0.894227991,0,0,1.338358759880066,0,0,0.6879600286483765
0.895225163,0,0,1.3000515699386597,0,0,0.6879600286483765
0.896224798,0,0,1.338358759880066,0,0,0.7644000053405762
0.89722484,0,0,1.3239935636520386,0,0,0.8408399820327759
0.898230382,0,0,1.479616641998291,0,0,0.6879600286483765
0.899223776,0,0,1.5059528350830078,0,0,0.9172800183296204
0.900222948,0,0,1.4891934394836426,0,0,0.611519992351532
0.901225324,0,0,1.5322890281677246,0,0,0.7644000053405762
0.902225884,0,0,1.482010841369629,0,0,0.9172800183296204
0.903263574,0,0,1.3000515699386597,0,0,0.9172800183296204
0.904228506,0,0,1.3646949529647827,0,0,0.7644000053405762
0.905230603,0,0,1.4939818382263184,0,0,0.6879600286483765
0.906228405,0,0,1.3886369466781616,0,0,1.1466000080108643
0.907225058,0,0,1.3862427473068237,0,0,1.1466000080108643
0.908224378,0,0,1.3646949529647827,0,0,0.9172800183296204
0.909223772,0,0,1.525106430053711,0,0,0.6879600286483765
0.910225055,0,0,1.5394717454910278,0,0,0.9172800183296204
0.911225042,0,0,1.434126853942871,0,0,0.9937199950218201
0.912224788,0,0,1.4269442558288574,0,0,0.9937199950218201
0.913224923,0,0,1.4748282432556152,0,0,1.070159912109375
0.91422478,0,0,1.4173674583435059,0,0,0.9172800183296204
0.915224952,0,0,1.3024457693099976,0,0,0.611519992351532
0.916224679,0,0,1.4077905416488647,0,0,1.1466000080108643
0.917224795,0,0,1.335964560508728,0,0,0.7644000053405762
0.91822593,0,0,1.400607943534851,0,0,1.070159912109375
0.919224843,0,0,1.3934253454208374,0,0,1.070159912109375
0.9202247,0,0,1.534683346748352,0,0,0.8408399820327759
0.921224742,0,0,1.479616641998291,0,0,1.070159912109375
0.92222558,0,0,1.5705963373184204,0,0,0.6879600286483765
0.923224734,0,0,1.4628572463989258,0,0,0.611519992351532
0.92422472,0,0,1.4844050407409668,0,0,0.9937199950218201
0.925235707,0,0,1.3215993642807007,0,0,0.7644000053405762
0.926225768,0,0,1.3287819623947144,0,0,0.6879600286483765
0.927225088,0,0,1.434126853942871,0,0,0.9172800183296204
0.928224741,0,0,1.3646949529647827,0,0,0.8408399820327759
0.929224265,0,0,1.4437036514282227,0,0,0.9172800183296204
0.930225344,0,0,1.3838485479354858,0,0,0.8408399820327759
0.931224719,0,0,1.4676456451416016,0,0,0.8408399820327759
0.932224706,0,0,1.5155296325683594,0,0,0.9937199950218201
0.933224674,0,0,1.436521053314209,0,0,0.7644000053405762
0.934224883,0,0,1.5059528350830078,0,0,0.9937199950218201
0.935224814,0,0,1.5538369417190552,0,0,1.223039984703064
0.936224819,0,0,1.41257905960083,0,0,0.611519992351532
0.937224602,0,0,1.3551181554794312,0,0,0.7644000053405762
0.938225867,0,0,1.3982137441635132,0,0,0.7644000053405762
0.939224761,0,0,1.335964560508728,0,0,0.8408399820327759
0.940224581,0,0,1.434126853942871,0,0,0.9172800183296204
0.94122729,0,0,1.403002142906189,0,0,0.8408399820327759
0.942225721,0,0,1.4676456451416016,0,0,0.9172800183296204
0.943224744,0,0,1.53707754611969,0,0,0.8408399820327759
0.944224898,0,0,1.4939818382263184,0,0,0.5350799560546875
0.945224644,0,0,1.4939818382263184,0,0,0.6879600286483765
0.946224853,0,0,1.4867992401123047,0,0,1.070159912109375
0.947224932,0,0,1.3718775510787964,0,0,0.8408399820327759
0.9482244,0,0,1.3982137441635132,0,0,0.7644000053405762
0.949225035,0,0,1.4317326545715332,0,0,0.9172800183296204
0.950224762,0,0,1.3527239561080933,0,0,0.8408399820327759
0.951224175,0,0,1.3742717504501343,0,0,0.9937199950218201
0.952225013,0,0,1.3982137441635132,0,0,0.6879600286483765
0.953225055,0,0,1.37906014919281,0,0,0.9172800183296204
0.954225005,0,0,1.4987702369689941,0,0,0.9937199950218201
0.955224788,0,0,1.4844050407409668,0,0,0.611519992351532
0.956224682,0,0,1.5298948287963867,0,0,0.611519992351532
0.957224984,0,0,1.5490485429763794,0,0,1.070159912109375
0.958225989,0,0,1.403002142906189,0,0,0.611519992351532
0.959224716,0,0,1.3479355573654175,0,0,0.611519992351532
0.960224758,0,0,1.3862427473068237,0,0,0.9937199950218201
0.961382798,0,0,1.3479355573654175,0,0,0.8408399820327759
0.962227139,0,0,1.3670891523361206,0,0,0.7644000053405762
0.963225292,0,0,1.3982137441635132,0,0,0.611519992351532
0.964224779,0,0,1.4867992401123047,0,0,0.4586400091648102
0.965224618,0,0,1.5083470344543457,0,0,0.9172800183296204
0.9662264,0,0,1.4508862495422363,0,0,0.5350799560546875
0.967224869,0,0,1.4700398445129395,0,0,0.7644000053405762
0.968224929,0,0,1.403002142906189,0,0,0.8408399820327759
0.969224342,0,0,1.4245500564575195,0,0,0.5350799560546875
0.970225847,0,0,1.3646949529647827,0,0,0.6879600286483765
0.971224723,0,0,1.4317326545715332,0,0,0.6879600286483765
0.97222445,0,0,1.3670891523361206,0,0,0.611519992351532
0.973224363,0,0,1.3910311460494995,0,0,0.8408399820327759
0.974225812,0,0,1.381454348564148,0,0,0.9172800183296204
0.975224947,0,0,1.4293384552001953,0,0,0.611519992351532
0.976224915,0,0,1.4676456451416016,0,0,1.1466000080108643
0.977224698,0,0,1.4532804489135742,0,0,0.5350799560546875
0.978225222,0,0,1.455674648284912,0,0,0.9172800183296204
0.97923119,0,0,1.5610195398330688,0,0,0.8408399820327759
0.980225399,0,0,1.400607943534851,0,0,0.7644000053405762
0.981225367,0,0,1.4197616577148438,0,0,0.9172800183296204
0.982225835,0,0,1.4413094520568848,0,0,0.7644000053405762
0.983224951,0,0,1.3096283674240112,0,0,0.8408399820327759
0.984224771,0,0,1.3934253454208374,0,0,0.9937199950218201
0.985224758,0,0,1.3646949529647827,0,0,0.6879600286483765
0.986225837,0,0,1.5131354331970215,0,0,0.6879600286483765
0.987224842,0,0,1.5849615335464478,0,0,0.9172800183296204
0.988224829,0,0,1.5514427423477173,0,0,0.7644000053405762
0.989237297,0,0,1.5753847360610962,0,0,0
0.990226154,0,0,1.5083470344543457,0,0,0.8408399820327759
0.991224456,0,0,1.314416766166687,0,0,0.7644000053405762
0.992224794,0,0,1.3862427473068237,0,0,0.611519992351532
0.993224633,0,0,1.4413094520568848,0,0,0.8408399820327759
0.994225193,0,0,1.3263877630233765,0,0,0.8408399820327759
0.995224421,0,0,1.3551181554794312,0,0,0.8408399820327759
0.996224833,0,0,1.3335703611373901,0,0,0.9937199950218201
0.997224802,0,0,1.4844050407409668,0,0,0.9937199950218201
0.998232455,0,0,1.501164436340332,0,0,1.1466000080108643
0.999226053,0,0,1.522712230682373,0,0,0.3822000026702881
1.000225243,0,0,1.6687586307525635,0,0,0.8408399820327759
1.001224915,0,0,1.5083470344543457,0,0,0.9172800183296204
1.00222592,0,0,1.4389152526855469,0,0,0.6879600286483765
1.003225018,0,0,1.4173674583435059,0,0,0.8408399820327759
1.004224912,0,0,1.316810965538025,0,0,0.7644000053405762
1.005224917,0,0,1.3263877630233765,0,0,0.7644000053405762
1.0062257,0,0,1.4173674583435059,0,0,0.7644000053405762
1.00722502,0,0,1.359906554222107,0,0,0.611519992351532
1.00822471,0,0,1.357512354850769,0,0,0.611519992351532
1.009224845,0,0,1.4245500564575195,0,0,1.1466000080108643
1.010225887,0,0,1.4939818382263184,0,0,0.3822000026702881
1.011224911,0,0,1.501164436340332,0,0,1.070159912109375
1.012224712,0,0,1.5753847360610962,0,0,1.223039984703064
1.013225032,0,0,1.45806884765625,0,0,0.611519992351532
1.014225778,0,0,1.3838485479354858,0,0,0.6879600286483765
1.015224858,0,0,1.3886369466781616,0,0,0.6879600286483765
1.016224363,0,0,1.41257905960083,0,0,0.8408399820327759
1.017225053,0,0,1.4293384552001953,0,0,0.8408399820327759
1.018225836,0,0,1.436521053314209,0,0,0.9172800183296204
1.019224952,0,0,1.50355863571167,0,0,0.6879600286483765
1.020224958,0,0,1.525106430053711,0,0,0.8408399820327759
1.021224703,0,0,1.4963760375976563,0,0,0.6879600286483765
1.022226005,0,0,1.5538369417190552,0,0,0.8408399820327759
1.023224973,0,0,1.525106430053711,0,0,0.8408399820327759
1.024225071,0,0,1.4053963422775269,0,0,0.6879600286483765
1.025306297,0,0,1.37906014919281,0,0,1.452359914779663
1.026368042,0,0,1.3694833517074585,0,0,0.8408399820327759
1.02722642,0,0,1.3742717504501343,0,0,0.6879600286483765
1.0282257399999999,0,0,1.3551181554794312,0,0,0.9937199950218201
1.02922543,0,0,1.37906014919281,0,0,0.611519992351532
1.030226676,0,0,1.4628572463989258,0,0,0.611519992351532
1.031225311,0,0,1.525106430053711,0,0,1.2994799613952637
1.032225483,0,0,1.5682021379470825,0,0,0.6879600286483765
1.033225284,0,0,1.534683346748352,0,0,0.9937199950218201
1.03422566,0,0,1.5203180313110352,0,0,1.070159912109375
1.035229387,0,0,1.4460978507995605,0,0,0.7644000053405762
1.03629591,0,0,1.4101848602294922,0,0,0.9172800183296204
1.037288415,0,0,1.335964560508728,0,0,0.7644000053405762
1.039171908,0,0,1.335964560508728,0,0,0.9172800183296204
1.039335536,0,0,1.3479355573654175,0,0,0.8408399820327759
1.040228061,0,0,1.359906554222107,0,0,0.7644000053405762
1.041225066,0,0,1.4724340438842773,0,0,0.7644000053405762
1.042225016,0,0,1.522712230682373,0,0,0.9172800183296204
1.043224743,0,0,1.5107412338256836,0,0,0.5350799560546875
1.044224748,0,0,1.50355863571167,0,0,0.7644000053405762
1.0452247159999999,0,0,1.4508862495422363,0,0,0.8408399820327759
1.04622487,0,0,1.3982137441635132,0,0,0.6879600286483765
1.047224616,0,0,1.3623007535934448,0,0,1.070159912109375
1.048224621,0,0,1.4460978507995605,0,0,0.7644000053405762
1.049224608,0,0,1.3431471586227417,0,0,0.9937199950218201
1.050224576,0,0,1.3503297567367554,0,0,0.9172800183296204
1.051224636,0,0,1.3694833517074585,0,0,0.8408399820327759
1.052224642,0,0,1.5825673341751099,0,0,0.5350799560546875
1.053224758,0,0,1.6352397203445435,0,0,0.8408399820327759
1.054224689,0,0,1.5514427423477173,0,0,0.5350799560546875
1.055224861,0,0,1.5466543436050415,0,0,0.9172800183296204
1.056224051,0,0,1.4173674583435059,0,0,0.6879600286483765
1.057224779,0,0,1.3503297567367554,0,0,0.7644000053405762
1.058224839,0,0,1.3886369466781616,0,0,0.9172800183296204
1.059224363,0,0,1.338358759880066,0,0,0.9937199950218201
1.060224905,0,0,1.292868971824646,0,0,0.7644000053405762
1.061243355,0,0,1.2665326595306396,0,0,0.8408399820327759
1.06222736,0,0,1.41257905960083,0,0,0.8408399820327759
1.063224884,0,0,1.5514427423477173,0,0,0.5350799560546875
1.064224889,0,0,1.5442601442337036,0,0,0.8408399820327759
1.06522469,0,0,1.5322890281677246,0,0,0.9937199950218201
1.066225658,0,0,1.4724340438842773,0,0,0.9937199950218201
1.0672247559999999,0,0,1.414973258972168,0,0,0.9937199950218201
1.068224576,0,0,1.4101848602294922,0,0,0.9172800183296204
1.0692245439999999,0,0,1.3862427473068237,0,0,0.9172800183296204
1.070225401,0,0,1.4317326545715332,0,0,0.8408399820327759
1.071224481,0,0,1.3551181554794312,0,0,1.1466000080108643
1.072224764,0,0,1.3694833517074585,0,0,0.9172800183296204
1.073224565,0,0,1.4484920501708984,0,0,0.6879600286483765
1.074225385,0,0,1.5753847360610962,0,0,0.8408399820327759
1.075224631,0,0,1.5705963373184204,0,0,0.9937199950218201
1.076224506,0,0,1.5083470344543457,0,0,0.9172800183296204
1.07722403,0,0,1.4652514457702637,0,0,0.9172800183296204
1.078225387,0,0,1.41257905960083,0,0,0.9172800183296204
1.0792246699999999,0,0,1.4101848602294922,0,0,0.9172800183296204
1.080224546,0,0,1.4221558570861816,0,0,1.1466000080108643
1.081224032,0,0,1.4077905416488647,0,0,0.9172800183296204
1.082225371,0,0,1.292868971824646,0,0,0.611519992351532
1.083224765,0,0,1.381454348564148,0,0,0.9172800183296204
1.084224659,0,0,1.414973258972168,0,0,0.8408399820327759
1.08522459,0,0,1.4939818382263184,0,0,0.5350799560546875
1.086225799,0,0,1.5682021379470825,0,0,1.2994799613952637
1.087224786,0,0,1.5203180313110352,0,0,0.7644000053405762
1.088224661,0,0,1.5298948287963867,0,0,0.611519992351532
1.089224722,0,0,1.4101848602294922,0,0,0.611519992351532
1.090225671,0,0,1.3311761617660522,0,0,0.7644000053405762
1.091224603,0,0,1.4053963422775269,0,0,0.9172800183296204
1.092224682,0,0,1.4173674583435059,0,0,0.9172800183296204
1.093224705,0,0,1.4197616577148438,0,0,0.611519992351532
1.094225618,0,0,1.3527239561080933,0,0,0.5350799560546875
1.095224864,0,0,1.414973258972168,0,0,0.6879600286483765
1.096224628,0,0,1.4939818382263184,0,0,0.4586400091648102
1.097242615,0,0,1.4652514457702637,0,0,0.9172800183296204
1.098232824,0,0,1.4891934394836426,0,0,0.7644000053405762
1.099225662,0,0,1.5442601442337036,0,0,0.9172800183296204
1.100225223,0,0,1.5610195398330688,0,0,0.8408399820327759
1.101225173,0,0,1.3670891523361206,0,0,0.8408399820327759
1.102225548,0,0,1.4197616577148438,0,0,1.375920057296753
1.103224868,0,0,1.359906554222107,0,0,0.6879600286483765
1.104225151,0,0,1.3718775510787964,0,0,0.9937199950218201
1.105224953,0,0,1.4077905416488647,0,0,1.223039984703064
1.106223699,0,0,1.41257905960083,0,0,0.9172800183296204
1.107222445,0,0,1.4867992401123047,0,0,0.6879600286483765
1.108374966,0,0,1.479616641998291,0,0,0.7644000053405762
1.109258899,0,0,1.4389152526855469,0,0,0.5350799560546875
1.110229404,0,0,1.5634137392044067,0,0,0.7644000053405762
1.111226743,0,0,1.4676456451416016,0,0,0.7644000053405762
1.112226656,0,0,1.3479355573654175,0,0,0.9172800183296204
1.113226568,0,0,1.4053963422775269,0,0,0.8408399820327759
1.11422774,0,0,1.381454348564148,0,0,0.9172800183296204
1.115226745,0,0,1.338358759880066,0,0,0.8408399820327759
1.116226324,0,0,1.3431471586227417,0,0,0.9937199950218201
1.117226274,0,0,1.338358759880066,0,0,0.9937199950218201
1.118226427,0,0,1.4532804489135742,0,0,0.9172800183296204
1.119226192,0,0,1.5298948287963867,0,0,0.9172800183296204
1.120226512,0,0,1.556231141090393,0,0,0.7644000053405762
1.121225517,0,0,1.4652514457702637,0,0,0.9937199950218201
1.122225892,0,0,1.4700398445129395,0,0,0.4586400091648102
1.123226509,0,0,1.4053963422775269,0,0,0.7644000053405762
1.124226403,0,0,1.4269442558288574,0,0,0.9172800183296204
1.125226204,0,0,1.4077905416488647,0,0,0.9172800183296204
1.1262275800000001,0,0,1.357512354850769,0,0,0.8408399820327759
1.127226233,0,0,1.357512354850769,0,0,0.9937199950218201
1.128226183,0,0,1.4437036514282227,0,0,0.9172800183296204
1.1292261319999999,0,0,1.482010841369629,0,0,0.6879600286483765
1.130227175,0,0,1.5298948287963867,0,0,1.1466000080108643
1.131226235,0,0,1.4891934394836426,0,0,0.9172800183296204
1.132226389,0,0,1.601720929145813,0,0,1.223039984703064
1.133226727,0,0,1.4867992401123047,0,0,0.7644000053405762
1.134226547,0,0,1.4269442558288574,0,0,0.7644000053405762
1.13522596,0,0,1.4532804489135742,0,0,1.1466000080108643
1.136226372,0,0,1.381454348564148,0,0,0.8408399820327759
1.137226118,0,0,1.3670891523361206,0,0,0.6879600286483765
1.138227364,0,0,1.3862427473068237,0,0,0.9172800183296204
1.139226351,0,0,1.381454348564148,0,0,0.611519992351532
1.1402263,0,0,1.50355863571167,0,0,0.8408399820327759
1.141228435,0,0,1.5442601442337036,0,0,0.4586400091648102
1.142226163,0,0,1.479616641998291,0,0,0.611519992351532
1.14322576,0,0,1.5658079385757446,0,0,0.9937199950218201
1.14422658,0,0,1.4652514457702637,0,0,0.9172800183296204
1.14522603,0,0,1.460463047027588,0,0,1.070159912109375
1.146226313,0,0,1.3646949529647827,0,0,1.1466000080108643
1.147226318,0,0,1.3742717504501343,0,0,0.6879600286483765
1.148226175,0,0,1.3934253454208374,0,0,0.8408399820327759
1.149225977,0,0,1.4101848602294922,0,0,0.5350799560546875
1.150226334,0,0,1.41257905960083,0,0,0.5350799560546875
1.151226024,0,0,1.4628572463989258,0,0,0.611519992351532
1.152226011,0,0,1.4724340438842773,0,0,0.8408399820327759
1.153226016,0,0,1.4245500564575195,0,0,0.6879600286483765
1.154226243,0,0,1.455674648284912,0,0,0.9937199950218201
1.155226063,0,0,1.4652514457702637,0,0,0.8408399820327759
1.156226216,0,0,1.3455413579940796,0,0,0.7644000053405762
1.157226333,0,0,1.3742717504501343,0,0,1.1466000080108643
1.158227134,0,0,1.3934253454208374,0,0,0.8408399820327759
1.1592263250000001,0,0,1.338358759880066,0,0,0.9937199950218201
1.160226089,0,0,1.357512354850769,0,0,0.9937199950218201
1.161225798,0,0,1.4437036514282227,0,0,0.6879600286483765
1.162227155,0,0,1.5107412338256836,0,0,0.8408399820327759
1.163226364,0,0,1.4508862495422363,0,0,0.6879600286483765
1.1642259799999999,0,0,1.4245500564575195,0,0,0.8408399820327759
1.165225744,0,0,1.4867992401123047,0,0,0.8408399820327759
1.16622762,0,0,1.4269442558288574,0,0,0.6879600286483765
1.167260088,0,0,1.3263877630233765,0,0,0.9172800183296204
1.168279111,0,0,1.434126853942871,0,0,0.8408399820327759
1.169266431,0,0,1.381454348564148,0,0,0.8408399820327759
1.170260048,0,0,1.3287819623947144,0,0,0.7644000053405762
1.171285608,0,0,1.3742717504501343,0,0,0.8408399820327759
1.172289872,0,0,1.5131354331970215,0,0,0.611519992351532
1.17329697,0,0,1.6208745241165161,0,0,0.9172800183296204
1.1742952899999999,0,0,1.556231141090393,0,0,0.5350799560546875
1.175303703,0,0,1.4676456451416016,0,0,0.9172800183296204
1.176273486,0,0,1.4772224426269531,0,0,0.7644000053405762
1.177254621,0,0,1.335964560508728,0,0,0.9172800183296204
1.178256182,0,0,1.2761094570159912,0,0,0.7644000053405762
1.17930702,0,0,1.3096283674240112,0,0,0.6879600286483765
1.180346191,0,0,1.381454348564148,0,0,0.9172800183296204
1.181374307,0,0,1.316810965538025,0,0,0.9172800183296204
1.182312924,0,0,1.3551181554794312,0,0,0.8408399820327759
1.18331767,0,0,1.501164436340332,0,0,0.6879600286483765
1.18430336,0,0,1.5466543436050415,0,0,0.8408399820327759
1.1853226239999999,0,0,1.5658079385757446,0,0,0.8408399820327759
1.186317074,0,0,1.4652514457702637,0,0,0.8408399820327759
1.187272932,0,0,1.5107412338256836,0,0,0.9937199950218201
1.188288474,0,0,1.501164436340332,0,0,0.611519992351532
1.1893125900000001,0,0,1.3551181554794312,0,0,0.7644000053405762
1.190288762,0,0,1.3670891523361206,0,0,0.9937199950218201
1.191328266,0,0,1.3431471586227417,0,0,0.9172800183296204
1.192254902,0,0,1.2521674633026123,0,0,0.9937199950218201
1.193330647,0,0,1.3287819623947144,0,0,0.8408399820327759
1.194298005,0,0,1.414973258972168,0,0,0.9172800183296204
1.195284603,0,0,1.5203180313110352,0,0,1.070159912109375
1.196296237,0,0,1.4844050407409668,0,0,0.8408399820327759
1.197285261,0,0,1.4437036514282227,0,0,0.9172800183296204
1.198288748,0,0,1.4748282432556152,0,0,1.1466000080108643
1.199285234,0,0,1.3958195447921753,0,0,0.7644000053405762
1.200247203,0,0,1.335964560508728,0,0,0.7644000053405762
1.201269838,0,0,1.403002142906189,0,0,0.9937199950218201
1.202328916,0,0,1.3215993642807007,0,0,0.9172800183296204
1.203308236,0,0,1.3311761617660522,0,0,0.7644000053405762
1.204293501,0,0,1.3910311460494995,0,0,0.9937199950218201
1.20535932,0,0,1.41257905960083,0,0,0.9172800183296204
1.207378774,0,0,1.5825673341751099,0,0,1.070159912109375
1.207604086,0,0,1.5825673341751099,0,0,0.8408399820327759
1.208382391,0,0,1.460463047027588,0,0,0.5350799560546875
1.209289656,0,0,1.5131354331970215,0,0,1.1466000080108643
1.210303087,0,0,1.4532804489135742,0,0,0.9172800183296204
1.211267556,0,0,1.3910311460494995,0,0,0.9937199950218201
1.2122990790000001,0,0,1.3646949529647827,0,0,0.9937199950218201
1.2132911769999999,0,0,1.3048399686813354,0,0,0.611519992351532
1.214284127,0,0,1.314416766166687,0,0,0.9937199950218201
1.215258984,0,0,1.3838485479354858,0,0,0.7644000053405762
1.216374377,0,0,1.4389152526855469,0,0,0.6879600286483765
1.217263309,0,0,1.501164436340332,0,0,0.7644000053405762
1.218260759,0,0,1.5131354331970215,0,0,0.7644000053405762
1.21928869,0,0,1.5083470344543457,0,0,0.7644000053405762
1.220287769,0,0,1.5514427423477173,0,0,0.9172800183296204
1.22131444,0,0,1.37906014919281,0,0,0.6879600286483765
1.222290705,0,0,1.314416766166687,0,0,1.1466000080108643
1.223305747,0,0,1.4197616577148438,0,0,0.9172800183296204
1.224264049,0,0,1.359906554222107,0,0,0.7644000053405762
1.225246592,0,0,1.3766659498214722,0,0,0
1.2262655040000001,0,0,1.3455413579940796,0,0,0.8408399820327759
1.227297398,0,0,1.4867992401123047,0,0,0.6879600286483765
1.228319828,0,0,1.5442601442337036,0,0,1.070159912109375
1.229286519,0,0,1.5322890281677246,0,0,0.611519992351532
1.230318209,0,0,1.5179238319396973,0,0,0.8408399820327759
1.231303085,0,0,1.50355863571167,0,0,0.9937199950218201
1.232302534,0,0,1.460463047027588,0,0,0.7644000053405762
1.233359891,0,0,1.3934253454208374,0,0,0.7644000053405762
1.234291471,0,0,1.3527239561080933,0,0,0.9172800183296204
1.235272161,0,0,1.2952631711959839,0,0,0.7644000053405762
1.236270222,0,0,1.3000515699386597,0,0,0.7644000053405762
1.23729832,0,0,1.3479355573654175,0,0,0.5350799560546875
1.23828714,0,0,1.5825673341751099,0,0,0.9172800183296204
1.24047961,0,0,1.4676456451416016,0,0,0.9172800183296204
1.241149639,0,0,1.4676456451416016,0,0,0.8408399820327759
1.241356469,0,0,1.5849615335464478,0,0,0.8408399820327759
1.242426603,0,0,1.5849615335464478,0,0,0.9172800183296204
1.243363424,0,0,1.4077905416488647,0,0,0.7644000053405762
1.244315189,0,0,1.3263877630233765,0,0,0.9172800183296204
1.24532949,0,0,1.359906554222107,0,0,0.611519992351532
1.246290959,0,0,1.290474772453308,0,0,0.9172800183296204
1.247314779,0,0,1.4269442558288574,0,0,0.9172800183296204
1.248363968,0,0,1.525106430053711,0,0,0.6879600286483765
1.249854041,0,0,1.525106430053711,0,0,0.8408399820327759
1.250251906,0,0,1.5083470344543457,0,0,0.8408399820327759
1.251316336,0,0,1.4053963422775269,0,0,0.611519992351532
1.252331545,0,0,1.4437036514282227,0,0,0.7644000053405762
1.253270884,0,0,1.5658079385757446,0,0,0.7644000053405762
1.254309278,0,0,1.4844050407409668,0,0,0.7644000053405762
1.255312968,0,0,1.3503297567367554,0,0,0.8408399820327759
1.256278548,0,0,1.3910311460494995,0,0,0.9172800183296204
1.257334552,0,0,1.3838485479354858,0,0,0.9937199950218201
1.258293262,0,0,1.3694833517074585,0,0,1.070159912109375
1.259268749,0,0,1.4748282432556152,0,0,0.7644000053405762
1.260419567,0,0,1.4724340438842773,0,0,0.5350799560546875
1.261415868,0,0,1.4724340438842773,0,0,1.223039984703064
1.262324078,0,0,1.4772224426269531,0,0,0.6879600286483765
1.263290843,0,0,1.4413094520568848,0,0,0.8408399820327759
1.264280237,0,0,1.4772224426269531,0,0,0.9172800183296204
1.265263243,0,0,1.4484920501708984,0,0,0.6879600286483765
1.266272729,0,0,1.4101848602294922,0,0,0.6879600286483765
1.267276475,0,0,1.3742717504501343,0,0,1.070159912109375
1.268276739,0,0,1.290474772453308,0,0,0.8408399820327759
1.269264134,0,0,1.3934253454208374,0,0,0.7644000053405762
1.2702725830000001,0,0,1.3982137441635132,0,0,0.6879600286483765
1.271269663,0,0,1.4844050407409668,0,0,0.6879600286483765
1.272261094,0,0,1.5945383310317993,0,0,1.070159912109375
1.273278784,0,0,1.5514427423477173,0,0,0.6879600286483765
1.274278585,0,0,1.436521053314209,0,0,0.611519992351532
1.27526798,0,0,1.4891934394836426,0,0,0.9172800183296204
1.276240541,0,0,1.4317326545715332,0,0,0.6879600286483765
1.277228361,0,0,1.3263877630233765,0,0,0.7644000053405762
1.278251884,0,0,1.403002142906189,0,0,1.070159912109375
1.279224908,0,0,1.4053963422775269,0,0,0.7644000053405762
1.2802228580000001,0,0,1.357512354850769,0,0,0.7644000053405762
1.281222252,0,0,1.4101848602294922,0,0,0.6879600286483765
1.282223664,0,0,1.5275006294250488,0,0,0.8408399820327759
1.2832225400000001,0,0,1.5825673341751099,0,0,0.9937199950218201
1.284222453,0,0,1.5083470344543457,0,0,0.4586400091648102
1.285222495,0,0,1.5107412338256836,0,0,0.5350799560546875
1.286223111,0,0,1.5514427423477173,0,0,1.223039984703064
1.287222283,0,0,1.3934253454208374,0,0,0.9172800183296204
1.288222473,0,0,1.3407529592514038,0,0,0.7644000053405762
1.289222441,0,0,1.3958195447921753,0,0,0.611519992351532
1.2902224279999999,0,0,1.400607943534851,0,0,0.611519992351532
1.291222433,0,0,1.3287819623947144,0,0,0.7644000053405762
1.292222401,0,0,1.3000515699386597,0,0,0.611519992351532
1.293221962,0,0,1.4987702369689941,0,0,0.6879600286483765
1.294227338,0,0,1.5083470344543457,0,0,0.7644000053405762
1.295225028,0,0,1.4939818382263184,0,0,0.5350799560546875
1.296224607,0,0,1.5155296325683594,0,0,0.6879600286483765
1.297224409,0,0,1.482010841369629,0,0,0.9172800183296204
1.298234099,0,0,1.4389152526855469,0,0,0.7644000053405762
1.2992265490000001,0,0,1.3646949529647827,0,0,0.9172800183296204
1.300225572,0,0,1.434126853942871,0,0,0.8408399820327759
1.3012254109999999,0,0,1.3886369466781616,0,0,0.8408399820327759
1.302225527,0,0,1.403002142906189,0,0,0.9937199950218201
1.3032252180000001,0,0,1.403002142906189,0,0,0.9172800183296204
1.304225371,0,0,1.4484920501708984,0,0,0.9937199950218201
1.30522508,0,0,1.5131354331970215,0,0,1.070159912109375
1.306225844,0,0,1.5179238319396973,0,0,0.6879600286483765
1.307225275,0,0,1.4724340438842773,0,0,0.611519992351532
1.308225336,0,0,1.4460978507995605,0,0,1.1466000080108643
1.3092254890000001,0,0,1.4101848602294922,0,0,0.8408399820327759
1.310225309,0,0,1.3982137441635132,0,0,0.7644000053405762
1.3112249440000001,0,0,1.3623007535934448,0,0,20.409481048583984
1.31222519,0,0,1.414973258972168,0,0,0
1.313225103,0,0,1.4077905416488647,0,0,1.070159912109375
1.3142236999999999,0,0,1.403002142906189,0,0,1.1466000080108643
1.315222206,0,0,1.4844050407409668,0,0,0.7644000053405762
1.316222526,0,0,1.436521053314209,0,0,0.9172800183296204
1.317222623,0,0,1.4676456451416016,0,0,0.6879600286483765
1.318231443,0,0,1.4772224426269531,0,0,0.8408399820327759
1.319228374,0,0,1.4221558570861816,0,0,0.9172800183296204
1.320776428,0,0,1.4221558570861816,0,0,0.8408399820327759
1.321230292,0,0,1.460463047027588,0,0,0.8408399820327759
1.322564645,0,0,1.460463047027588,0,0,0.9172800183296204
1.3232629870000001,0,0,1.359906554222107,0,0,1.070159912109375
1.3242297889999999,0,0,1.3192051649093628,0,0,0.9172800183296204
1.325839416,0,0,1.3192051649093628,0,0,0.5350799560546875
1.326233744,0,0,1.4676456451416016,0,0,0.9172800183296204
1.327229156,0,0,1.53707754611969,0,0,1.223039984703064
1.3282568829999999,0,0,1.5514427423477173,0,0,0.611519992351532
1.329228074,0,0,1.4987702369689941,0,0,0.9172800183296204
1.330226783,0,0,1.4939818382263184,0,0,0.6879600286483765
1.331226196,0,0,1.3934253454208374,0,0,0.7644000053405762
1.332226053,0,0,1.4245500564575195,0,0,0.7644000053405762
1.333226354,0,0,1.4508862495422363,0,0,0
1.334227748,0,0,1.3527239561080933,0,0,0.9172800183296204
1.3352262719999999,0,0,1.290474772453308,0,0,0.9937199950218201
1.336226259,0,0,1.3431471586227417,0,0,0.4586400091648102
1.337226171,0,0,1.5490485429763794,0,0,0.8408399820327759
1.33822675,0,0,1.5849615335464478,0,0,0.8408399820327759
1.339225626,0,0,1.5298948287963867,0,0,0.6879600286483765
1.340225427,0,0,1.525106430053711,0,0,0.8408399820327759
1.34149467,0,0,1.525106430053711,0,0,0.9937199950218201
1.342226123,0,0,1.45806884765625,0,0,0.9172800183296204
1.343224036,0,0,1.3742717504501343,0,0,0.9172800183296204
1.3442240779999999,0,0,1.314416766166687,0,0,0.8408399820327759
1.345224064,0,0,1.3335703611373901,0,0,0
1.346224125,0,0,1.3982137441635132,0,0,1.1466000080108643
1.347223501,0,0,1.4844050407409668,0,0,0.7644000053405762
1.3482238020000001,0,0,1.6208745241165161,0,0,0.6879600286483765
1.3492237519999999,0,0,1.5849615335464478,0,0,0.6879600286483765
1.350224535,0,0,1.5753847360610962,0,0,0.8408399820327759
1.351224151,0,0,1.4676456451416016,0,0,0.9172800183296204
1.35222386,0,0,1.434126853942871,0,0,0.9172800183296204
1.353223828,0,0,1.335964560508728,0,0,0.611519992351532
1.354226741,0,0,1.292868971824646,0,0,0.8408399820327759
1.3552264680000001,0,0,1.2737152576446533,0,0,0.611519992351532
1.356226084,0,0,1.3096283674240112,0,0,0.611519992351532
1.357226145,0,0,1.280897855758667,0,0,0.9172800183296204
1.35822728,0,0,1.381454348564148,0,0,0.6879600286483765
1.359235896,0,0,1.5634137392044067,0,0,0.8408399820327759
1.360269215,0,0,1.5634137392044067,0,0,0.9172800183296204
1.361245147,0,0,1.5634137392044067,0,0,0.611519992351532
1.362230708,0,0,1.580173134803772,0,0,0.611519992351532
1.363227491,0,0,1.5682021379470825,0,0,0.9937199950218201
1.364226014,0,0,1.3503297567367554,0,0,0.7644000053405762
1.36522589,0,0,1.4197616577148438,0,0,0.8408399820327759
1.366226636,0,0,1.4221558570861816,0,0,0.7644000053405762
1.367226049,0,0,1.4077905416488647,0,0,0.9937199950218201
1.368226054,0,0,1.37906014919281,0,0,0.7644000053405762
1.369252355,0,0,1.4939818382263184,0,0,0.6879600286483765
1.370259489,0,0,1.5275006294250488,0,0,0.611519992351532
1.37125381,0,0,1.4532804489135742,0,0,0.9172800183296204
1.372253778,0,0,1.5155296325683594,0,0,0.9937199950218201
1.373258616,0,0,1.5155296325683594,0,0,0.9172800183296204
1.374260121,0,0,1.4317326545715332,0,0,0.6879600286483765
1.375242497,0,0,1.403002142906189,0,0,0.9172800183296204
1.376233188,0,0,1.434126853942871,0,0,0.9937199950218201
1.377246637,0,0,1.292868971824646,0,0,0.9937199950218201
1.378231587,0,0,1.3694833517074585,0,0,0.8408399820327759
1.379228296,0,0,1.3982137441635132,0,0,0.8408399820327759
1.380225949,0,0,1.4700398445129395,0,0,0.5350799560546875
1.381226139,0,0,1.5322890281677246,0,0,0.5350799560546875
1.382227626,0,0,1.5083470344543457,0,0,0.7644000053405762
1.383226279,0,0,1.53707754611969,0,0,0.611519992351532
1.384225896,0,0,1.482010841369629,0,0,1.1466000080108643
1.385225956,0,0,1.3527239561080933,0,0,0.9937199950218201
1.386227091,0,0,1.4628572463989258,0,0,0.7644000053405762
1.387226059,0,0,1.4700398445129395,0,0,0.9937199950218201
1.388226435,0,0,1.3527239561080933,0,0,0.8408399820327759
1.389225977,0,0,1.3694833517074585,0,0,0.6879600286483765
1.3902268709999999,0,0,1.3958195447921753,0,0,1.070159912109375
1.3912260060000001,0,0,1.434126853942871,0,0,0.8408399820327759
1.392226122,0,0,1.4676456451416016,0,0,0.6879600286483765
1.393226109,0,0,1.4293384552001953,0,0,0.9172800183296204
1.394226873,0,0,1.4437036514282227,0,0,0.8408399820327759
1.395225953,0,0,1.5490485429763794,0,0,0.9937199950218201
1.396226032,0,0,1.4053963422775269,0,0,0.8408399820327759
1.397225981,0,0,1.403002142906189,0,0,0.6879600286483765
1.398227209,0,0,1.3838485479354858,0,0,1.223039984703064
1.399226103,0,0,1.3239935636520386,0,0,0.8408399820327759
1.4002262380000001,0,0,1.3311761617660522,0,0,0.8408399820327759
1.401226039,0,0,1.4508862495422363,0,0,0.6879600286483765
1.402226304,0,0,1.5682021379470825,0,0,0.8408399820327759
1.403226068,0,0,1.580173134803772,0,0,0.5350799560546875
1.40422611,0,0,1.6136919260025024,0,0,0.9172800183296204
1.405226134,0,0,1.5705963373184204,0,0,0.611519992351532
1.406226306,0,0,1.5298948287963867,0,0,0.9937199950218201
1.407226033,0,0,1.4173674583435059,0,0,0.8408399820327759
1.408225649,0,0,1.3646949529647827,0,0,0.7644000053405762
1.409226988,0,0,1.3862427473068237,0,0,1.1466000080108643
1.410228271,0,0,1.3670891523361206,0,0,0.9172800183296204
1.4112263870000001,0,0,1.381454348564148,0,0,0.611519992351532
1.41222567,0,0,1.381454348564148,0,0,1.070159912109375
1.41322612,0,0,1.5203180313110352,0,0,0.5350799560546875
1.4142270319999999,0,0,1.577778935432434,0,0,0.8408399820327759
1.415225982,0,0,1.482010841369629,0,0,0.9172800183296204
1.416225876,0,0,1.3670891523361206,0,0,0.5350799560546875
1.417225974,0,0,1.4939818382263184,0,0,0.9172800183296204
1.418226849,0,0,1.400607943534851,0,0,0.7644000053405762
1.419226132,0,0,1.3766659498214722,0,0,0
1.420225804,0,0,1.4053963422775269,0,0,0.8408399820327759
1.421226254,0,0,1.3503297567367554,0,0,0.9937199950218201
1.422227074,0,0,1.2761094570159912,0,0,0.6879600286483765
1.4232263010000001,0,0,1.278503656387329,0,0,0.9937199950218201
1.424225732,0,0,1.436521053314209,0,0,0.7644000053405762
1.425226071,0,0,1.5466543436050415,0,0,0.8408399820327759
1.4262271499999999,0,0,1.5825673341751099,0,0,0.8408399820327759
1.427226211,0,0,1.577778935432434,0,0,0.6879600286483765
1.428261382,0,0,1.460463047027588,0,0,0.9937199950218201
1.429228758,0,0,1.3862427473068237,0,0,0.9937199950218201
1.430230504,0,0,1.4077905416488647,0,0,0.8408399820327759
1.4312264350000001,0,0,1.479616641998291,0,0,0.9172800183296204
1.432226422,0,0,1.335964560508728,0,0,0.7644000053405762
1.433225575,0,0,1.381454348564148,0,0,0.9172800183296204
1.43422658,0,0,1.4652514457702637,0,0,1.070159912109375
1.435226178,0,0,1.525106430053711,0,0,0.7644000053405762
1.436225998,0,0,1.501164436340332,0,0,0.7644000053405762
1.437240281,0,0,1.5394717454910278,0,0,1.070159912109375
1.438227471,0,0,1.4652514457702637,0,0,0.152879998087883
1.439231699,0,0,1.5107412338256836,0,0,1.1466000080108643
1.440226537,0,0,1.434126853942871,0,0,0.9172800183296204
1.441226024,0,0,1.2880805730819702,0,0,0.6879600286483765
1.44222714,0,0,1.3694833517074585,0,0,0.9937199950218201
1.443225905,0,0,1.3096283674240112,0,0,0.9172800183296204
1.44422578,0,0,1.3072341680526733,0,0,0.6879600286483765
1.445226026,0,0,1.3431471586227417,0,0,0.9172800183296204
1.446226827,0,0,1.5155296325683594,0,0,0.6879600286483765
1.447226203,0,0,1.5897499322891235,0,0,0.6879600286483765
1.4482258749999999,0,0,1.5658079385757446,0,0,1.1466000080108643
1.449225973,0,0,1.5849615335464478,0,0,0.8408399820327759
1.450227181,0,0,1.5538369417190552,0,0,0.5350799560546875
1.451226057,0,0,1.41257905960083,0,0,1.070159912109375
1.452225896,0,0,1.400607943534851,0,0,0.8408399820327759
1.453225956,0,0,1.3287819623947144,0,0,0.9172800183296204
1.454226795,0,0,1.290474772453308,0,0,0.6879600286483765
1.455225689,0,0,1.4101848602294922,0,0,0.9172800183296204
1.456225861,0,0,1.4508862495422363,0,0,0.7644000053405762
1.457226014,0,0,1.558625340461731,0,0,0.9937199950218201
1.458226797,0,0,1.4867992401123047,0,0,0.9172800183296204
1.459225747,0,0,1.4676456451416016,0,0,1.070159912109375
1.460226011,0,0,1.5203180313110352,0,0,0.5350799560546875
1.46122609,0,0,1.4652514457702637,0,0,0.9172800183296204
1.4622272060000001,0,0,1.3455413579940796,0,0,0.6879600286483765
1.463226286,0,0,1.3934253454208374,0,0,0.9172800183296204
1.464226198,0,0,1.3934253454208374,0,0,0.6879600286483765
1.465226074,0,0,1.3335703611373901,0,0,0.5350799560546875
1.466227079,0,0,1.338358759880066,0,0,1.1466000080108643
1.46722601,0,0,1.3455413579940796,0,0,0.611519992351532
1.468226015,0,0,1.5394717454910278,0,0,0.7644000053405762
1.469225835,0,0,1.5538369417190552,0,0,0.7644000053405762
1.470226526,0,0,1.460463047027588,0,0,0.6879600286483765
1.471225975,0,0,1.436521053314209,0,0,0.6879600286483765
1.47222598,0,0,1.556231141090393,0,0,0.8408399820327759
1.473225745,0,0,1.3551181554794312,0,0,0.6879600286483765
1.474227157,0,0,1.2952631711959839,0,0,0.6879600286483765
1.4752261070000001,0,0,1.2952631711959839,0,0,0.8408399820327759
1.476225483,0,0,1.3646949529647827,0,0,0.9172800183296204
1.4772257469999999,0,0,1.3192051649093628,0,0,0.6879600286483765
1.4782271599999999,0,0,1.3670891523361206,0,0,0.8408399820327759
1.479229183,0,0,1.5466543436050415,0,0,0.7644000053405762
1.480225744,0,0,1.5945383310317993,0,0,0.7644000053405762
1.481231731,0,0,1.4676456451416016,0,0,0.8408399820327759
1.482227736,0,0,1.5634137392044067,0,0,0.6879600286483765
1.483226111,0,0,1.5466543436050415,0,0,0.9937199950218201
1.484225876,0,0,1.3838485479354858,0,0,0.8408399820327759
1.485225918,0,0,1.3311761617660522,0,0,0.8408399820327759
1.486227108,0,0,1.3431471586227417,0,0,0.7644000053405762
1.48722604,0,0,1.335964560508728,0,0,0.6879600286483765
1.488225952,0,0,1.3694833517074585,0,0,0.5350799560546875
1.4892258649999999,0,0,1.4700398445129395,0,0,0.6879600286483765
1.4902270739999999,0,0,1.6328455209732056,0,0,0.9937199950218201
1.491225912,0,0,1.5945383310317993,0,0,0.9172800183296204
1.492225825,0,0,1.5490485429763794,0,0,0.9172800183296204
1.493226274,0,0,1.5921441316604614,0,0,0.9937199950218201
1.494226872,0,0,1.5394717454910278,0,0,1.223039984703064
1.495225729,0,0,1.3215993642807007,0,0,0.9937199950218201
1.496225975,0,0,1.314416766166687,0,0,0.9172800183296204
1.497225925,0,0,1.3766659498214722,0,0,1.1466000080108643
1.498227263,0,0,1.338358759880066,0,0,0.8408399820327759
1.49922599,0,0,1.3694833517074585,0,0,0.8408399820327759
1.500226107,0,0,1.455674648284912,0,0,0.8408399820327759
1.501235575,0,0,1.558625340461731,0,0,0.6879600286483765
1.5022280430000001,0,0,1.5514427423477173,0,0,0.5350799560546875
1.50322577,0,0,1.4724340438842773,0,0,0.9937199950218201
1.504225887,0,0,1.4628572463989258,0,0,0.9937199950218201
1.505226003,0,0,1.5203180313110352,0,0,0.8408399820327759
1.506227008,0,0,1.381454348564148,0,0,0.7644000053405762
1.5072258280000002,0,0,1.3479355573654175,0,0,0.6879600286483765
1.5082261300000002,0,0,1.4173674583435059,0,0,0.9937199950218201
1.509225968,0,0,1.359906554222107,0,0,0.6879600286483765
1.5102272700000001,0,0,1.3192051649093628,0,0,0.7644000053405762
1.511225904,0,0,1.335964560508728,0,0,0.9937199950218201
1.5122259279999999,0,0,1.4724340438842773,0,0,0.611519992351532
1.513226026,0,0,1.5873557329177856,0,0,0.8408399820327759
1.5142271790000001,0,0,1.4269442558288574,0,0,0.7644000053405762
1.515227721,0,0,1.4293384552001953,0,0,0.7644000053405762
1.516225764,0,0,1.4867992401123047,0,0,0.9172800183296204
1.517226232,0,0,1.4676456451416016,0,0,0.8408399820327759
1.518226922,0,0,1.4173674583435059,0,0,0.7644000053405762
1.5192261679999999,0,0,1.4077905416488647,0,0,0.8408399820327759
1.520226025,0,0,1.3886369466781616,0,0,0.8408399820327759
1.521226123,0,0,1.4173674583435059,0,0,1.070159912109375
1.522227128,0,0,1.41257905960083,0,0,1.070159912109375
1.523226133,0,0,1.5179238319396973,0,0,0.5350799560546875
1.524225972,0,0,1.455674648284912,0,0,1.070159912109375
1.525226051,0,0,1.4652514457702637,0,0,0.5350799560546875
1.52622713,0,0,1.482010841369629,0,0,0.611519992351532
1.5272258760000001,0,0,1.5107412338256836,0,0,1.1466000080108643
1.5282259919999999,0,0,1.3958195447921753,0,0,0.9172800183296204
1.529226053,0,0,1.3718775510787964,0,0,0.6879600286483765
1.530226262,0,0,1.3646949529647827,0,0,1.070159912109375
1.531226008,0,0,1.400607943534851,0,0,0.9172800183296204
1.532226032,0,0,1.3742717504501343,0,0,1.070159912109375
1.533226148,0,0,1.3886369466781616,0,0,0.7644000053405762
1.534226042,0,0,1.4915876388549805,0,0,0.5350799560546875
1.535225769,0,0,1.4628572463989258,0,0,0.7644000053405762
1.536226163,0,0,1.4245500564575195,0,0,0.6879600286483765
1.5372260199999999,0,0,1.4413094520568848,0,0,0.7644000053405762
1.538226359,0,0,1.4508862495422363,0,0,1.070159912109375
1.53922566,0,0,1.3311761617660522,0,0,0.6879600286483765
1.540225536,0,0,1.3527239561080933,0,0,0.8408399820327759
1.54122506,0,0,1.3742717504501343,0,0,0.9172800183296204
1.5422381760000001,0,0,1.4460978507995605,0,0,0.8408399820327759
1.5432264770000002,0,0,1.479616641998291,0,0,1.070159912109375
1.5442240200000001,0,0,1.4460978507995605,0,0,0.611519992351532
1.545223877,0,0,1.5849615335464478,0,0,0.8408399820327759
1.546224585,0,0,1.5729905366897583,0,0,0.9172800183296204
1.5472237199999999,0,0,1.4867992401123047,0,0,0.611519992351532
1.548223985,0,0,1.5873557329177856,0,0,0.6879600286483765
1.549223731,0,0,1.5466543436050415,0,0,0.8408399820327759
1.550224458,0,0,1.3311761617660522,0,0,0.611519992351532
1.551223945,0,0,1.37906014919281,0,0,0.7644000053405762
1.552224024,0,0,1.280897855758667,0,0,0.9937199950218201
1.553223881,0,0,1.3934253454208374,0,0,0.9937199950218201
1.554223812,0,0,1.3694833517074585,0,0,0.8408399820327759
1.555223762,0,0,1.455674648284912,0,0,0.8408399820327759
1.5562237479999999,0,0,1.4963760375976563,0,0,0.611519992351532
1.557223605,0,0,1.4676456451416016,0,0,0.9172800183296204
1.558226999,0,0,1.5083470344543457,0,0,0.6879600286483765
1.559226282,0,0,1.4748282432556152,0,0,0.8408399820327759
1.5602261579999999,0,0,1.4724340438842773,0,0,1.223039984703064
1.561229681,0,0,1.3982137441635132,0,0,0.8408399820327759
1.5622270390000002,0,0,1.3862427473068237,0,0,0.8408399820327759
1.5632256180000001,0,0,1.3455413579940796,0,0,0.8408399820327759
1.56422603,0,0,1.4221558570861816,0,0,0.6879600286483765
1.565237739,0,0,1.4293384552001953,0,0,0.9172800183296204
1.5697881599999999,0,0,1.4293384552001953,0,0,0.4586400091648102
1.569952417,0,0,1.4437036514282227,0,0,1.070159912109375
1.5701155999999998,0,0,1.4437036514282227,0,0,1.070159912109375
1.570278524,0,0,1.4437036514282227,0,0,0.0764399990439415
1.5704411139999999,0,0,1.5059528350830078,0,0,0.9172800183296204
1.571233233,0,0,1.460463047027588,0,0,1.070159912109375
1.5722255349999998,0,0,1.3527239561080933,0,0,0.4586400091648102
1.5732304099999999,0,0,1.3910311460494995,0,0,0.6879600286483765
1.5748882210000001,0,0,1.3694833517074585,0,0,0.611519992351532
1.5752684019999998,0,0,1.3479355573654175,0,0,0.6879600286483765
1.57651057,0,0,1.3479355573654175,0,0,0.9937199950218201
1.577256301,0,0,1.3718775510787964,0,0,0.611519992351532
1.5782276400000002,0,0,1.501164436340332,0,0,0.9172800183296204
1.579224756,0,0,1.4460978507995605,0,0,0.9172800183296204
1.5802241129999999,0,0,1.4437036514282227,0,0,0.6879600286483765
1.581223637,0,0,1.50355863571167,0,0,0.7644000053405762
1.582231142,0,0,1.4173674583435059,0,0,0.9172800183296204
1.583227962,0,0,1.2737152576446533,0,0,0.6879600286483765
1.58458174,0,0,1.3646949529647827,0,0,0.8408399820327759
1.585683059,0,0,1.3120225667953491,0,0,0.7644000053405762
1.58623194,0,0,1.3024457693099976,0,0,0.6879600286483765
1.5872714449999998,0,0,1.3479355573654175,0,0,0.9172800183296204
1.588233988,0,0,1.37906014919281,0,0,0.9172800183296204
1.589224993,0,0,1.45806884765625,0,0,0.7644000053405762
1.5902288869999999,0,0,1.5107412338256836,0,0,0.6879600286483765
1.591224652,0,0,1.4891934394836426,0,0,0.5350799560546875
1.5922248049999999,0,0,1.558625340461731,0,0,0.8408399820327759
1.593224347,0,0,1.5682021379470825,0,0,1.2994799613952637
1.594224612,0,0,1.434126853942871,0,0,0.611519992351532
1.59522508,0,0,1.4077905416488647,0,0,0.9937199950218201
1.5962244920000002,0,0,1.357512354850769,0,0,0.611519992351532
1.59722422,0,0,1.3479355573654175,0,0,0.9172800183296204
1.598239336,0,0,1.3766659498214722,0,0,1.070159912109375
1.599228026,0,0,1.338358759880066,0,0,0.7644000053405762
1.6002271430000001,0,0,1.4317326545715332,0,0,0.6879600286483765
1.601227111,0,0,1.5275006294250488,0,0,1.223039984703064
1.6022270600000001,0,0,1.5394717454910278,0,0,0.5350799560546875
1.603228732,0,0,1.522712230682373,0,0,0.8408399820327759
1.604227163,0,0,1.479616641998291,0,0,1.070159912109375
1.605227502,0,0,1.314416766166687,0,0,0.7644000053405762
1.606227322,0,0,1.3766659498214722,0,0,0.8408399820327759
1.608232073,0,0,1.3694833517074585,0,0,0.7644000053405762
1.608466996,0,0,1.400607943534851,0,0,0.6879600286483765
1.609310003,0,0,1.3694833517074585,0,0,0.8408399820327759
1.610285934,0,0,1.3862427473068237,0,0,0.6879600286483765
1.611270865,0,0,1.4844050407409668,0,0,0.6879600286483765
1.612344036,0,0,1.534683346748352,0,0,1.1466000080108643
1.613410004,0,0,1.5538369417190552,0,0,0.6879600286483765
1.614307325,0,0,1.501164436340332,0,0,0.6879600286483765
1.615344052,0,0,1.4389152526855469,0,0,1.223039984703064
1.616265428,0,0,1.3215993642807007,0,0,0.7644000053405762
1.617271137,0,0,1.3120225667953491,0,0,0.9937199950218201
1.618250587,0,0,1.3551181554794312,0,0,0.8408399820327759
1.61923363,0,0,1.37906014919281,0,0,0.7644000053405762
1.620239598,0,0,1.4245500564575195,0,0,0.9937199950218201
1.6212668799999999,0,0,1.4867992401123047,0,0,0.8408399820327759
1.622247312,0,0,1.4963760375976563,0,0,0.8408399820327759
1.623245465,0,0,1.4844050407409668,0,0,1.070159912109375
1.624251229,0,0,1.4221558570861816,0,0,0.4586400091648102
1.625227309,0,0,1.4389152526855469,0,0,0.7644000053405762
1.626229184,0,0,1.4484920501708984,0,0,0.9937199950218201
1.6272253559999998,0,0,1.314416766166687,0,0,0.7644000053405762
1.6282252499999998,0,0,1.3527239561080933,0,0,0.9937199950218201
1.629246922,0,0,1.41257905960083,0,0,0.611519992351532
1.6302337420000002,0,0,1.4460978507995605,0,0,0.6879600286483765
1.631225507,0,0,1.4173674583435059,0,0,1.223039984703064
1.632225104,0,0,1.4748282432556152,0,0,0.6879600286483765
1.633225017,0,0,1.534683346748352,0,0,0.6879600286483765
1.634225467,0,0,1.501164436340332,0,0,0.9172800183296204
1.635225175,0,0,1.479616641998291,0,0,0.9172800183296204
1.636225088,0,0,1.5155296325683594,0,0,0.8408399820327759
1.637225075,0,0,1.4245500564575195,0,0,0.9937199950218201
1.6382251540000001,0,0,1.3934253454208374,0,0,0.611519992351532
1.639224455,0,0,1.4077905416488647,0,0,0.9937199950218201
1.64022509,0,0,1.3766659498214722,0,0,0.9937199950218201
1.641224929,0,0,1.3311761617660522,0,0,0.4586400091648102
1.64222486,0,0,1.359906554222107,0,0,0.9172800183296204
1.643225124,0,0,1.41257905960083,0,0,0.7644000053405762
1.644224852,0,0,1.5394717454910278,0,0,0.611519992351532
1.6452249860000001,0,0,1.482010841369629,0,0,0.8408399820327759
1.646224992,0,0,1.4987702369689941,0,0,0.7644000053405762
1.647225219,0,0,1.4915876388549805,0,0,0.6879600286483765
1.648225095,0,0,1.4269442558288574,0,0,1.1466000080108643
1.6492248219999999,0,0,1.314416766166687,0,0,0.7644000053405762
1.6502251970000001,0,0,1.3694833517074585,0,0,0.8408399820327759
1.651224906,0,0,1.400607943534851,0,0,0.611519992351532
1.652225097,0,0,1.359906554222107,0,0,0.9172800183296204
1.6532250830000002,0,0,1.381454348564148,0,0,0.9937199950218201
1.654225163,0,0,1.45806884765625,0,0,0.611519992351532
1.655225112,0,0,1.45806884765625,0,0,0.611519992351532
1.656224877,0,0,1.5442601442337036,0,0,0.9172800183296204
1.657224937,0,0,1.5179238319396973,0,0,0.6879600286483765
1.658225276,0,0,1.5298948287963867,0,0,0.9172800183296204
1.659224985,0,0,1.3982137441635132,0,0,0.6879600286483765
1.660224564,0,0,1.4460978507995605,0,0,0.611519992351532
1.661225273,0,0,1.4484920501708984,0,0,0.7644000053405762
1.662225019,0,0,1.3934253454208374,0,0,0.6879600286483765
1.6632250050000001,0,0,1.3742717504501343,0,0,0.8408399820327759
1.664224511,0,0,1.4077905416488647,0,0,1.070159912109375
1.665224923,0,0,1.4891934394836426,0,0,0.611519992351532
1.666225132,0,0,1.5682021379470825,0,0,0.9172800183296204
1.667224934,0,0,1.558625340461731,0,0,1.070159912109375
1.6682251240000001,0,0,1.5394717454910278,0,0,0.5350799560546875
1.6692249810000002,0,0,1.4652514457702637,0,0,0.7644000053405762
1.670226597,0,0,1.4173674583435059,0,0,0.8408399820327759
1.671224936,0,0,1.3742717504501343,0,0,1.1466000080108643
1.672225219,0,0,1.4101848602294922,0,0,1.223039984703064
1.673224853,0,0,1.3479355573654175,0,0,0.6879600286483765
1.674226099,0,0,1.3718775510787964,0,0,0.8408399820327759
1.675224845,0,0,1.4221558570861816,0,0,1.070159912109375
1.676225184,0,0,1.50355863571167,0,0,0.611519992351532
1.6772251150000002,0,0,1.6136919260025024,0,0,0.8408399820327759
1.67822599,0,0,1.5059528350830078,0,0,0.8408399820327759
1.679225088,0,0,1.4652514457702637,0,0,0.6879600286483765
1.6802250380000001,0,0,1.5538369417190552,0,0,0.8408399820327759
1.681225062,0,0,1.4460978507995605,0,0,1.070159912109375
1.682225604,0,0,1.4413094520568848,0,0,0.3822000026702881
1.683225239,0,0,1.3910311460494995,0,0,1.223039984703064
1.684225096,0,0,1.3000515699386597,0,0,0.7644000053405762
1.685224416,0,0,1.2976573705673218,0,0,0.8408399820327759
1.68622555,0,0,1.3431471586227417,0,0,0.9172800183296204
1.6872254629999999,0,0,1.414973258972168,0,0,0.7644000053405762
1.688225005,0,0,1.4939818382263184,0,0,0.6879600286483765
1.689225084,0,0,1.5418659448623657,0,0,1.1466000080108643
1.690225997,0,0,1.5514427423477173,0,0,0.9172800183296204
1.691225169,0,0,1.482010841369629,0,0,0.9937199950218201
1.6922249520000001,0,0,1.3742717504501343,0,0,0.9172800183296204
1.693232494,0,0,1.3503297567367554,0,0,0.9172800183296204
1.694226647,0,0,1.4437036514282227,0,0,1.2994799613952637
1.6952248189999999,0,0,1.3670891523361206,0,0,0.8408399820327759
1.69622501,0,0,1.359906554222107,0,0,0.9937199950218201
1.697224904,0,0,1.3000515699386597,0,0,0.9172800183296204
1.698234631,0,0,1.4891934394836426,0,0,0.6879600286483765
1.699226321,0,0,1.5131354331970215,0,0,0.7644000053405762
1.700225123,0,0,1.5466543436050415,0,0,0.9937199950218201
1.701224998,0,0,1.4867992401123047,0,0,0.6879600286483765
1.702226244,0,0,1.4891934394836426,0,0,0.7644000053405762
1.70322512,0,0,1.3886369466781616,0,0,0.8408399820327759
1.70422481,0,0,1.3287819623947144,0,0,0.4586400091648102
1.705224871,0,0,1.4053963422775269,0,0,0.9172800183296204
1.7062257650000001,0,0,1.37906014919281,0,0,0.9172800183296204
1.707224455,0,0,1.4963760375976563,0,0,0.9172800183296204
1.70822509,0,0,1.460463047027588,0,0,0.9172800183296204
1.709225188,0,0,1.4867992401123047,0,0,0.611519992351532
1.710225952,0,0,1.4748282432556152,0,0,0.7644000053405762
1.7112248650000002,0,0,1.4939818382263184,0,0,0.7644000053405762
1.712224926,0,0,1.5131354331970215,0,0,0.6879600286483765
1.713224801,0,0,1.5107412338256836,0,0,0.9937199950218201
1.714225788,0,0,1.4891934394836426,0,0,0.8408399820327759
1.715225163,0,0,1.4245500564575195,0,0,0.9172800183296204
1.716224983,0,0,1.3646949529647827,0,0,1.223039984703064
1.717225044,0,0,1.316810965538025,0,0,0.7644000053405762
1.718225994,0,0,1.3455413579940796,0,0,0.7644000053405762
1.719225277,0,0,1.3742717504501343,0,0,0.8408399820327759
1.720225041,0,0,1.4963760375976563,0,0,0.8408399820327759
1.7212250089999999,0,0,1.5394717454910278,0,0,0.7644000053405762
1.72222594,0,0,1.4724340438842773,0,0,0
1.7232249450000001,0,0,1.4245500564575195,0,0,0.9172800183296204
1.724224951,0,0,1.4269442558288574,0,0,1.070159912109375
1.725224678,0,0,1.403002142906189,0,0,0.7644000053405762
1.726226054,0,0,1.4293384552001953,0,0,0.5350799560546875
1.727225225,0,0,1.4221558570861816,0,0,1.223039984703064
1.72822436,0,0,1.3910311460494995,0,0,0.6879600286483765
1.7292247170000001,0,0,1.3910311460494995,0,0,0.8408399820327759
1.7302259819999999,0,0,1.3048399686813354,0,0,0.9937199950218201
1.7312249309999999,0,0,1.5203180313110352,0,0,0.611519992351532
1.732225122,0,0,1.5753847360610962,0,0,0.6879600286483765
1.733225016,0,0,1.5394717454910278,0,0,0.8408399820327759
1.73422615,0,0,1.4652514457702637,0,0,0.6879600286483765
1.735225174,0,0,1.5897499322891235,0,0,0.9172800183296204
1.7362251789999998,0,0,1.4508862495422363,0,0,0.9172800183296204
1.737224962,0,0,1.41257905960083,0,0,1.070159912109375
1.738225949,0,0,1.3670891523361206,0,0,1.070159912109375
1.7392250649999998,0,0,1.2545616626739502,0,0,0.7644000053405762
1.740225033,0,0,1.3479355573654175,0,0,0.9172800183296204
1.741227742,0,0,1.4245500564575195,0,0,0.7644000053405762
1.7422249330000001,0,0,1.5538369417190552,0,0,0.6879600286483765
1.743225697,0,0,1.6376339197158813,0,0,0.9937199950218201
1.744224924,0,0,1.6065093278884888,0,0,0.7644000053405762
1.745225133,0,0,1.4437036514282227,0,0,0.9172800183296204
1.746225157,0,0,1.5083470344543457,0,0,0.9937199950218201
1.747225144,0,0,1.3623007535934448,0,0,0.6879600286483765
1.7482248710000001,0,0,1.3718775510787964,0,0,0.611519992351532
1.749224784,0,0,1.335964560508728,0,0,0.7644000053405762
1.750224604,0,0,1.3646949529647827,0,0,0.9172800183296204
1.751224998,0,0,1.3766659498214722,0,0,0.6879600286483765
1.752225151,0,0,1.2880805730819702,0,0,0.8408399820327759
1.753225101,0,0,1.501164436340332,0,0,1.070159912109375
1.7542251979999999,0,0,1.5083470344543457,0,0,0.6879600286483765
1.7552249629999999,0,0,1.525106430053711,0,0,1.1466000080108643
1.7562249680000002,0,0,1.4508862495422363,0,0,0.6879600286483765
1.75723364,0,0,1.414973258972168,0,0,0.8408399820327759
1.758225256,0,0,1.3958195447921753,0,0,0.611519992351532
1.7592250759999999,0,0,1.4077905416488647,0,0,0.6879600286483765
1.7602249699999999,0,0,1.357512354850769,0,0,1.1466000080108643
1.761225198,0,0,1.316810965538025,0,0,0.6879600286483765
1.762225147,0,0,1.3192051649093628,0,0,0.7644000053405762
1.763224745,0,0,1.316810965538025,0,0,0.8408399820327759
1.764225046,0,0,1.5083470344543457,0,0,0.5350799560546875
1.7652249960000002,0,0,1.4963760375976563,0,0,0.9172800183296204
1.766226112,0,0,1.5107412338256836,0,0,0.8408399820327759
1.767225136,0,0,1.4317326545715332,0,0,0.6879600286483765
1.76822466,0,0,1.479616641998291,0,0,0.8408399820327759
1.769225535,0,0,1.37906014919281,0,0,0.9172800183296204
1.7702260399999998,0,0,1.3670891523361206,0,0,0.9172800183296204
1.771224842,0,0,1.3551181554794312,0,0,1.1466000080108643
1.772224421,0,0,1.2713210582733154,0,0,0.8408399820327759
1.773224963,0,0,1.335964560508728,0,0,1.070159912109375
1.774225969,0,0,1.3838485479354858,0,0,0.7644000053405762
1.775225029,0,0,1.5275006294250488,0,0,0.5350799560546875
1.776225127,0,0,1.4915876388549805,0,0,0.8408399820327759
1.777225077,0,0,1.5131354331970215,0,0,0.6879600286483765
1.778225823,0,0,1.4963760375976563,0,0,0.9172800183296204
1.7792251430000001,0,0,1.4987702369689941,0,0,0.7644000053405762
1.7802305,0,0,1.359906554222107,0,0,0.7644000053405762
1.781243634,0,0,1.292868971824646,0,0,0.9172800183296204
1.782228195,0,0,1.3407529592514038,0,0,0.9172800183296204
1.783225182,0,0,1.3479355573654175,0,0,1.1466000080108643
1.784225113,0,0,1.3742717504501343,0,0,0.8408399820327759
1.7852250440000001,0,0,1.3958195447921753,0,0,0.6879600286483765
1.786225864,0,0,1.5322890281677246,0,0,0.6879600286483765
1.7872250539999999,0,0,1.4221558570861816,0,0,0.8408399820327759
1.788224967,0,0,1.4891934394836426,0,0,0.611519992351532
1.789224991,0,0,1.4700398445129395,0,0,0.9172800183296204
1.790224699,0,0,1.4508862495422363,0,0,0.9937199950218201
1.791225205,0,0,1.3335703611373901,0,0,0.9937199950218201
1.792225043,0,0,1.3215993642807007,0,0,0.7644000053405762
1.7932244929999999,0,0,1.400607943534851,0,0,0.7644000053405762
1.794225813,0,0,1.3263877630233765,0,0,0.9172800183296204
1.795235447,0,0,1.4101848602294922,0,0,0.7644000053405762
1.79622699,0,0,1.381454348564148,0,0,0.7644000053405762
1.797225069,0,0,1.4389152526855469,0,0,0.6879600286483765
1.7982345180000001,0,0,1.4844050407409668,0,0,1.2994799613952637
1.79922645,0,0,1.4772224426269531,0,0,0.7644000053405762
1.8002256220000001,0,0,1.45806884765625,0,0,0.8408399820327759
1.801225571,0,0,1.4628572463989258,0,0,0.7644000053405762
1.802225465,0,0,1.3623007535934448,0,0,0.5350799560546875
1.803225359,0,0,1.3886369466781616,0,0,0.7644000053405762
1.804225161,0,0,1.414973258972168,0,0,0
1.805225444,0,0,1.3192051649093628,0,0,1.070159912109375
1.806226764,0,0,1.3886369466781616,0,0,1.070159912109375
1.807225491,0,0,1.5466543436050415,0,0,0.5350799560546875
1.808225441,0,0,1.6208745241165161,0,0,0.8408399820327759
1.809225538,0,0,1.5418659448623657,0,0,1.070159912109375
1.8102262470000001,0,0,1.525106430053711,0,0,0.611519992351532
1.811224993,0,0,1.580173134803772,0,0,0.9172800183296204
1.812225406,0,0,1.5155296325683594,0,0,1.070159912109375
1.8132253,0,0,1.403002142906189,0,0,0.5350799560546875
1.814225009,0,0,1.359906554222107,0,0,0.8408399820327759
1.815222273,0,0,1.3958195447921753,0,0,0.611519992351532
1.81622263,0,0,1.3551181554794312,0,0,0.8408399820327759
1.817222635,0,0,1.4101848602294922,0,0,0.8408399820327759
1.8182263810000001,0,0,1.381454348564148,0,0,0.7644000053405762
1.819225516,0,0,1.460463047027588,0,0,0.9172800183296204
1.820225336,0,0,1.5298948287963867,0,0,0.9937199950218201
1.8212367120000001,0,0,1.5298948287963867,0,0,0.611519992351532
1.8222260129999999,0,0,1.5897499322891235,0,0,1.070159912109375
1.823225648,0,0,1.4724340438842773,0,0,0.9172800183296204
1.82422532,0,0,1.338358759880066,0,0,0.6879600286483765
1.825225214,0,0,1.3000515699386597,0,0,0.6879600286483765
1.826226497,0,0,1.3862427473068237,0,0,1.070159912109375
1.827225206,0,0,1.3000515699386597,0,0,0.9172800183296204
1.828225303,0,0,1.359906554222107,0,0,0.9172800183296204
1.8292253459999999,0,0,1.3551181554794312,0,0,0.7644000053405762
1.8302263509999999,0,0,1.5203180313110352,0,0,0.7644000053405762
1.83122543,0,0,1.5897499322891235,0,0,0.9937199950218201
1.832225343,0,0,1.5466543436050415,0,0,0.611519992351532
1.8332250700000001,0,0,1.5322890281677246,0,0,0.8408399820327759
1.8342251680000001,0,0,1.5682021379470825,0,0,1.1466000080108643
1.835222469,0,0,1.4077905416488647,0,0,0.5350799560546875
1.836222271,0,0,1.278503656387329,0,0,0.9172800183296204
1.837222165,0,0,1.278503656387329,0,0,0.4586400091648102
1.838226022,0,0,1.2856862545013428,0,0,1.070159912109375
1.839225471,0,0,1.2952631711959839,0,0,1.070159912109375
1.8402254949999999,0,0,1.3407529592514038,0,0,0.7644000053405762
1.8412252599999999,0,0,1.5298948287963867,0,0,0.8408399820327759
1.8422264130000001,0,0,1.5945383310317993,0,0,0.7644000053405762
1.843225363,0,0,1.4844050407409668,0,0,0.611519992351532
1.84422522,0,0,1.4197616577148438,0,0,0.8408399820327759
1.845225428,0,0,1.482010841369629,0,0,0.9172800183296204
1.846226063,0,0,1.3455413579940796,0,0,0.6879600286483765
1.847225624,0,0,1.3239935636520386,0,0,1.070159912109375
1.848225314,0,0,1.3096283674240112,0,0,0.9172800183296204
1.849225282,0,0,1.3311761617660522,0,0,0.6879600286483765
1.850224769,0,0,1.3670891523361206,0,0,0.9937199950218201
1.8512226630000002,0,0,1.2880805730819702,0,0,0.5350799560546875
1.852222613,0,0,1.400607943534851,0,0,0.6879600286483765
1.8532226550000002,0,0,1.4532804489135742,0,0,1.070159912109375
1.854226216,0,0,1.455674648284912,0,0,0.7644000053405762
1.8552254430000001,0,0,1.5466543436050415,0,0,0.6879600286483765
1.8562251330000001,0,0,1.455674648284912,0,0,0.9172800183296204
1.857225009,0,0,1.3910311460494995,0,0,0.611519992351532
1.858225514,0,0,1.3766659498214722,0,0,0.6879600286483765
1.859225001,0,0,1.2952631711959839,0,0,0.8408399820327759
1.861330602,0,0,1.2952631711959839,0,0,0.8408399820327759
1.861515304,0,0,1.3910311460494995,0,0,0.9172800183296204
1.862236442,0,0,1.414973258972168,0,0,0.7644000053405762
1.8632270960000001,0,0,1.482010841369629,0,0,0.6879600286483765
1.8642265820000001,0,0,1.455674648284912,0,0,1.223039984703064
1.865226421,0,0,1.3838485479354858,0,0,0.305759996175766
1.8662275560000001,0,0,1.4652514457702637,0,0,0.8408399820327759
1.867226153,0,0,1.5155296325683594,0,0,0.9937199950218201
1.868226121,0,0,1.3479355573654175,0,0,0.6879600286483765
1.869226034,0,0,1.3048399686813354,0,0,0.9172800183296204
1.870227484,0,0,1.3670891523361206,0,0,0.6879600286483765
1.8712262480000001,0,0,1.3527239561080933,0,0,0.7644000053405762
1.8722260130000001,0,0,1.4676456451416016,0,0,1.070159912109375
1.8732260360000001,0,0,1.4293384552001953,0,0,1.070159912109375
1.87422669,0,0,1.4245500564575195,0,0,0.7644000053405762
1.875227195,0,0,1.479616641998291,0,0,1.070159912109375
1.876226515,0,0,1.4891934394836426,0,0,0.6879600286483765
1.877225557,0,0,1.5083470344543457,0,0,0.9172800183296204
1.878226988,0,0,1.5155296325683594,0,0,1.1466000080108643
1.879227215,0,0,1.455674648284912,0,0,0.611519992351532
1.880227906,0,0,1.3838485479354858,0,0,1.070159912109375
1.8812258370000001,0,0,1.3694833517074585,0,0,0.9172800183296204
1.8822272679999998,0,0,1.2713210582733154,0,0,0.9172800183296204
1.883225995,0,0,1.3910311460494995,0,0,0.9172800183296204
1.884226093,0,0,1.4293384552001953,0,0,0.6879600286483765
1.885243894,0,0,1.482010841369629,0,0,0.7644000053405762
1.886227233,0,0,1.4748282432556152,0,0,1.070159912109375
1.887226627,0,0,1.4628572463989258,0,0,0.7644000053405762
1.888225817,0,0,1.4413094520568848,0,0,0.9937199950218201
1.8892270629999999,0,0,1.414973258972168,0,0,0.7644000053405762
1.890226994,0,0,1.3910311460494995,0,0,0.9172800183296204
1.8912261849999998,0,0,1.335964560508728,0,0,0.7644000053405762
1.8922258570000001,0,0,1.3623007535934448,0,0,0.7644000053405762
1.893226047,0,0,1.434126853942871,0,0,0.9172800183296204
1.8942270890000001,0,0,1.4269442558288574,0,0,1.070159912109375
1.8952257430000001,0,0,1.3910311460494995,0,0,0.6879600286483765
1.896226155,0,0,1.4221558570861816,0,0,0.8408399820327759
1.897225938,0,0,1.436521053314209,0,0,1.2994799613952637
1.8982274430000001,0,0,1.4484920501708984,0,0,0.6879600286483765
1.8992251150000001,0,0,1.4652514457702637,0,0,0.611519992351532
1.900226065,0,0,1.556231141090393,0,0,0.9937199950218201
1.901225792,0,0,1.3958195447921753,0,0,0.6879600286483765
1.902227001,0,0,1.4676456451416016,0,0,0.8408399820327759
1.90322571,0,0,1.3311761617660522,0,0,0.6879600286483765
1.904225882,0,0,1.3263877630233765,0,0,0.9937199950218201
1.905225831,0,0,1.4101848602294922,0,0,0.8408399820327759
1.906226762,0,0,1.4269442558288574,0,0,0.611519992351532
1.907225805,0,0,1.4987702369689941,0,0,0.8408399820327759
1.90822581,0,0,1.4724340438842773,0,0,0.8408399820327759
1.909225482,0,0,1.4173674583435059,0,0,0.9172800183296204
1.910226191,0,0,1.5945383310317993,0,0,0.9172800183296204
1.911225751,0,0,1.5275006294250488,0,0,1.1466000080108643
1.912225979,0,0,1.4389152526855469,0,0,0.9937199950218201
1.913225669,0,0,1.400607943534851,0,0,0.9937199950218201
1.9142271370000001,0,0,1.3120225667953491,0,0,0.7644000053405762
1.915225883,0,0,1.3048399686813354,0,0,0.8408399820327759
1.916225759,0,0,1.3551181554794312,0,0,0.8408399820327759
1.917225616,0,0,1.434126853942871,0,0,0.611519992351532
1.9182270099999998,0,0,1.5083470344543457,0,0,0.9172800183296204
1.9192257000000001,0,0,1.4700398445129395,0,0,0.9937199950218201
1.920225372,0,0,1.4437036514282227,0,0,0.6879600286483765
1.921225247,0,0,1.5658079385757446,0,0,0.9937199950218201
1.922226993,0,0,1.4628572463989258,0,0,0.9937199950218201
1.923225832,0,0,1.3670891523361206,0,0,0.7644000053405762
1.924225856,0,0,1.4245500564575195,0,0,1.223039984703064
1.9252260460000001,0,0,1.4317326545715332,0,0,0.9937199950218201
1.926226958,0,0,1.4724340438842773,0,0,0.9172800183296204
1.927225871,0,0,1.4389152526855469,0,0,0.9937199950218201
1.928225839,0,0,1.50355863571167,0,0,0.6879600286483765
1.9292258439999999,0,0,1.534683346748352,0,0,0.9937199950218201
1.930226868,0,0,1.525106430053711,0,0,1.1466000080108643
1.9312258359999999,0,0,1.50355863571167,0,0,0.611519992351532
1.932225953,0,0,1.5155296325683594,0,0,0.9172800183296204
1.933225735,0,0,1.4532804489135742,0,0,0.9172800183296204
1.934226907,0,0,1.4269442558288574,0,0,0.5350799560546875
1.935225931,0,0,1.3551181554794312,0,0,1.1466000080108643
1.936230251,0,0,1.3431471586227417,0,0,0.9172800183296204
1.937230497,0,0,1.3742717504501343,0,0,1.1466000080108643
1.938227095,0,0,1.4173674583435059,0,0,0.9172800183296204
1.9392257480000001,0,0,1.5131354331970215,0,0,0.7644000053405762
1.940225883,0,0,1.6089035272598267,0,0,0.6879600286483765
1.941225851,0,0,1.5969325304031372,0,0,0.9172800183296204
1.942229319,0,0,1.6184803247451782,0,0,0.7644000053405762
1.9432263060000001,0,0,1.6065093278884888,0,0,0.7644000053405762
1.944226089,0,0,1.4628572463989258,0,0,0.9172800183296204
1.945226057,0,0,1.4484920501708984,0,0,0.611519992351532
1.946226692,0,0,1.3335703611373901,0,0,0.9937199950218201
1.947226882,0,0,1.3431471586227417,0,0,0.6879600286483765
1.94822648,0,0,1.3838485479354858,0,0,1.070159912109375
1.949238207,0,0,1.3335703611373901,0,0,0.8408399820327759
1.9502259899999999,0,0,1.3862427473068237,0,0,0.8408399820327759
1.951225403,0,0,1.4915876388549805,0,0,1.070159912109375
1.952223056,0,0,1.4748282432556152,0,0,0.4586400091648102
1.953223728,0,0,1.3934253454208374,0,0,0.6879600286483765
1.954227881,0,0,1.5275006294250488,0,0,1.070159912109375
1.9552263490000001,0,0,1.455674648284912,0,0,1.070159912109375
1.956226003,0,0,1.3742717504501343,0,0,0.9172800183296204
1.957225841,0,0,1.3455413579940796,0,0,1.070159912109375
1.958225976,0,0,1.316810965538025,0,0,0.6879600286483765
1.959225926,0,0,1.357512354850769,0,0,0.9937199950218201
1.960225412,0,0,1.400607943534851,0,0,0.9172800183296204
1.96122614,0,0,1.4628572463989258,0,0,0.611519992351532
1.9622269970000001,0,0,1.4867992401123047,0,0,0.611519992351532
1.963225891,0,0,1.534683346748352,0,0,0.7644000053405762
1.964225581,0,0,1.5634137392044067,0,0,0.7644000053405762
1.9652259380000001,0,0,1.5179238319396973,0,0,0.7644000053405762
1.96622698,0,0,1.4460978507995605,0,0,1.070159912109375
1.967225893,0,0,1.3096283674240112,0,0,0.8408399820327759
1.968225954,0,0,1.3239935636520386,0,0,0.8408399820327759
1.969225977,0,0,1.357512354850769,0,0,0.7644000053405762
1.9702269079999999,0,0,1.357512354850769,0,0,0.8408399820327759
1.9712259140000001,0,0,1.357512354850769,0,0,0.8408399820327759
1.972225771,0,0,1.4748282432556152,0,0,0.7644000053405762
1.973225905,0,0,1.558625340461731,0,0,0.5350799560546875
1.9742270400000002,0,0,1.525106430053711,0,0,0.7644000053405762
1.9752258230000002,0,0,1.436521053314209,0,0,0.6879600286483765
1.97622605,0,0,1.414973258972168,0,0,0.9172800183296204
1.977226019,0,0,1.4628572463989258,0,0,0.8408399820327759
1.9782269129999999,0,0,1.3742717504501343,0,0,0.5350799560546875
1.9792261770000001,0,0,1.37906014919281,0,0,1.223039984703064
1.980226738,0,0,1.3694833517074585,0,0,0.9172800183296204
1.981225891,0,0,1.3503297567367554,0,0,0.7644000053405762
1.982226359,0,0,1.400607943534851,0,0,0.7644000053405762
1.98322592,0,0,1.501164436340332,0,0,0.7644000053405762
1.984225907,0,0,1.5634137392044067,0,0,0.6879600286483765
1.985225282,0,0,1.5322890281677246,0,0,0.611519992351532
1.986227232,0,0,1.4724340438842773,0,0,0.7644000053405762
1.987225867,0,0,1.5682021379470825,0,0,1.223039984703064
1.988225705,0,0,1.4915876388549805,0,0,0.6879600286483765
1.989225933,0,0,1.4508862495422363,0,0,0.611519992351532
1.990226808,0,0,1.4317326545715332,0,0,1.2994799613952637
1.991225869,0,0,1.3455413579940796,0,0,0.8408399820327759
1.9922259850000001,0,0,1.3862427473068237,0,0,0.8408399820327759
1.993226009,0,0,1.3623007535934448,0,0,0.8408399820327759
1.994226995,0,0,1.4724340438842773,0,0,0.611519992351532
1.995225982,0,0,1.5969325304031372,0,0,0.611519992351532
1.996225913,0,0,1.4987702369689941,0,0,0.6879600286483765
1.997225918,0,0,1.4221558570861816,0,0,0.611519992351532
1.998226794,0,0,1.5825673341751099,0,0,0.9937199950218201
1.9992258729999999,0,0,1.400607943534851,0,0,0.9937199950218201
2.000225823,0,0,1.3311761617660522,0,0,0.5350799560546875
2.001225754,0,0,1.3694833517074585,0,0,0.9937199950218201
2.002227111,0,0,1.3934253454208374,0,0,1.070159912109375
2.00322569,0,0,1.3503297567367554,0,0,0.611519992351532
2.004225677,0,0,1.3623007535934448,0,0,0.9172800183296204
2.005225978,0,0,1.479616641998291,0,0,0.7644000053405762
2.006226669,0,0,1.534683346748352,0,0,0.5350799560546875
2.007225489,0,0,1.5897499322891235,0,0,0.7644000053405762
2.008226123,0,0,1.5083470344543457,0,0,0.9172800183296204
2.009225999,0,0,1.5322890281677246,0,0,1.070159912109375
2.010226967,0,0,1.4197616577148438,0,0,0.7644000053405762
2.011226009,0,0,1.3742717504501343,0,0,0.8408399820327759
2.012225848,0,0,1.3910311460494995,0,0,0.8408399820327759
2.013232557,0,0,1.2641384601593018,0,0,0.8408399820327759
2.014227358,0,0,1.2952631711959839,0,0,1.070159912109375
2.015226234,0,0,1.3335703611373901,0,0,0.9937199950218201
2.016225702,0,0,1.45806884765625,0,0,0.611519992351532
2.017225985,0,0,1.5155296325683594,0,0,0.6879600286483765
2.018226805,0,0,1.5203180313110352,0,0,0.6879600286483765
2.019225921,0,0,1.4772224426269531,0,0,0.9172800183296204
2.020226,0,0,1.4867992401123047,0,0,0.8408399820327759
2.0212259870000002,0,0,1.3646949529647827,0,0,0.9172800183296204
2.022226881,0,0,1.4077905416488647,0,0,0.7644000053405762
2.023225905,0,0,1.4508862495422363,0,0,0.9172800183296204
2.024225984,0,0,1.3742717504501343,0,0,1.070159912109375
2.025225526,0,0,1.335964560508728,0,0,0.8408399820327759
2.026226994,0,0,1.3048399686813354,0,0,0.611519992351532
2.027225888,0,0,1.4532804489135742,0,0,0.8408399820327759
2.028225394,0,0,1.5682021379470825,0,0,0.9172800183296204
2.029225473,0,0,1.5490485429763794,0,0,0.611519992351532
2.030227089,0,0,1.479616641998291,0,0,0.6879600286483765
2.031226131,0,0,1.4939818382263184,0,0,0.7644000053405762
2.032225933,0,0,1.4508862495422363,0,0,0.8408399820327759
2.03322579,0,0,1.3886369466781616,0,0,0.9172800183296204
2.034226943,0,0,1.4700398445129395,0,0,1.1466000080108643
2.035225652,0,0,1.41257905960083,0,0,0.9937199950218201
2.036273286,0,0,1.3192051649093628,0,0,0.9937199950218201
2.037306606,0,0,1.4173674583435059,0,0,0.6879600286483765
2.03825463,0,0,1.479616641998291,0,0,0.611519992351532
2.039272598,0,0,1.4891934394836426,0,0,0.9937199950218201
2.040282455,0,0,1.4460978507995605,0,0,0.6879600286483765
2.041271849,0,0,1.4628572463989258,0,0,0.9937199950218201
2.042264206,0,0,1.5729905366897583,0,0,0.8408399820327759
2.043254526,0,0,1.4173674583435059,0,0,0.6879600286483765
2.044257031,0,0,1.3670891523361206,0,0,0.7644000053405762
2.045280073,0,0,1.3479355573654175,0,0,0.9937199950218201
2.046249746,0,0,1.3527239561080933,0,0,0.9937199950218201
2.047226973,0,0,1.4508862495422363,0,0,0.9172800183296204
2.048226553,0,0,1.359906554222107,0,0,0.6879600286483765
2.049350519,0,0,1.460463047027588,0,0,0.5350799560546875
2.050229692,0,0,1.5634137392044067,0,0,0.8408399820327759
2.051224587,0,0,1.45806884765625,0,0,0.5350799560546875
2.052224073,0,0,1.4389152526855469,0,0,0.8408399820327759
2.053223949,0,0,1.479616641998291,0,0,0.9937199950218201
2.054227232,0,0,1.2641384601593018,0,0,0.6879600286483765
2.055226459,0,0,1.292868971824646,0,0,0.7644000053405762
2.056226409,0,0,1.4437036514282227,0,0,0.7644000053405762
2.057226414,0,0,1.359906554222107,0,0,0.7644000053405762
2.058225364,0,0,1.3694833517074585,0,0,0.7644000053405762
2.05922398,0,0,1.3120225667953491,0,0,0.9172800183296204
2.060223763,0,0,1.53707754611969,0,0,0.9172800183296204
2.061223712,0,0,1.5729905366897583,0,0,0.9172800183296204
2.062226977,0,0,1.6160861253738403,0,0,0.4586400091648102
2.06322613,0,0,1.5298948287963867,0,0,0.5350799560546875
2.064225987,0,0,1.5442601442337036,0,0,0.9937199950218201
2.065225844,0,0,1.4317326545715332,0,0,0.7644000053405762
2.066226516,0,0,1.3431471586227417,0,0,0.9937199950218201
2.067225873,0,0,1.357512354850769,0,0,0.7644000053405762
2.068225563,0,0,1.3096283674240112,0,0,0
2.06922605,0,0,1.3551181554794312,0,0,0.8408399820327759
