Time,AccelX1,AccelY1,AccelZ1,AccelX2,AccelY2,AccelZ2
0.000382199,0,0,1.3910311460494995,0,0,1.070159912109375
0.001418374,0,0,1.3910311460494995,0,0,0.7644000053405762
0.002674731,0,0,1.4460978507995605,0,0,0.8408399820327759
0.003916089,0,0,1.4460978507995605,0,0,0.9172800183296204
0.00515165,0,0,1.4460978507995605,0,0,0.7644000053405762
0.006376582,0,0,1.460463047027588,0,0,0.8408399820327759
0.007567162,0,0,1.460463047027588,0,0,0.9937199950218201
0.00880889,0,0,1.460463047027588,0,0,0.9172800183296204
0.010056136,0,0,1.6280571222305298,0,0,0.6879600286483765
0.011313179,0,0,1.6280571222305298,0,0,0.7644000053405762
0.012556296,0,0,1.5514427423477173,0,0,0.9172800183296204
0.013795098,0,0,1.5514427423477173,0,0,1.1466000080108643
0.01506351,0,0,1.5514427423477173,0,0,0.8408399820327759
0.016303664,0,0,1.4867992401123047,0,0,0.9937199950218201
0.017552355,0,0,1.4867992401123047,0,0,0.9937199950218201
0.018801064,0,0,1.4867992401123047,0,0,0.9172800183296204
0.020051459,0,0,1.4963760375976563,0,0,0.7644000053405762
0.021313094,0,0,1.4963760375976563,0,0,0.611519992351532
0.022554248,0,0,1.4963760375976563,0,0,0.611519992351532
0.023809198,0,0,1.4963760375976563,0,0,0.611519992351532
0.025051629,0,0,1.4963760375976563,0,0,0.305759996175766
0.026284839,0,0,1.4963760375976563,0,0,0.7644000053405762
0.027540566,0,0,1.4173674583435059,0,0,0.9172800183296204
0.028784202,0,0,1.4173674583435059,0,0,0.8408399820327759
0.030034133,0,0,1.4173674583435059,0,0,0.8408399820327759
0.031286009,0,0,1.4173674583435059,0,0,0.611519992351532
0.032535311,0,0,1.4173674583435059,0,0,0.9937199950218201
0.033784205,0,0,1.4173674583435059,0,0,0.9172800183296204
0.035035452,0,0,1.4173674583435059,0,0,1.375920057296753
0.036284846,0,0,1.3718775510787964,0,0,0.7644000053405762
0.037534352,0,0,1.3718775510787964,0,0,0.9172800183296204
0.038792135,0,0,1.3718775510787964,0,0,0.7644000053405762
0.040035826,0,0,1.3718775510787964,0,0,0.9172800183296204
0.041303905,0,0,1.3718775510787964,0,0,0.8408399820327759
0.042538337,0,0,1.3718775510787964,0,0,0.611519992351532
0.043784306,0,0,1.3718775510787964,0,0,0.9172800183296204
0.045034293,0,0,1.338358759880066,0,0,0.6879600286483765
0.046284261,0,0,1.338358759880066,0,0,0.611519992351532
0.047537063,0,0,1.338358759880066,0,0,0.6879600286483765
0.048786235,0,0,1.338358759880066,0,0,0.9937199950218201
0.050035759,0,0,1.338358759880066,0,0,0.6879600286483765
0.051286172,0,0,1.338358759880066,0,0,0.8408399820327759
0.052534345,0,0,1.338358759880066,0,0,0.6879600286483765
0.053784517,0,0,1.280897855758667,0,0,0.9172800183296204
0.055037134,0,0,1.280897855758667,0,0,0.7644000053405762
0.056285676,0,0,1.280897855758667,0,0,0.6879600286483765
0.05753546,0,0,1.280897855758667,0,0,0.5350799560546875
0.058785391,0,0,1.280897855758667,0,0,0.9172800183296204
0.060035341,0,0,1.280897855758667,0,0,0.9172800183296204
0.061285458,0,0,1.280897855758667,0,0,0.8408399820327759
0.062535389,0,0,1.4077905416488647,0,0,0.7644000053405762
0.063785654,0,0,1.4077905416488647,0,0,0.4586400091648102
0.065035549,0,0,1.4077905416488647,0,0,0.6879600286483765
0.066285425,0,0,1.4077905416488647,0,0,0.4586400091648102
0.067535652,0,0,1.4077905416488647,0,0,0.611519992351532
0.068785306,0,0,1.4077905416488647,0,0,0.5350799560546875
0.070035386,0,0,1.4077905416488647,0,0,0.7644000053405762
0.071285743,0,0,1.4891934394836426,0,0,0.611519992351532
0.072535564,0,0,1.4891934394836426,0,0,0.9937199950218201
0.073786532,0,0,1.4891934394836426,0,0,0.9937199950218201
0.075035741,0,0,1.4891934394836426,0,0,0.9937199950218201
0.076285339,0,0,1.4891934394836426,0,0,0.9172800183296204
0.077538752,0,0,1.4891934394836426,0,0,0.305759996175766
0.078785832,0,0,1.4891934394836426,0,0,0.7644000053405762
0.080035467,0,0,1.5203180313110352,0,0,0.8408399820327759
0.081294269,0,0,1.5203180313110352,0,0,0.8408399820327759
0.082538108,0,0,1.5203180313110352,0,0,0.7644000053405762
0.083785984,0,0,1.5203180313110352,0,0,0.7644000053405762
0.085035619,0,0,1.5203180313110352,0,0,0.611519992351532
0.086285477,0,0,1.5203180313110352,0,0,0.9937199950218201
0.087535593,0,0,1.5203180313110352,0,0,0.8408399820327759
0.088785303,0,0,1.5203180313110352,0,0,0.611519992351532
0.090035512,0,0,1.50355863571167,0,0,0.4586400091648102
0.091285666,0,0,1.50355863571167,0,0,0.9937199950218201
0.092535319,0,0,1.50355863571167,0,0,0.8408399820327759
0.093785436,0,0,1.50355863571167,0,0,0.9172800183296204
0.095049053,0,0,1.50355863571167,0,0,0.7644000053405762
0.09633441,0,0,1.50355863571167,0,0,0.9172800183296204
0.097577582,0,0,1.50355863571167,0,0,0.7644000053405762
0.098789977,0,0,1.5059528350830078,0,0,0.7644000053405762
0.100036149,0,0,1.5059528350830078,0,0,1.1466000080108643
0.101285914,0,0,1.5059528350830078,0,0,0.9172800183296204
0.102537123,0,0,1.5059528350830078,0,0,0.8408399820327759
0.10378561,0,0,1.5059528350830078,0,0,0.9172800183296204
0.105035634,0,0,1.5059528350830078,0,0,0.9937199950218201
0.106285381,0,0,1.5059528350830078,0,0,0.9172800183296204
0.107535386,0,0,1.4484920501708984,0,0,0.611519992351532
0.108785522,0,0,1.4484920501708984,0,0,0.5350799560546875
0.110051286,0,0,1.4484920501708984,0,0,0.6879600286483765
0.111293366,0,0,1.4484920501708984,0,0,0.611519992351532
0.112548334,0,0,1.4484920501708984,0,0,0.8408399820327759
0.113786192,0,0,1.4484920501708984,0,0,0.9937199950218201
0.11503579,0,0,1.4484920501708984,0,0,0.8408399820327759
0.116291222,0,0,1.5298948287963867,0,0,0.9172800183296204
0.11753619,0,0,1.5298948287963867,0,0,0.9937199950218201
0.118785603,0,0,1.5298948287963867,0,0,0.9172800183296204
0.120035516,0,0,1.5298948287963867,0,0,0.7644000053405762
0.121285448,0,0,1.5298948287963867,0,0,1.1466000080108643
0.122535564,0,0,1.5298948287963867,0,0,0.152879998087883
0.1237857,0,0,1.5298948287963867,0,0,0.9937199950218201
0.125035724,0,0,1.314416766166687,0,0,1.070159912109375
0.126285544,0,0,1.314416766166687,0,0,0.7644000053405762
0.127535568,0,0,1.314416766166687,0,0,0.9937199950218201
0.128788555,0,0,1.314416766166687,0,0,0.7644000053405762
0.130035876,0,0,1.314416766166687,0,0,0.8408399820327759
0.131285566,0,0,1.314416766166687,0,0,0.611519992351532
0.132535776,0,0,1.314416766166687,0,0,0.9937199950218201
0.133785392,0,0,1.41257905960083,0,0,0.9172800183296204
0.135035435,0,0,1.41257905960083,0,0,0.8408399820327759
0.136285681,0,0,1.41257905960083,0,0,0.8408399820327759
0.137554094,0,0,1.41257905960083,0,0,0.9937199950218201
0.138788303,0,0,1.41257905960083,0,0,0.9172800183296204
0.140036031,0,0,1.41257905960083,0,0,0.8408399820327759
0.141285481,0,0,1.41257905960083,0,0,0.5350799560546875
0.142537191,0,0,1.45806884765625,0,0,0.9172800183296204
0.143785529,0,0,1.45806884765625,0,0,0.2293200045824051
0.14503572,0,0,1.45806884765625,0,0,0.8408399820327759
0.146285615,0,0,1.45806884765625,0,0,0.8408399820327759
0.147535731,0,0,1.45806884765625,0,0,0.9937199950218201
0.148785385,0,0,1.45806884765625,0,0,0.6879600286483765
0.150047446,0,0,1.45806884765625,0,0,0.6879600286483765
0.1512921,0,0,1.2210428714752197,0,0,0.8408399820327759
0.152535883,0,0,1.2210428714752197,0,0,0.7644000053405762
0.153786537,0,0,1.2210428714752197,0,0,0.8408399820327759
0.155039913,0,0,1.2210428714752197,0,0,0.8408399820327759
0.156285715,0,0,1.2210428714752197,0,0,0.9172800183296204
0.157535535,0,0,1.2210428714752197,0,0,0.611519992351532
0.158785782,0,0,1.2210428714752197,0,0,0.8408399820327759
0.160035639,0,0,1.2210428714752197,0,0,0.8408399820327759
0.161306293,0,0,1.4460978507995605,0,0,0.8408399820327759
0.162538965,0,0,1.4460978507995605,0,0,0.611519992351532
0.163785785,0,0,1.4460978507995605,0,0,0.611519992351532
0.165035291,0,0,1.4460978507995605,0,0,0.6879600286483765
0.166285408,0,0,1.4460978507995605,0,0,0.9937199950218201
0.167535821,0,0,1.4460978507995605,0,0,0.8408399820327759
0.168785715,0,0,1.4460978507995605,0,0,1.223039984703064
0.170035573,0,0,1.4867992401123047,0,0,0.9172800183296204
0.171285486,0,0,1.4867992401123047,0,0,0.8408399820327759
0.172535621,0,0,1.4867992401123047,0,0,0.9172800183296204
0.173785423,0,0,1.4867992401123047,0,0,0.5350799560546875
0.175035687,0,0,1.4867992401123047,0,0,0.8408399820327759
0.176285249,0,0,1.4867992401123047,0,0,0.7644000053405762
0.177535458,0,0,1.4867992401123047,0,0,0.7644000053405762
0.178785575,0,0,1.5155296325683594,0,0,0.611519992351532
0.18003545,0,0,1.5155296325683594,0,0,0.9172800183296204
0.181285493,0,0,1.5155296325683594,0,0,1.070159912109375
0.18253611,0,0,1.5155296325683594,0,0,0.6879600286483765
0.183785541,0,0,1.5155296325683594,0,0,0.6879600286483765
0.185035269,0,0,1.5155296325683594,0,0,0.6879600286483765
0.186285349,0,0,1.5155296325683594,0,0,1.1466000080108643
0.187551002,0,0,1.6184803247451782,0,0,0.7644000053405762
0.188787767,0,0,1.6184803247451782,0,0,1.1466000080108643
0.190035365,0,0,1.6184803247451782,0,0,0.9172800183296204
0.191296315,0,0,1.6184803247451782,0,0,0.9172800183296204
0.192538988,0,0,1.6184803247451782,0,0,0.8408399820327759
0.193790327,0,0,1.6184803247451782,0,0,0.8408399820327759
0.195036073,0,0,1.6184803247451782,0,0,0.7644000053405762
0.196285708,0,0,1.4460978507995605,0,0,0.5350799560546875
0.197535677,0,0,1.4460978507995605,0,0,0.6879600286483765
0.198785479,0,0,1.4460978507995605,0,0,0.6879600286483765
0.200035577,0,0,1.4460978507995605,0,0,0.9172800183296204
0.201285601,0,0,1.4460978507995605,0,0,0.611519992351532
0.202552884,0,0,1.4460978507995605,0,0,0.7644000053405762
0.203793056,0,0,1.4460978507995605,0,0,0.9172800183296204
0.205037414,0,0,1.6160861253738403,0,0,0.6879600286483765
0.206286142,0,0,1.6160861253738403,0,0,0.5350799560546875
0.207536184,0,0,1.6160861253738403,0,0,0.9172800183296204
0.208785708,0,0,1.6160861253738403,0,0,0.305759996175766
0.21003564,0,0,1.6160861253738403,0,0,0.6879600286483765
0.211285775,0,0,1.6160861253738403,0,0,0.8408399820327759
0.212535633,0,0,1.6160861253738403,0,0,0.7644000053405762
0.213785583,0,0,1.6160861253738403,0,0,0.611519992351532
0.215035514,0,0,1.482010841369629,0,0,0.6879600286483765
0.216285964,0,0,1.482010841369629,0,0,0.611519992351532
0.217548469,0,0,1.482010841369629,0,0,0.611519992351532
0.218787568,0,0,1.482010841369629,0,0,0.9172800183296204
0.220035833,0,0,1.482010841369629,0,0,0.9172800183296204
0.221286486,0,0,1.482010841369629,0,0,0.8408399820327759
0.222537399,0,0,1.482010841369629,0,0,0.611519992351532
0.223786275,0,0,1.3479355573654175,0,0,0.9172800183296204
0.225035614,0,0,1.3479355573654175,0,0,1.070159912109375
0.226285694,0,0,1.3479355573654175,0,0,0.8408399820327759
0.227535644,0,0,1.3479355573654175,0,0,0.6879600286483765
0.228785649,0,0,1.3479355573654175,0,0,0.7644000053405762
0.230035655,0,0,1.3479355573654175,0,0,0.4586400091648102
0.231285512,0,0,1.3479355573654175,0,0,0.9172800183296204
0.232539648,0,0,1.37906014919281,0,0,0.8408399820327759
0.233785875,0,0,1.37906014919281,0,0,0.7644000053405762
0.23503564,0,0,1.37906014919281,0,0,0.9937199950218201
0.236285461,0,0,1.37906014919281,0,0,0.8408399820327759
0.23753567,0,0,1.37906014919281,0,0,0.6879600286483765
0.238785713,0,0,1.37906014919281,0,0,0.6879600286483765
0.240035866,0,0,1.37906014919281,0,0,0.9937199950218201
0.24128565,0,0,1.3072341680526733,0,0,0.7644000053405762
0.242535674,0,0,1.3072341680526733,0,0,0.8408399820327759
0.243785716,0,0,1.3072341680526733,0,0,0.6879600286483765
0.245035592,0,0,1.3072341680526733,0,0,0.6879600286483765
0.246285598,0,0,1.3072341680526733,0,0,0.8408399820327759
0.247535289,0,0,1.3072341680526733,0,0,0.9172800183296204
0.248785516,0,0,1.3072341680526733,0,0,0.5350799560546875
0.250035744,0,0,1.3479355573654175,0,0,0.611519992351532
0.251285454,0,0,1.3479355573654175,0,0,1.2994799613952637
0.252535644,0,0,1.3479355573654175,0,0,0.9172800183296204
0.253785557,0,0,1.3479355573654175,0,0,0.9172800183296204
0.255035581,0,0,1.3479355573654175,0,0,0.9172800183296204
0.25628605,0,0,1.3479355573654175,0,0,1.2994799613952637
0.257535593,0,0,1.3479355573654175,0,0,0.7644000053405762
0.258785765,0,0,1.50355863571167,0,0,0.8408399820327759
0.260035548,0,0,1.50355863571167,0,0,0.9172800183296204
0.261285461,0,0,1.50355863571167,0,0,0.7644000053405762
0.262536819,0,0,1.50355863571167,0,0,0.3822000026702881
0.263785657,0,0,1.50355863571167,0,0,0.8408399820327759
0.265035644,0,0,1.50355863571167,0,0,0.6879600286483765
0.26629378,0,0,1.50355863571167,0,0,1.1466000080108643
0.267536119,0,0,1.50355863571167,0,0,0.7644000053405762
0.26878542,0,0,1.5322890281677246,0,0,0.6879600286483765
0.270035482,0,0,1.5322890281677246,0,0,0.9172800183296204
0.271287654,0,0,1.5322890281677246,0,0,0.8408399820327759
0.272535734,0,0,1.5322890281677246,0,0,0.9937199950218201
0.273786591,0,0,1.5322890281677246,0,0,0.5350799560546875
0.275035689,0,0,1.5322890281677246,0,0,0.9937199950218201
0.276285547,0,0,1.5322890281677246,0,0,1.070159912109375
0.277535737,0,0,1.644816517829895,0,0,0.9172800183296204
0.278785558,0,0,1.644816517829895,0,0,0.7644000053405762
0.280035637,0,0,1.644816517829895,0,0,0.5350799560546875
0.28128555,0,0,1.644816517829895,0,0,0.6879600286483765
0.282535926,0,0,1.644816517829895,0,0,0.6879600286483765
0.283785654,0,0,1.644816517829895,0,0,0.4586400091648102
0.285035456,0,0,1.644816517829895,0,0,0.7644000053405762
0.286285443,0,0,1.601720929145813,0,0,1.070159912109375
0.287535412,0,0,1.601720929145813,0,0,0.6879600286483765
0.288785843,0,0,1.601720929145813,0,0,0.9172800183296204
0.290035738,0,0,1.601720929145813,0,0,0.9172800183296204
0.291287188,0,0,1.601720929145813,0,0,0.9937199950218201
0.292535934,0,0,1.601720929145813,0,0,0.7644000053405762
0.293785717,0,0,1.601720929145813,0,0,0.9937199950218201
0.295035723,0,0,1.4197616577148438,0,0,0.4586400091648102
0.296285562,0,0,1.4197616577148438,0,0,0.9937199950218201
0.297535567,0,0,1.4197616577148438,0,0,0.7644000053405762
0.298785851,0,0,1.4197616577148438,0,0,0.9937199950218201
0.300034227,0,0,1.4197616577148438,0,0,0.8408399820327759
0.301284399,0,0,1.4197616577148438,0,0,0.9172800183296204
0.302537312,0,0,1.4197616577148438,0,0,0.9172800183296204
0.303785836,0,0,1.6663644313812256,0,0,0.6879600286483765
0.305035508,0,0,1.6663644313812256,0,0,0.6879600286483765
0.306285477,0,0,1.6663644313812256,0,0,0.9172800183296204
0.307535612,0,0,1.6663644313812256,0,0,0.9937199950218201
0.308785729,0,0,1.6663644313812256,0,0,0.9172800183296204
0.310038438,0,0,1.6663644313812256,0,0,0.7644000053405762
0.311285555,0,0,1.6663644313812256,0,0,0.9937199950218201
0.312535634,0,0,1.4867992401123047,0,0,0.7644000053405762
0.313785306,0,0,1.4867992401123047,0,0,0.7644000053405762
0.315035534,0,0,1.4867992401123047,0,0,0.8408399820327759
0.316285392,0,0,1.4867992401123047,0,0,0.6879600286483765
0.317535527,0,0,1.4867992401123047,0,0,0.7644000053405762
0.318785607,0,0,1.4867992401123047,0,0,0.7644000053405762
0.320035723,0,0,1.4867992401123047,0,0,0.8408399820327759
0.32131658,0,0,1.4867992401123047,0,0,1.070159912109375
0.32253829,0,0,1.3192051649093628,0,0,0.9937199950218201
0.323785777,0,0,1.3192051649093628,0,0,0.611519992351532
0.32503556,0,0,1.3192051649093628,0,0,0.8408399820327759
0.32628551,0,0,1.3192051649093628,0,0,0.9172800183296204
0.327535423,0,0,1.3192051649093628,0,0,0.6879600286483765
0.328785244,0,0,1.3192051649093628,0,0,1.1466000080108643
0.330035434,0,0,1.3192051649093628,0,0,0.9172800183296204
0.331285477,0,0,1.4413094520568848,0,0,0.6879600286483765
0.332535372,0,0,1.4413094520568848,0,0,0.6879600286483765
0.333785229,0,0,1.4413094520568848,0,0,0.6879600286483765
0.33503542,0,0,1.4413094520568848,0,0,0.611519992351532
0.336285481,0,0,1.4413094520568848,0,0,0.8408399820327759
0.33753532,0,0,1.4413094520568848,0,0,1.070159912109375
0.338785511,0,0,1.4413094520568848,0,0,0.9937199950218201
0.340035368,0,0,1.3335703611373901,0,0,0.9172800183296204
0.341285392,0,0,1.3335703611373901,0,0,0.6879600286483765
0.342535435,0,0,1.3335703611373901,0,0,0.8408399820327759
0.343808551,0,0,1.3335703611373901,0,0,0.6879600286483765
0.345050501,0,0,1.3335703611373901,0,0,0.9172800183296204
0.346326544,0,0,1.3335703611373901,0,0,0.2293200045824051
0.347570846,0,0,1.3335703611373901,0,0,0.6879600286483765
0.348803444,0,0,1.4317326545715332,0,0,0.3822000026702881
0.35003645,0,0,1.4317326545715332,0,0,0.9172800183296204
0.351289659,0,0,1.4317326545715332,0,0,0.7644000053405762
0.352536739,0,0,1.4317326545715332,0,0,0.6879600286483765
0.353785466,0,0,1.4317326545715332,0,0,0.611519992351532
0.355036009,0,0,1.4317326545715332,0,0,0.7644000053405762
0.356285329,0,0,1.4317326545715332,0,0,0.6879600286483765
0.357535613,0,0,1.4676456451416016,0,0,0.6879600286483765
0.358785507,0,0,1.4676456451416016,0,0,1.452359914779663
0.360035365,0,0,1.4676456451416016,0,0,0.8408399820327759
0.361286185,0,0,1.4676456451416016,0,0,1.070159912109375
0.362562116,0,0,1.4676456451416016,0,0,0.7644000053405762
0.363816992,0,0,1.4676456451416016,0,0,0.7644000053405762
0.365039091,0,0,1.4676456451416016,0,0,0.8408399820327759
0.366285911,0,0,1.4724340438842773,0,0,0.8408399820327759
0.367535713,0,0,1.4724340438842773,0,0,0.6879600286483765
0.368785459,0,0,1.4724340438842773,0,0,0.5350799560546875
0.370035354,0,0,1.4724340438842773,0,0,0.8408399820327759
0.371285711,0,0,1.4724340438842773,0,0,0.8408399820327759
0.372535587,0,0,1.4724340438842773,0,0,0.8408399820327759
0.373785333,0,0,1.4724340438842773,0,0,0.6879600286483765
0.375035691,0,0,1.4724340438842773,0,0,1.2994799613952637
0.37628553,0,0,1.5514427423477173,0,0,0.7644000053405762
0.377535369,0,0,1.5514427423477173,0,0,0.8408399820327759
0.378785837,0,0,1.5514427423477173,0,0,0.8408399820327759
0.380035472,0,0,1.5514427423477173,0,0,0.9937199950218201
0.381285441,0,0,1.5514427423477173,0,0,0.611519992351532
0.382536354,0,0,1.5514427423477173,0,0,1.070159912109375
0.383785471,0,0,1.5514427423477173,0,0,0.9172800183296204
0.385035476,0,0,1.5945383310317993,0,0,0.7644000053405762
0.386285593,0,0,1.5945383310317993,0,0,1.223039984703064
0.387539561,0,0,1.5945383310317993,0,0,0.6879600286483765
0.388785456,0,0,1.5945383310317993,0,0,0.7644000053405762
0.390035573,0,0,1.5945383310317993,0,0,0.8408399820327759
0.391285356,0,0,1.5945383310317993,0,0,0.9172800183296204
0.392535547,0,0,1.5945383310317993,0,0,0.7644000053405762
0.393786274,0,0,1.5298948287963867,0,0,0.8408399820327759
0.39503565,0,0,1.5298948287963867,0,0,0.8408399820327759
0.396285323,0,0,1.5298948287963867,0,0,0.9172800183296204
0.39753555,0,0,1.5298948287963867,0,0,0.9172800183296204
0.39878526,0,0,1.5298948287963867,0,0,0.9937199950218201
0.400035376,0,0,1.5298948287963867,0,0,0.8408399820327759
0.401286178,0,0,1.5298948287963867,0,0,0.7644000053405762
0.402537036,0,0,1.5538369417190552,0,0,0.5350799560546875
0.403785245,0,0,1.5538369417190552,0,0,0.9172800183296204
0.405035288,0,0,1.5538369417190552,0,0,0.8408399820327759
0.406285349,0,0,1.5538369417190552,0,0,0.611519992351532
0.407535725,0,0,1.5538369417190552,0,0,0.9937199950218201
0.408785415,0,0,1.5538369417190552,0,0,0.6879600286483765
0.410035143,0,0,1.5538369417190552,0,0,0.8408399820327759
0.411285501,0,0,1.4508862495422363,0,0,0.7644000053405762
0.412535451,0,0,1.4508862495422363,0,0,0.5350799560546875
0.41378529,0,0,1.4508862495422363,0,0,0.305759996175766
0.415035536,0,0,1.4508862495422363,0,0,0.611519992351532
0.416286727,0,0,1.4508862495422363,0,0,0.9172800183296204
0.417535436,0,0,1.4508862495422363,0,0,0.9172800183296204
0.418785812,0,0,1.4508862495422363,0,0,0.6879600286483765
0.420036725,0,0,1.4508862495422363,0,0,0.7644000053405762
0.421285249,0,0,1.359906554222107,0,0,1.070159912109375
0.422535532,0,0,1.359906554222107,0,0,0.4586400091648102
0.423785353,0,0,1.359906554222107,0,0,1.223039984703064
0.425035488,0,0,1.359906554222107,0,0,0.8408399820327759
0.426289808,0,0,1.359906554222107,0,0,0.9937199950218201
0.427535721,0,0,1.359906554222107,0,0,1.070159912109375
0.428785245,0,0,1.359906554222107,0,0,0.6879600286483765
0.430035288,0,0,1.3407529592514038,0,0,0.9172800183296204
0.431285534,0,0,1.3407529592514038,0,0,0.5350799560546875
0.432535503,0,0,1.3407529592514038,0,0,0.8408399820327759
0.43378536,0,0,1.3407529592514038,0,0,0.611519992351532
0.43503544,0,0,1.3407529592514038,0,0,1.070159912109375
0.436285279,0,0,1.3407529592514038,0,0,0.9172800183296204
0.437552877,0,0,1.3407529592514038,0,0,0.9937199950218201
0.438790049,0,0,1.3263877630233765,0,0,0.8408399820327759
0.440052129,0,0,1.3263877630233765,0,0,0.9172800183296204
0.441301208,0,0,1.3263877630233765,0,0,0.9172800183296204
0.44253714,0,0,1.3263877630233765,0,0,0.7644000053405762
0.443785664,0,0,1.3263877630233765,0,0,0.7644000053405762
0.445035448,0,0,1.3263877630233765,0,0,0.6879600286483765
0.446285286,0,0,1.3263877630233765,0,0,0.3822000026702881
0.447535699,0,0,1.4508862495422363,0,0,0.6879600286483765
0.44880189,0,0,1.4508862495422363,0,0,0.6879600286483765
0.450049747,0,0,1.4508862495422363,0,0,0.8408399820327759
0.451297642,0,0,1.4508862495422363,0,0,0.8408399820327759
0.452536981,0,0,1.4508862495422363,0,0,0.9937199950218201
0.45378569,0,0,1.4508862495422363,0,0,0.7644000053405762
0.4550359,0,0,1.4508862495422363,0,0,0.6879600286483765
0.456285368,0,0,1.5682021379470825,0,0,0.8408399820327759
0.457535448,0,0,1.5682021379470825,0,0,0.8408399820327759
0.45878562,0,0,1.5682021379470825,0,0,0.611519992351532
0.460035274,0,0,1.5682021379470825,0,0,0.9937199950218201
0.461285094,0,0,1.5682021379470825,0,0,1.1466000080108643
0.462537377,0,0,1.5682021379470825,0,0,0.9172800183296204
0.46378542,0,0,1.5682021379470825,0,0,0.7644000053405762
0.465040444,0,0,1.601720929145813,0,0,0.9937199950218201
0.466301598,0,0,1.601720929145813,0,0,0.9937199950218201
0.467537696,0,0,1.601720929145813,0,0,0.7644000053405762
0.468785257,0,0,1.601720929145813,0,0,0.9172800183296204
0.470035355,0,0,1.601720929145813,0,0,0.8408399820327759
0.471285268,0,0,1.601720929145813,0,0,0.8408399820327759
0.472535348,0,0,1.601720929145813,0,0,1.070159912109375
0.473785242,0,0,1.601720929145813,0,0,0.6879600286483765
0.475036174,0,0,1.656787633895874,0,0,0.9172800183296204
0.47628518,0,0,1.656787633895874,0,0,0.4586400091648102
0.477535296,0,0,1.656787633895874,0,0,0.9172800183296204
0.478785302,0,0,1.656787633895874,0,0,0.7644000053405762
0.48003603,0,0,1.656787633895874,0,0,0.8408399820327759
0.481285406,0,0,1.656787633895874,0,0,0.9172800183296204
0.482537281,0,0,1.656787633895874,0,0,1.070159912109375
0.483786657,0,0,1.601720929145813,0,0,0.7644000053405762
0.485035348,0,0,1.601720929145813,0,0,0.7644000053405762
0.486285187,0,0,1.601720929145813,0,0,0.7644000053405762
0.487535563,0,0,1.601720929145813,0,0,0.7644000053405762
0.488785198,0,0,1.601720929145813,0,0,0.8408399820327759
0.490035352,0,0,1.601720929145813,0,0,0.611519992351532
0.491285321,0,0,1.601720929145813,0,0,0.9172800183296204
0.492535456,0,0,1.6280571222305298,0,0,0.6879600286483765
0.49378535,0,0,1.6280571222305298,0,0,0.9937199950218201
0.4950673,0,0,1.6280571222305298,0,0,0.9172800183296204
0.496301287,0,0,1.6280571222305298,0,0,0.9172800183296204
0.497547682,0,0,1.6280571222305298,0,0,0.8408399820327759
0.498786632,0,0,1.6280571222305298,0,0,0.9172800183296204
0.5000351,0,0,1.6280571222305298,0,0,0.6879600286483765
0.501285384,0,0,1.5155296325683594,0,0,0.8408399820327759
0.502537426,0,0,1.5155296325683594,0,0,0.7644000053405762
0.503790154,0,0,1.5155296325683594,0,0,0.6879600286483765
0.505035715,0,0,1.5155296325683594,0,0,0.8408399820327759
0.506285499,0,0,1.5155296325683594,0,0,0.611519992351532
0.50753556,0,0,1.5155296325683594,0,0,0.9937199950218201
0.508785343,0,0,1.5155296325683594,0,0,0.5350799560546875
0.510035441,0,0,1.316810965538025,0,0,0.611519992351532
0.511285391,0,0,1.316810965538025,0,0,0.7644000053405762
0.512536212,0,0,1.316810965538025,0,0,1.070159912109375
0.513785402,0,0,1.316810965538025,0,0,0.7644000053405762
0.515035445,0,0,1.316810965538025,0,0,0.9937199950218201
0.516285302,0,0,1.316810965538025,0,0,0.9172800183296204
0.517554252,0,0,1.316810965538025,0,0,0.5350799560546875
0.518787888,0,0,1.3646949529647827,0,0,0.8408399820327759
0.520035652,0,0,1.3646949529647827,0,0,0.6879600286483765
0.521285547,0,0,1.3646949529647827,0,0,0.7644000053405762
0.522536941,0,0,1.3646949529647827,0,0,0.8408399820327759
0.523785206,0,0,1.3646949529647827,0,0,1.223039984703064
0.525035249,0,0,1.3646949529647827,0,0,0.9172800183296204
0.526285291,0,0,1.3646949529647827,0,0,0.6879600286483765
0.527535427,0,0,1.3646949529647827,0,0,0.7644000053405762
0.52878521,0,0,1.3479355573654175,0,0,0.8408399820327759
0.530035419,0,0,1.3479355573654175,0,0,0.8408399820327759
0.53128524,0,0,1.3479355573654175,0,0,0.611519992351532
0.532535245,0,0,1.3479355573654175,0,0,0.6879600286483765
0.53378514,0,0,1.3479355573654175,0,0,0.9937199950218201
0.535035442,0,0,1.3479355573654175,0,0,0.6879600286483765
0.536285484,0,0,1.3479355573654175,0,0,0.9937199950218201
0.537535268,0,0,1.338358759880066,0,0,0.611519992351532
0.538785829,0,0,1.338358759880066,0,0,0.9172800183296204
0.540035427,0,0,1.338358759880066,0,0,0.9937199950218201
0.54128534,0,0,1.338358759880066,0,0,0.8408399820327759
0.542538623,0,0,1.338358759880066,0,0,0.9172800183296204
0.543786462,0,0,1.338358759880066,0,0,0.6879600286483765
0.54503556,0,0,1.338358759880066,0,0,0.611519992351532
0.546293381,0,0,1.41257905960083,0,0,0.8408399820327759
0.547536071,0,0,1.41257905960083,0,0,0.9937199950218201
0.548794503,0,0,1.41257905960083,0,0,0.5350799560546875
0.550037212,0,0,1.41257905960083,0,0,0.4586400091648102
0.551286959,0,0,1.41257905960083,0,0,0.5350799560546875
0.552537575,0,0,1.41257905960083,0,0,0.6879600286483765
0.55378547,0,0,1.41257905960083,0,0,0.5350799560546875
0.555036772,0,0,1.4077905416488647,0,0,0.7644000053405762
0.556285629,0,0,1.4077905416488647,0,0,0.7644000053405762
0.55753519,0,0,1.4077905416488647,0,0,0.7644000053405762
0.55878564,0,0,1.4077905416488647,0,0,0.7644000053405762
0.560035146,0,0,1.4077905416488647,0,0,0.5350799560546875
0.561288207,0,0,1.4077905416488647,0,0,0.8408399820327759
0.562538324,0,0,1.4077905416488647,0,0,0.8408399820327759
0.563785829,0,0,1.4700398445129395,0,0,0.9172800183296204
0.565035242,0,0,1.4700398445129395,0,0,0.4586400091648102
0.566285396,0,0,1.4700398445129395,0,0,0.8408399820327759
0.56753542,0,0,1.4700398445129395,0,0,0.8408399820327759
0.568785426,0,0,1.4700398445129395,0,0,0.9172800183296204
0.570035487,0,0,1.4700398445129395,0,0,0.7644000053405762
0.571285381,0,0,1.4700398445129395,0,0,0.7644000053405762
0.572535424,0,0,1.4700398445129395,0,0,0.7644000053405762
0.573785337,0,0,1.680729627609253,0,0,0.7644000053405762
0.575035342,0,0,1.680729627609253,0,0,1.070159912109375
0.576311514,0,0,1.680729627609253,0,0,0.7644000053405762
0.577579131,0,0,1.680729627609253,0,0,1.070159912109375
0.578813637,0,0,1.680729627609253,0,0,0.6879600286483765
0.580073346,0,0,1.680729627609253,0,0,1.2994799613952637
0.581334147,0,0,1.680729627609253,0,0,0.6879600286483765
0.582576838,0,0,1.5610195398330688,0,0,0.7644000053405762
0.58381564,0,0,1.5610195398330688,0,0,0.5350799560546875
0.585076738,0,0,1.5610195398330688,0,0,0.3822000026702881
0.586347707,0,0,1.5610195398330688,0,0,0.305759996175766
0.587579749,0,0,1.5610195398330688,0,0,0.611519992351532
0.588836199,0,0,1.5610195398330688,0,0,0.8408399820327759
0.590110205,0,0,1.5610195398330688,0,0,0.9172800183296204
0.59132697,0,0,1.623268723487854,0,0,0.9937199950218201
0.592580753,0,0,1.623268723487854,0,0,0.9937199950218201
0.593825629,0,0,1.623268723487854,0,0,0.7644000053405762
0.595074153,0,0,1.623268723487854,0,0,0.611519992351532
0.596329807,0,0,1.623268723487854,0,0,1.1466000080108643
0.597584331,0,0,1.623268723487854,0,0,0.611519992351532
0.598806263,0,0,1.623268723487854,0,0,0.7644000053405762
0.600050139,0,0,1.5610195398330688,0,0,0.9937199950218201
0.6012852,0,0,1.5610195398330688,0,0,0.8408399820327759
0.602536206,0,0,1.5610195398330688,0,0,0.8408399820327759
0.603784322,0,0,1.5610195398330688,0,0,0.7644000053405762
0.60503455,0,0,1.5610195398330688,0,0,0.9172800183296204
0.606284297,0,0,1.5610195398330688,0,0,0.4586400091648102
0.607535691,0,0,1.5610195398330688,0,0,0.8408399820327759
0.608784271,0,0,1.3527239561080933,0,0,0.611519992351532
0.610034313,0,0,1.3527239561080933,0,0,0.9172800183296204
0.6112853,0,0,1.3527239561080933,0,0,0.7644000053405762
0.612534287,0,0,1.3527239561080933,0,0,1.070159912109375
0.613784182,0,0,1.3527239561080933,0,0,0.9172800183296204
0.615035761,0,0,1.3527239561080933,0,0,0.6879600286483765
0.616284304,0,0,1.3527239561080933,0,0,0.6879600286483765
0.617534254,0,0,1.3766659498214722,0,0,0.8408399820327759
0.618784556,0,0,1.3766659498214722,0,0,0.3822000026702881
0.620039247,0,0,1.3766659498214722,0,0,0.6879600286483765
0.621284271,0,0,1.3766659498214722,0,0,0.8408399820327759
0.622534906,0,0,1.3766659498214722,0,0,0.7644000053405762
0.623784301,0,0,1.3766659498214722,0,0,0.7644000053405762
0.62503401,0,0,1.3766659498214722,0,0,0.8408399820327759
0.626298571,0,0,1.3766659498214722,0,0,0.9172800183296204
0.627536965,0,0,1.3718775510787964,0,0,0.6879600286483765
0.628784989,0,0,1.3718775510787964,0,0,1.1466000080108643
0.63003444,0,0,1.3718775510787964,0,0,0.8408399820327759
0.631285019,0,0,1.3718775510787964,0,0,1.070159912109375
0.632551858,0,0,1.3718775510787964,0,0,0.7644000053405762
0.633787141,0,0,1.3718775510787964,0,0,0.8408399820327759
0.635035277,0,0,1.3718775510787964,0,0,1.1466000080108643
0.636284597,0,0,1.3192051649093628,0,0,0.8408399820327759
0.637534306,0,0,1.3192051649093628,0,0,0.611519992351532
0.638785293,0,0,1.3192051649093628,0,0,0.5350799560546875
0.640034447,0,0,1.3192051649093628,0,0,1.070159912109375
0.641312749,0,0,1.3192051649093628,0,0,1.2994799613952637
0.642537736,0,0,1.3192051649093628,0,0,0.8408399820327759
0.643785927,0,0,1.3192051649093628,0,0,0.6879600286483765
0.645035358,0,0,1.4772224426269531,0,0,0.6879600286483765
0.646285271,0,0,1.4772224426269531,0,0,1.070159912109375
0.647535703,0,0,1.4772224426269531,0,0,0.7644000053405762
0.648785338,0,0,1.4772224426269531,0,0,0.9172800183296204
0.650035288,0,0,1.4772224426269531,0,0,0.9172800183296204
0.651285942,0,0,1.4772224426269531,0,0,0.305759996175766
0.652535503,0,0,1.4772224426269531,0,0,0.611519992351532
0.653785342,0,0,1.41257905960083,0,0,0.9172800183296204
0.655035347,0,0,1.41257905960083,0,0,0.8408399820327759
0.656285168,0,0,1.41257905960083,0,0,0.9937199950218201
0.657535433,0,0,1.41257905960083,0,0,0.9172800183296204
0.658788438,0,0,1.41257905960083,0,0,0.8408399820327759
0.660036055,0,0,1.41257905960083,0,0,0.7644000053405762
0.661285412,0,0,1.41257905960083,0,0,0.9937199950218201
0.662536788,0,0,1.556231141090393,0,0,0.7644000053405762
0.663785238,0,0,1.556231141090393,0,0,1.070159912109375
0.66503517,0,0,1.556231141090393,0,0,0.8408399820327759
0.666285194,0,0,1.556231141090393,0,0,0.9937199950218201
0.667535588,0,0,1.556231141090393,0,0,0.7644000053405762
0.668785205,0,0,1.556231141090393,0,0,0.7644000053405762
0.67003534,0,0,1.556231141090393,0,0,0.9937199950218201
0.671285512,0,0,1.6519991159439087,0,0,0.611519992351532
0.672535481,0,0,1.6519991159439087,0,0,0.305759996175766
0.67378619,0,0,1.6519991159439087,0,0,0.611519992351532
0.67503527,0,0,1.6519991159439087,0,0,0.8408399820327759
0.676285368,0,0,1.6519991159439087,0,0,0.6879600286483765
0.677535448,0,0,1.6519991159439087,0,0,0.8408399820327759
0.67878525,0,0,1.6519991159439087,0,0,0.5350799560546875
0.680035366,0,0,1.6519991159439087,0,0,0.7644000053405762
0.681285298,0,0,1.50355863571167,0,0,0.8408399820327759
0.68253547,0,0,1.50355863571167,0,0,0.8408399820327759
0.683785253,0,0,1.50355863571167,0,0,0.6879600286483765
0.685035222,0,0,1.50355863571167,0,0,0.9172800183296204
0.686285227,0,0,1.50355863571167,0,0,0.9172800183296204
0.6875354,0,0,1.50355863571167,0,0,0.9937199950218201
0.688785313,0,0,1.50355863571167,0,0,0.6879600286483765
0.6900353,0,0,1.5873557329177856,0,0,0.9937199950218201
0.691285361,0,0,1.5873557329177856,0,0,0.6879600286483765
0.692535737,0,0,1.5873557329177856,0,0,0.4586400091648102
0.693785428,0,0,1.5873557329177856,0,0,1.223039984703064
0.695035304,0,0,1.5873557329177856,0,0,0.9172800183296204
0.696285457,0,0,1.5873557329177856,0,0,0.7644000053405762
0.697537889,0,0,1.5873557329177856,0,0,0.9172800183296204
0.69878582,0,0,1.4077905416488647,0,0,0.7644000053405762
0.700035493,0,0,1.4077905416488647,0,0,0.9937199950218201
0.701285368,0,0,1.4077905416488647,0,0,0.7644000053405762
0.702535633,0,0,1.4077905416488647,0,0,0.6879600286483765
0.703785361,0,0,1.4077905416488647,0,0,0.7644000053405762
0.705035404,0,0,1.4077905416488647,0,0,0.7644000053405762
0.706285391,0,0,1.4077905416488647,0,0,0.9172800183296204
0.707535711,0,0,1.2521674633026123,0,0,0.9172800183296204
0.708786606,0,0,1.2521674633026123,0,0,0.6879600286483765
0.710035315,0,0,1.2521674633026123,0,0,0.8408399820327759
0.711285432,0,0,1.2521674633026123,0,0,0.9172800183296204
0.712535271,0,0,1.2521674633026123,0,0,0.9172800183296204
0.713785239,0,0,1.2521674633026123,0,0,0.6879600286483765
0.715035522,0,0,1.2521674633026123,0,0,1.223039984703064
0.716285343,0,0,1.3503297567367554,0,0,0.4586400091648102
0.717535404,0,0,1.3503297567367554,0,0,0.7644000053405762
0.71878541,0,0,1.3503297567367554,0,0,0.8408399820327759
0.720035248,0,0,1.3503297567367554,0,0,0.9937199950218201
0.721285439,0,0,1.3503297567367554,0,0,0.9172800183296204
0.722535537,0,0,1.3503297567367554,0,0,0.7644000053405762
0.723785673,0,0,1.3503297567367554,0,0,0.7644000053405762
0.7250354,0,0,1.3503297567367554,0,0,0.9172800183296204
0.726285406,0,0,1.280897855758667,0,0,0.9172800183296204
0.727535412,0,0,1.280897855758667,0,0,0.8408399820327759
0.728785491,0,0,1.280897855758667,0,0,0.7644000053405762
0.730035293,0,0,1.280897855758667,0,0,0.8408399820327759
0.73128541,0,0,1.280897855758667,0,0,1.2994799613952637
0.732535267,0,0,1.280897855758667,0,0,0.8408399820327759
0.733785365,0,0,1.280897855758667,0,0,0.9172800183296204
0.735035297,0,0,1.3503297567367554,0,0,0.9172800183296204
0.736288358,0,0,1.3503297567367554,0,0,0.8408399820327759
0.737549845,0,0,1.3503297567367554,0,0,0.4586400091648102
0.738787406,0,0,1.3503297567367554,0,0,0.7644000053405762
0.740035727,0,0,1.3503297567367554,0,0,0.8408399820327759
0.741285491,0,0,1.3503297567367554,0,0,0.7644000053405762
0.742536645,0,0,1.3503297567367554,0,0,1.070159912109375
0.743785614,0,0,1.434126853942871,0,0,1.070159912109375
0.745035193,0,0,1.434126853942871,0,0,0.611519992351532
0.746285329,0,0,1.434126853942871,0,0,0.6879600286483765
0.747535779,0,0,1.434126853942871,0,0,0.9937199950218201
0.748785154,0,0,1.434126853942871,0,0,0.305759996175766
0.750035382,0,0,1.434126853942871,0,0,0.9937199950218201
0.751285351,0,0,1.434126853942871,0,0,0.6879600286483765
0.75253806,0,0,1.5059528350830078,0,0,0.9172800183296204
0.753785288,0,0,1.5059528350830078,0,0,0.9937199950218201
0.755035442,0,0,1.5059528350830078,0,0,0.9172800183296204
0.756285577,0,0,1.5059528350830078,0,0,0.9172800183296204
0.75753549,0,0,1.5059528350830078,0,0,0.7644000053405762
0.758785532,0,0,1.5059528350830078,0,0,1.070159912109375
0.760035334,0,0,1.5059528350830078,0,0,1.2994799613952637
0.761285173,0,0,1.5514427423477173,0,0,1.070159912109375
0.762535271,0,0,1.5514427423477173,0,0,0.7644000053405762
0.763785295,0,0,1.5514427423477173,0,0,0.9937199950218201
0.765035301,0,0,1.5514427423477173,0,0,0.9172800183296204
0.766285233,0,0,1.5514427423477173,0,0,0.8408399820327759
0.767535775,0,0,1.5514427423477173,0,0,0.4586400091648102
0.768785207,0,0,1.5514427423477173,0,0,0.8408399820327759
0.770035509,0,0,1.5394717454910278,0,0,0.2293200045824051
0.771285384,0,0,1.5394717454910278,0,0,0.9937199950218201
0.772535242,0,0,1.5394717454910278,0,0,0.7644000053405762
0.773785377,0,0,1.5394717454910278,0,0,0.7644000053405762
0.775039364,0,0,1.5394717454910278,0,0,0.7644000053405762
0.776285629,0,0,1.5394717454910278,0,0,0.9172800183296204
0.777535246,0,0,1.5394717454910278,0,0,0.8408399820327759
0.778785418,0,0,1.5394717454910278,0,0,0.4586400091648102
0.780035479,0,0,1.460463047027588,0,0,1.070159912109375
0.781285207,0,0,1.460463047027588,0,0,0.7644000053405762
0.782535435,0,0,1.460463047027588,0,0,0.8408399820327759
0.783785274,0,0,1.460463047027588,0,0,0.7644000053405762
0.785035242,0,0,1.460463047027588,0,0,0.8408399820327759
0.786285192,0,0,1.460463047027588,0,0,0.7644000053405762
0.787535346,0,0,1.460463047027588,0,0,0.9937199950218201
0.788785833,0,0,1.5897499322891235,0,0,0.611519992351532
0.790035246,0,0,1.5897499322891235,0,0,0.7644000053405762
0.791285511,0,0,1.5897499322891235,0,0,0.4586400091648102
0.792535405,0,0,1.5897499322891235,0,0,0.6879600286483765
0.793785392,0,0,1.5897499322891235,0,0,0.9937199950218201
0.795035379,0,0,1.5897499322891235,0,0,0.5350799560546875
0.79628544,0,0,1.5897499322891235,0,0,0.9172800183296204
0.797535428,0,0,1.4221558570861816,0,0,0.8408399820327759
0.798785359,0,0,1.4221558570861816,0,0,0.8408399820327759
0.800035346,0,0,1.4221558570861816,0,0,0.7644000053405762
0.801285352,0,0,1.4221558570861816,0,0,0.7644000053405762
0.802536579,0,0,1.4221558570861816,0,0,0.3822000026702881
0.803785474,0,0,1.4221558570861816,0,0,0.9172800183296204
0.805035146,0,0,1.4221558570861816,0,0,0.8408399820327759
0.806285411,0,0,1.3886369466781616,0,0,0.7644000053405762
0.807535546,0,0,1.3886369466781616,0,0,0.9172800183296204
0.808785496,0,0,1.3886369466781616,0,0,0.8408399820327759
0.810035224,0,0,1.3886369466781616,0,0,0.611519992351532
0.81129297,0,0,1.3886369466781616,0,0,0.5350799560546875
0.812536661,0,0,1.3886369466781616,0,0,1.5288000106811523
0.813787722,0,0,1.3886369466781616,0,0,0.8408399820327759
0.815035432,0,0,1.436521053314209,0,0,0.7644000053405762
0.816285289,0,0,1.436521053314209,0,0,0.8408399820327759
0.817547887,0,0,1.436521053314209,0,0,0.9937199950218201
0.818787282,0,0,1.436521053314209,0,0,0.6879600286483765
0.820036269,0,0,1.436521053314209,0,0,0.611519992351532
0.82128583,0,0,1.436521053314209,0,0,0.7644000053405762
0.822536743,0,0,1.436521053314209,0,0,0.5350799560546875
0.823785304,0,0,1.314416766166687,0,0,0.5350799560546875
0.825035346,0,0,1.314416766166687,0,0,1.070159912109375
0.826285352,0,0,1.314416766166687,0,0,0.8408399820327759
0.827535339,0,0,1.314416766166687,0,0,0.5350799560546875
0.828785382,0,0,1.314416766166687,0,0,0.9172800183296204
0.830035406,0,0,1.314416766166687,0,0,0.9937199950218201
0.8312853,0,0,1.314416766166687,0,0,0.611519992351532
0.832535306,0,0,1.314416766166687,0,0,0.8408399820327759
0.833785237,0,0,1.314416766166687,0,0,1.070159912109375
0.835035465,0,0,1.314416766166687,0,0,0.611519992351532
0.836285304,0,0,1.314416766166687,0,0,0.9937199950218201
0.837535236,0,0,1.314416766166687,0,0,0.8408399820327759
0.838785463,0,0,1.314416766166687,0,0,0.9172800183296204
0.840049654,0,0,1.314416766166687,0,0,0.8408399820327759
0.841286641,0,0,1.314416766166687,0,0,0.4586400091648102
0.84253948,0,0,1.455674648284912,0,0,0.8408399820327759
0.843785338,0,0,1.455674648284912,0,0,0.5350799560546875
0.845035306,0,0,1.455674648284912,0,0,0.7644000053405762
0.846285386,0,0,1.455674648284912,0,0,0.8408399820327759
0.847579761,0,0,1.455674648284912,0,0,0.9937199950218201
0.848837082,0,0,1.455674648284912,0,0,0.8408399820327759
0.850053884,0,0,1.455674648284912,0,0,0.9172800183296204
0.851286871,0,0,1.4867992401123047,0,0,0.8408399820327759
0.852542228,0,0,1.4867992401123047,0,0,0.611519992351532
0.85378579,0,0,1.4867992401123047,0,0,0.5350799560546875
0.855045443,0,0,1.4867992401123047,0,0,0.9172800183296204
0.856292245,0,0,1.4867992401123047,0,0,0.0764399990439415
0.857535529,0,0,1.4867992401123047,0,0,1.070159912109375
0.858785608,0,0,1.4867992401123047,0,0,0.9937199950218201
0.860035317,0,0,1.6376339197158813,0,0,0.9937199950218201
0.861285119,0,0,1.6376339197158813,0,0,0.9937199950218201
0.862535699,0,0,1.6376339197158813,0,0,0.9172800183296204
0.863785482,0,0,1.6376339197158813,0,0,0.6879600286483765
0.86503534,0,0,1.6376339197158813,0,0,0.2293200045824051
0.866285419,0,0,1.6376339197158813,0,0,0.9172800183296204
0.867535981,0,0,1.6376339197158813,0,0,0.611519992351532
0.868785431,0,0,1.53707754611969,0,0,1.1466000080108643
0.870035732,0,0,1.53707754611969,0,0,0.8408399820327759
0.871285442,0,0,1.53707754611969,0,0,0.611519992351532
0.872535466,0,0,1.53707754611969,0,0,0.8408399820327759
0.873785342,0,0,1.53707754611969,0,0,0.8408399820327759
0.875036051,0,0,1.53707754611969,0,0,0.8408399820327759
0.876285297,0,0,1.53707754611969,0,0,0.5350799560546875
0.877535396,0,0,1.5275006294250488,0,0,0.8408399820327759
0.87878542,0,0,1.5275006294250488,0,0,0.7644000053405762
0.88003537,0,0,1.5275006294250488,0,0,0.9172800183296204
0.881286097,0,0,1.5275006294250488,0,0,0.8408399820327759
0.882539362,0,0,1.5275006294250488,0,0,0.7644000053405762
0.883795701,0,0,1.5275006294250488,0,0,0.8408399820327759
0.885050207,0,0,1.5275006294250488,0,0,0.9937199950218201
0.886287657,0,0,1.5275006294250488,0,0,0.4586400091648102
0.887535792,0,0,1.6903064250946045,0,0,0.611519992351532
0.888785668,0,0,1.6903064250946045,0,0,0
0.890035525,0,0,1.6903064250946045,0,0,0.611519992351532
0.891290253,0,0,1.6903064250946045,0,0,0.9172800183296204
0.892535537,0,0,1.6903064250946045,0,0,0.7644000053405762
0.893785579,0,0,1.6903064250946045,0,0,0.7644000053405762
0.895035714,0,0,1.6903064250946045,0,0,0.8408399820327759
0.896285868,0,0,1.3742717504501343,0,0,0.8408399820327759
0.897535355,0,0,1.3742717504501343,0,0,0.5350799560546875
0.89878549,0,0,1.3742717504501343,0,0,1.1466000080108643
0.900035422,0,0,1.3742717504501343,0,0,0.8408399820327759
0.901285501,0,0,1.3742717504501343,0,0,0.9172800183296204
0.902536711,0,0,1.3742717504501343,0,0,0.8408399820327759
0.903785605,0,0,1.3742717504501343,0,0,0.8408399820327759
0.905035481,0,0,1.338358759880066,0,0,0.8408399820327759
0.906312542,0,0,1.338358759880066,0,0,0.5350799560546875
0.907565955,0,0,1.338358759880066,0,0,0.6879600286483765
0.908816535,0,0,1.338358759880066,0,0,0.2293200045824051
0.910078077,0,0,1.338358759880066,0,0,0.611519992351532
0.911314157,0,0,1.338358759880066,0,0,0.5350799560546875
0.912564681,0,0,1.338358759880066,0,0,0.6879600286483765
0.913822372,0,0,1.3838485479354858,0,0,0.9172800183296204
0.915065322,0,0,1.3838485479354858,0,0,0.8408399820327759
0.916325383,0,0,1.3838485479354858,0,0,0.7644000053405762
0.917570407,0,0,1.3838485479354858,0,0,0.9172800183296204
0.918802357,0,0,1.3838485479354858,0,0,0.9172800183296204
0.9200579,0,0,1.3838485479354858,0,0,0.9937199950218201
0.921308276,0,0,1.3838485479354858,0,0,0.611519992351532
0.922558448,0,0,1.2306196689605713,0,0,0.8408399820327759
0.923791139,0,0,1.2306196689605713,0,0,1.070159912109375
0.925039885,0,0,1.2306196689605713,0,0,0.6879600286483765
0.926288113,0,0,1.2306196689605713,0,0,0.7644000053405762
0.927543081,0,0,1.2306196689605713,0,0,0.611519992351532
0.928790402,0,0,1.2306196689605713,0,0,0.7644000053405762
0.930044352,0,0,1.2306196689605713,0,0,0.7644000053405762
0.931307339,0,0,1.4269442558288574,0,0,0.6879600286483765
0.932583529,0,0,1.4269442558288574,0,0,0.9937199950218201
0.933815887,0,0,1.4269442558288574,0,0,0.7644000053405762
0.935045115,0,0,1.4269442558288574,0,0,0.7644000053405762
0.93630412,0,0,1.4269442558288574,0,0,0.9937199950218201
0.937543904,0,0,1.4269442558288574,0,0,0.9172800183296204
0.938810669,0,0,1.4269442558288574,0,0,0.8408399820327759
0.940059119,0,0,1.4269442558288574,0,0,0.8408399820327759
0.941308495,0,0,1.50355863571167,0,0,0.6879600286483765
0.942575444,0,0,1.50355863571167,0,0,0.4586400091648102
0.943844061,0,0,1.50355863571167,0,0,0.611519992351532
0.945103363,0,0,1.50355863571167,0,0,0.9172800183296204
0.946335646,0,0,1.50355863571167,0,0,0.611519992351532
0.947574689,0,0,1.50355863571167,0,0,0.9172800183296204
0.948810269,0,0,1.50355863571167,0,0,0.9172800183296204
0.950064108,0,0,1.5442601442337036,0,0,0.8408399820327759
0.951299613,0,0,1.5442601442337036,0,0,0.5350799560546875
0.952557322,0,0,1.5442601442337036,0,0,0.8408399820327759
0.953810347,0,0,1.5442601442337036,0,0,0.7644000053405762
0.955065019,0,0,1.5442601442337036,0,0,0.8408399820327759
0.956311265,0,0,1.5442601442337036,0,0,1.070159912109375
0.957568882,0,0,1.5442601442337036,0,0,0.9172800183296204
0.958813313,0,0,1.558625340461731,0,0,0.8408399820327759
0.960056893,0,0,1.558625340461731,0,0,0.6879600286483765
0.961304547,0,0,1.558625340461731,0,0,0.5350799560546875
0.962603256,0,0,1.558625340461731,0,0,0.7644000053405762
0.963813113,0,0,1.558625340461731,0,0,0.9172800183296204
0.965062545,0,0,1.558625340461731,0,0,1.070159912109375
0.966299347,0,0,1.558625340461731,0,0,0.9937199950218201
0.967536612,0,0,1.4891934394836426,0,0,0.9937199950218201
0.968791321,0,0,1.4891934394836426,0,0,1.223039984703064
0.970035919,0,0,1.4891934394836426,0,0,0.9937199950218201
0.971286314,0,0,1.4891934394836426,0,0,0.9937199950218201
0.972535356,0,0,1.4891934394836426,0,0,0.611519992351532
0.973785306,0,0,1.4891934394836426,0,0,0.9172800183296204
0.975035201,0,0,1.4891934394836426,0,0,0.305759996175766
0.97628541,0,0,1.4915876388549805,0,0,0.7644000053405762
0.977535286,0,0,1.4915876388549805,0,0,0.611519992351532
0.978786106,0,0,1.4915876388549805,0,0,0.9172800183296204
0.980035316,0,0,1.4915876388549805,0,0,0.8408399820327759
0.981285284,0,0,1.4915876388549805,0,0,0.8408399820327759
0.982535827,0,0,1.4915876388549805,0,0,0.6879600286483765
0.983786925,0,0,1.4915876388549805,0,0,0.6879600286483765
0.985035634,0,0,1.4867992401123047,0,0,1.375920057296753
0.986285399,0,0,1.4867992401123047,0,0,0.5350799560546875
0.987536405,0,0,1.4867992401123047,0,0,0.9172800183296204
0.988785577,0,0,1.4867992401123047,0,0,0.6879600286483765
0.990035323,0,0,1.4867992401123047,0,0,0.9937199950218201
0.99128594,0,0,1.4867992401123047,0,0,0.9172800183296204
0.992535612,0,0,1.4867992401123047,0,0,0.7644000053405762
0.993785396,0,0,1.2665326595306396,0,0,0.6879600286483765
0.995035438,0,0,1.2665326595306396,0,0,0.3822000026702881
0.996285296,0,0,1.2665326595306396,0,0,1.070159912109375
0.997535375,0,0,1.2665326595306396,0,0,0.7644000053405762
0.998785492,0,0,1.2665326595306396,0,0,0.9937199950218201
1.000035627,0,0,1.2665326595306396,0,0,0.9172800183296204
1.001285466,0,0,1.2665326595306396,0,0,1.070159912109375
1.002535638,0,0,1.2665326595306396,0,0,1.1466000080108643
1.003789125,0,0,1.3886369466781616,0,0,1.070159912109375
1.005039501,0,0,1.3886369466781616,0,0,0.8408399820327759
1.006285711,0,0,1.3886369466781616,0,0,0.8408399820327759
1.007539605,0,0,1.3886369466781616,0,0,0.5350799560546875
1.008785611,0,0,1.3886369466781616,0,0,0.9937199950218201
1.010035264,0,0,1.3886369466781616,0,0,0.7644000053405762
1.011285363,0,0,1.3886369466781616,0,0,0.6879600286483765
1.012535479,0,0,1.381454348564148,0,0,0.9172800183296204
1.013785411,0,0,1.381454348564148,0,0,0.6879600286483765
1.015035268,0,0,1.381454348564148,0,0,0.8408399820327759
1.016285422,0,0,1.381454348564148,0,0,0.9172800183296204
1.017535261,0,0,1.381454348564148,0,0,1.1466000080108643
1.018785359,0,0,1.381454348564148,0,0,0.9172800183296204
1.02003592,0,0,1.381454348564148,0,0,0.8408399820327759
1.02128537,0,0,1.280897855758667,0,0,0.8408399820327759
1.022535413,0,0,1.280897855758667,0,0,1.070159912109375
1.023795992,0,0,1.280897855758667,0,0,0.9172800183296204
1.025043165,0,0,1.280897855758667,0,0,0.6879600286483765
1.026285744,0,0,1.280897855758667,0,0,0.8408399820327759
1.027535176,0,0,1.280897855758667,0,0,0.5350799560546875
1.028785404,0,0,1.280897855758667,0,0,0.152879998087883
1.030035261,0,0,1.460463047027588,0,0,0.611519992351532
1.031285322,0,0,1.460463047027588,0,0,1.070159912109375
1.03253542,0,0,1.460463047027588,0,0,0.8408399820327759
1.033785389,0,0,1.460463047027588,0,0,1.070159912109375
1.035035246,0,0,1.460463047027588,0,0,0.9937199950218201
1.036285233,0,0,1.460463047027588,0,0,0.6879600286483765
1.037552146,0,0,1.460463047027588,0,0,0.611519992351532
1.038787782,0,0,1.522712230682373,0,0,1.1466000080108643
1.040035509,0,0,1.522712230682373,0,0,0.9172800183296204
1.041285274,0,0,1.522712230682373,0,0,0.8408399820327759
1.042536632,0,0,1.522712230682373,0,0,0.8408399820327759
1.043785304,0,0,1.522712230682373,0,0,0.9172800183296204
1.045035235,0,0,1.522712230682373,0,0,0.9172800183296204
1.046289037,0,0,1.522712230682373,0,0,0.7644000053405762
1.047535543,0,0,1.522712230682373,0,0,0.6879600286483765
1.048785141,0,0,1.534683346748352,0,0,0.9172800183296204
1.050035647,0,0,1.534683346748352,0,0,0.3822000026702881
1.051285893,0,0,1.534683346748352,0,0,0.8408399820327759
1.052535954,0,0,1.534683346748352,0,0,0.7644000053405762
1.053785348,0,0,1.534683346748352,0,0,0.8408399820327759
1.055035391,0,0,1.534683346748352,0,0,1.070159912109375
1.056285304,0,0,1.534683346748352,0,0,0.7644000053405762
1.057535273,0,0,1.5729905366897583,0,0,0.9937199950218201
1.058785315,0,0,1.5729905366897583,0,0,0.611519992351532
1.060035228,0,0,1.5729905366897583,0,0,0.6879600286483765
1.061285197,0,0,1.5729905366897583,0,0,0.5350799560546875
1.062535202,0,0,1.5729905366897583,0,0,0.6879600286483765
1.063785282,0,0,1.5729905366897583,0,0,0.611519992351532
1.065035602,0,0,1.5729905366897583,0,0,0.9172800183296204
1.066285478,0,0,1.522712230682373,0,0,0.9172800183296204
1.06753541,0,0,1.522712230682373,0,0,0.9937199950218201
1.068785415,0,0,1.522712230682373,0,0,0.9172800183296204
1.070035217,0,0,1.522712230682373,0,0,0.7644000053405762
1.071285241,0,0,1.522712230682373,0,0,0.9172800183296204
1.072535358,0,0,1.522712230682373,0,0,0.7644000053405762
1.073785123,0,0,1.522712230682373,0,0,0.9172800183296204
1.075036054,0,0,1.5945383310317993,0,0,0.611519992351532
1.076285338,0,0,1.5945383310317993,0,0,0.9172800183296204
1.0775353619999999,0,0,1.5945383310317993,0,0,0.9937199950218201
1.078785423,0,0,1.5945383310317993,0,0,0.8408399820327759
1.080035429,0,0,1.5945383310317993,0,0,0.7644000053405762
1.081285656,0,0,1.5945383310317993,0,0,0.5350799560546875
1.082536458,0,0,1.5945383310317993,0,0,0.8408399820327759
1.083785779,0,0,1.4772224426269531,0,0,0.9172800183296204
1.085038247,0,0,1.4772224426269531,0,0,0.9172800183296204
1.086285419,0,0,1.4772224426269531,0,0,0.611519992351532
1.087535518,0,0,1.4772224426269531,0,0,1.2994799613952637
1.088785356,0,0,1.4772224426269531,0,0,0.9172800183296204
1.090035307,0,0,1.4772224426269531,0,0,1.070159912109375
1.091285423,0,0,1.4772224426269531,0,0,0.8408399820327759
1.09253517,0,0,1.2689268589019775,0,0,0.6879600286483765
1.093785323,0,0,1.2689268589019775,0,0,0.0764399990439415
1.095035236,0,0,1.2689268589019775,0,0,0.7644000053405762
1.096285371,0,0,1.2689268589019775,0,0,0.8408399820327759
1.097535099,0,0,1.2689268589019775,0,0,0.611519992351532
1.09881979,0,0,1.2689268589019775,0,0,0.7644000053405762
1.100085554,0,0,1.2689268589019775,0,0,0.9172800183296204
1.101304801,0,0,1.2689268589019775,0,0,0.8408399820327759
1.102536751,0,0,1.3431471586227417,0,0,0.6879600286483765
1.103785997,0,0,1.3431471586227417,0,0,1.375920057296753
1.105043818,0,0,1.3431471586227417,0,0,0.8408399820327759
1.106287583,0,0,1.3431471586227417,0,0,0.8408399820327759
1.107536144,0,0,1.3431471586227417,0,0,0.611519992351532
1.108785761,0,0,1.3431471586227417,0,0,0.8408399820327759
1.110035433,0,0,1.3431471586227417,0,0,1.070159912109375
1.111285605,0,0,1.2665326595306396,0,0,0.9172800183296204
1.112535796,0,0,1.2665326595306396,0,0,0.7644000053405762
1.113785431,0,0,1.2665326595306396,0,0,0.3822000026702881
1.115035603,0,0,1.2665326595306396,0,0,0.9937199950218201
1.116285905,0,0,1.2665326595306396,0,0,0.9937199950218201
1.117549503,0,0,1.2665326595306396,0,0,0.9172800183296204
1.118787898,0,0,1.2665326595306396,0,0,0.6879600286483765
1.120034496,0,0,1.3646949529647827,0,0,0.7644000053405762
1.121284298,0,0,1.3646949529647827,0,0,0.7644000053405762
1.122536674,0,0,1.3646949529647827,0,0,0.7644000053405762
1.123791105,0,0,1.3646949529647827,0,0,0.5350799560546875
1.1250356479999999,0,0,1.3646949529647827,0,0,1.070159912109375
1.126285209,0,0,1.3646949529647827,0,0,0.152879998087883
1.127535326,0,0,1.3646949529647827,0,0,0.8408399820327759
1.128785368,0,0,1.4269442558288574,0,0,0.8408399820327759
1.130035207,0,0,1.4269442558288574,0,0,0.9172800183296204
1.131285472,0,0,1.4269442558288574,0,0,0.9937199950218201
1.132535255,0,0,1.4269442558288574,0,0,0.8408399820327759
1.133785224,0,0,1.4269442558288574,0,0,0.611519992351532
1.135035526,0,0,1.4269442558288574,0,0,0.7644000053405762
1.136285439,0,0,1.4269442558288574,0,0,1.223039984703064
1.137535315,0,0,1.501164436340332,0,0,0.7644000053405762
1.138785561,0,0,1.501164436340332,0,0,1.1466000080108643
1.14003527,0,0,1.501164436340332,0,0,0.8408399820327759
1.141285313,0,0,1.501164436340332,0,0,1.070159912109375
1.142536633,0,0,1.501164436340332,0,0,0.9937199950218201
1.143785472,0,0,1.501164436340332,0,0,0.611519992351532
1.14503607,0,0,1.501164436340332,0,0,0.611519992351532
1.146285335,0,0,1.501164436340332,0,0,0.611519992351532
1.147535378,0,0,1.6184803247451782,0,0,0.4586400091648102
1.148785735,0,0,1.6184803247451782,0,0,0.611519992351532
1.150035278,0,0,1.6184803247451782,0,0,0.7644000053405762
1.1512854319999999,0,0,1.6184803247451782,0,0,0.8408399820327759
1.152536919,0,0,1.6184803247451782,0,0,0.7644000053405762
1.153786202,0,0,1.6184803247451782,0,0,0.9172800183296204
1.155035485,0,0,1.6184803247451782,0,0,0.9937199950218201
1.156285509,0,0,1.6208745241165161,0,0,0.7644000053405762
1.157535293,0,0,1.6208745241165161,0,0,1.070159912109375
1.158785447,0,0,1.6208745241165161,0,0,0.611519992351532
1.160035285,0,0,1.6208745241165161,0,0,0.9172800183296204
1.161285421,0,0,1.6208745241165161,0,0,0.6879600286483765
1.162539037,0,0,1.6208745241165161,0,0,0.9937199950218201
1.163785636,0,0,1.6208745241165161,0,0,0.7644000053405762
1.165035549,0,0,1.5322890281677246,0,0,0.6879600286483765
1.166285406,0,0,1.5322890281677246,0,0,0.7644000053405762
1.167535578,0,0,1.5322890281677246,0,0,0.611519992351532
1.168785139,0,0,1.5322890281677246,0,0,0.5350799560546875
1.17003533,0,0,1.5322890281677246,0,0,0.9937199950218201
1.171289039,0,0,1.5322890281677246,0,0,0.9937199950218201
1.172548063,0,0,1.5322890281677246,0,0,1.070159912109375
1.173787902,0,0,1.577778935432434,0,0,0.9937199950218201
1.175047445,0,0,1.577778935432434,0,0,0.7644000053405762
1.176287525,0,0,1.577778935432434,0,0,0.8408399820327759
1.177535604,0,0,1.577778935432434,0,0,0.4586400091648102
1.178785536,0,0,1.577778935432434,0,0,0.9172800183296204
1.180036208,0,0,1.577778935432434,0,0,0.4586400091648102
1.181285528,0,0,1.577778935432434,0,0,0.9172800183296204
1.182535478,0,0,1.4676456451416016,0,0,0.7644000053405762
1.183785447,0,0,1.4676456451416016,0,0,0.9172800183296204
1.185042749,0,0,1.4676456451416016,0,0,0.9937199950218201
1.18628631,0,0,1.4676456451416016,0,0,0.7644000053405762
1.187535501,0,0,1.4676456451416016,0,0,0.7644000053405762
1.188785358,0,0,1.4676456451416016,0,0,0.4586400091648102
1.190035438,0,0,1.4676456451416016,0,0,1.070159912109375
1.191285518,0,0,1.357512354850769,0,0,0.9172800183296204
1.192535468,0,0,1.357512354850769,0,0,0.9172800183296204
1.193785473,0,0,1.357512354850769,0,0,0.9172800183296204
1.195035553,0,0,1.357512354850769,0,0,1.1466000080108643
1.196285318,0,0,1.357512354850769,0,0,0.9937199950218201
1.197535416,0,0,1.357512354850769,0,0,0.7644000053405762
1.1987855139999999,0,0,1.357512354850769,0,0,0.611519992351532
1.200035297,0,0,1.357512354850769,0,0,0.7644000053405762
1.201288432,0,0,1.3886369466781616,0,0,0.6879600286483765
1.202536957,0,0,1.3886369466781616,0,0,0.9937199950218201
1.203785462,0,0,1.3886369466781616,0,0,0.9937199950218201
1.205035375,0,0,1.3886369466781616,0,0,0.9172800183296204
1.206285196,0,0,1.3886369466781616,0,0,0.9937199950218201
1.207535349,0,0,1.3886369466781616,0,0,0.7644000053405762
1.208785373,0,0,1.3886369466781616,0,0,0.9172800183296204
1.210035249,0,0,1.2761094570159912,0,0,0.305759996175766
1.211286125,0,0,1.2761094570159912,0,0,0.8408399820327759
1.212536279,0,0,1.2761094570159912,0,0,0.4586400091648102
1.213801525,0,0,1.2761094570159912,0,0,0.9937199950218201
1.2150377159999999,0,0,1.2761094570159912,0,0,0.611519992351532
1.216285685,0,0,1.2761094570159912,0,0,0.9937199950218201
1.217535338,0,0,1.2761094570159912,0,0,1.070159912109375
1.218786011,0,0,1.3479355573654175,0,0,0.8408399820327759
1.220035238,0,0,1.3479355573654175,0,0,0.9172800183296204
1.221285614,0,0,1.3479355573654175,0,0,0.5350799560546875
1.222535953,0,0,1.3479355573654175,0,0,1.223039984703064
1.223785329,0,0,1.3479355573654175,0,0,0.7644000053405762
1.22503539,0,0,1.3479355573654175,0,0,1.1466000080108643
1.22628547,0,0,1.3479355573654175,0,0,0.9172800183296204
1.227535531,0,0,1.5083470344543457,0,0,1.070159912109375
1.228785407,0,0,1.5083470344543457,0,0,0.9937199950218201
1.230035209,0,0,1.5083470344543457,0,0,0.8408399820327759
1.231285566,0,0,1.5083470344543457,0,0,0.5350799560546875
1.232535331,0,0,1.5083470344543457,0,0,0.6879600286483765
1.2337853,0,0,1.5083470344543457,0,0,0.4586400091648102
1.235035509,0,0,1.5083470344543457,0,0,0.9172800183296204
1.236285348,0,0,1.4915876388549805,0,0,0.9172800183296204
1.237535335,0,0,1.4915876388549805,0,0,0.6879600286483765
1.2387856,0,0,1.4915876388549805,0,0,0.8408399820327759
1.24003942,0,0,1.4915876388549805,0,0,0.6879600286483765
1.241285574,0,0,1.4915876388549805,0,0,0.9172800183296204
1.242536765,0,0,1.4915876388549805,0,0,0.305759996175766
1.243785918,0,0,1.4915876388549805,0,0,0.9172800183296204
1.245035498,0,0,1.4915876388549805,0,0,0.305759996175766
1.246285244,0,0,1.6400281190872192,0,0,0.8408399820327759
1.247535509,0,0,1.6400281190872192,0,0,0.8408399820327759
1.248785311,0,0,1.6400281190872192,0,0,0.9937199950218201
1.250035483,0,0,1.6400281190872192,0,0,0.7644000053405762
1.251285304,0,0,1.6400281190872192,0,0,0.7644000053405762
1.2525353830000001,0,0,1.6400281190872192,0,0,0.8408399820327759
1.253785204,0,0,1.6400281190872192,0,0,0.8408399820327759
1.2550353570000001,0,0,1.6400281190872192,0,0,0.6879600286483765
1.25628527,0,0,1.6400281190872192,0,0,0.9172800183296204
1.257535461,0,0,1.6400281190872192,0,0,0.9172800183296204
1.258785319,0,0,1.6400281190872192,0,0,0.8408399820327759
1.26003538,0,0,1.6400281190872192,0,0,0.8408399820327759
1.261285478,0,0,1.6400281190872192,0,0,0.8408399820327759
1.262535484,0,0,1.6400281190872192,0,0,0.8408399820327759
1.2637853780000001,0,0,1.5490485429763794,0,0,0.6879600286483765
1.265042735,0,0,1.5490485429763794,0,0,0.611519992351532
1.266286074,0,0,1.5490485429763794,0,0,0.3822000026702881
1.26753545,0,0,1.5490485429763794,0,0,0.8408399820327759
1.268785345,0,0,1.5490485429763794,0,0,0.8408399820327759
1.270035313,0,0,1.5490485429763794,0,0,0.8408399820327759
1.2712853929999999,0,0,1.5490485429763794,0,0,1.070159912109375
1.272535362,0,0,1.5514427423477173,0,0,0.8408399820327759
1.273785312,0,0,1.5514427423477173,0,0,0.9937199950218201
1.2750370580000001,0,0,1.5514427423477173,0,0,0.6879600286483765
1.276285323,0,0,1.5514427423477173,0,0,0.9172800183296204
1.277535347,0,0,1.5514427423477173,0,0,0.8408399820327759
1.2787881300000001,0,0,1.5514427423477173,0,0,1.1466000080108643
1.280035451,0,0,1.5514427423477173,0,0,0.8408399820327759
1.281358863,0,0,1.3311761617660522,0,0,0.9172800183296204
1.2825388690000001,0,0,1.3311761617660522,0,0,0.611519992351532
1.283785875,0,0,1.3311761617660522,0,0,0.8408399820327759
1.285035565,0,0,1.3311761617660522,0,0,0.8408399820327759
1.286285312,0,0,1.3311761617660522,0,0,0.4586400091648102
1.287535447,0,0,1.3311761617660522,0,0,0.5350799560546875
1.288785193,0,0,1.3311761617660522,0,0,0.8408399820327759
1.290035291,0,0,1.3623007535934448,0,0,1.070159912109375
1.291285371,0,0,1.3623007535934448,0,0,0.8408399820327759
1.29253521,0,0,1.3623007535934448,0,0,0.8408399820327759
1.293785179,0,0,1.3623007535934448,0,0,0.8408399820327759
1.295035443,0,0,1.3623007535934448,0,0,0.6879600286483765
1.2962853380000001,0,0,1.3623007535934448,0,0,0.9937199950218201
1.297535417,0,0,1.3623007535934448,0,0,0.9172800183296204
1.298785256,0,0,1.45806884765625,0,0,0.611519992351532
1.300035318,0,0,1.45806884765625,0,0,0.9172800183296204
1.301285342,0,0,1.45806884765625,0,0,0.7644000053405762
1.3025354949999999,0,0,1.45806884765625,0,0,0.9937199950218201
1.303785371,0,0,1.45806884765625,0,0,0.9172800183296204
1.3050353399999999,0,0,1.45806884765625,0,0,0.9172800183296204
1.306285401,0,0,1.45806884765625,0,0,0.9937199950218201
1.307535295,0,0,1.3287819623947144,0,0,0.7644000053405762
1.3087856709999999,0,0,1.3287819623947144,0,0,0.9172800183296204
1.3100353249999999,0,0,1.3287819623947144,0,0,1.070159912109375
1.311285738,0,0,1.3287819623947144,0,0,0.9172800183296204
1.312535799,0,0,1.3287819623947144,0,0,0.8408399820327759
1.3137855090000001,0,0,1.3287819623947144,0,0,0.9172800183296204
1.315035551,0,0,1.3287819623947144,0,0,1.070159912109375
1.31628552,0,0,1.3287819623947144,0,0,0.8408399820327759
1.317538044,0,0,1.4293384552001953,0,0,0.6879600286483765
1.318785531,0,0,1.4293384552001953,0,0,0.3822000026702881
1.320035425,0,0,1.4293384552001953,0,0,0.6879600286483765
1.3212853199999999,0,0,1.4293384552001953,0,0,0.9937199950218201
1.322536492,0,0,1.4293384552001953,0,0,0.8408399820327759
1.323785238,0,0,1.4293384552001953,0,0,0.9172800183296204
1.325035559,0,0,1.4293384552001953,0,0,0.8408399820327759
1.326285194,0,0,1.4437036514282227,0,0,1.1466000080108643
1.327535162,0,0,1.4437036514282227,0,0,1.070159912109375
1.328785372,0,0,1.4437036514282227,0,0,0.6879600286483765
1.3300354140000001,0,0,1.4437036514282227,0,0,0.4586400091648102
1.331285531,0,0,1.4437036514282227,0,0,0.305759996175766
1.332535314,0,0,1.4437036514282227,0,0,1.1466000080108643
1.333785209,0,0,1.4437036514282227,0,0,0.7644000053405762
1.335035326,0,0,1.5059528350830078,0,0,0.9937199950218201
1.33628522,0,0,1.5059528350830078,0,0,1.070159912109375
1.337550337,0,0,1.5059528350830078,0,0,0.6879600286483765
1.33878775,0,0,1.5059528350830078,0,0,1.070159912109375
1.340036237,0,0,1.5059528350830078,0,0,0.7644000053405762
1.341285576,0,0,1.5059528350830078,0,0,1.070159912109375
1.342535229,0,0,1.5059528350830078,0,0,1.070159912109375
1.3437949200000001,0,0,1.5466543436050415,0,0,0.8408399820327759
1.345057685,0,0,1.5466543436050415,0,0,0.611519992351532
1.346287987,0,0,1.5466543436050415,0,0,0.9937199950218201
1.347535659,0,0,1.5466543436050415,0,0,0.6879600286483765
1.348807905,0,0,1.5466543436050415,0,0,0.7644000053405762
1.3500834290000001,0,0,1.5466543436050415,0,0,0.6879600286483765
1.35131375,0,0,1.5466543436050415,0,0,0.8408399820327759
1.352536996,0,0,1.5466543436050415,0,0,0.3822000026702881
1.353789557,0,0,1.5107412338256836,0,0,0.6879600286483765
1.355036267,0,0,1.5107412338256836,0,0,0.9937199950218201
1.356290161,0,0,1.5107412338256836,0,0,0.5350799560546875
1.357535667,0,0,1.5107412338256836,0,0,0.7644000053405762
1.358785561,0,0,1.5107412338256836,0,0,0.9172800183296204
1.360035326,0,0,1.5107412338256836,0,0,0.9172800183296204
1.36128572,0,0,1.5107412338256836,0,0,0.611519992351532
1.362562781,0,0,1.577778935432434,0,0,0.9172800183296204
1.363813472,0,0,1.577778935432434,0,0,0.152879998087883
1.365037793,0,0,1.577778935432434,0,0,0.7644000053405762
1.366284391,0,0,1.577778935432434,0,0,0.6879600286483765
1.367537119,0,0,1.577778935432434,0,0,0.7644000053405762
1.368784828,0,0,1.577778935432434,0,0,0.9937199950218201
1.370034185,0,0,1.577778935432434,0,0,0.5350799560546875
1.371283839,0,0,1.4772224426269531,0,0,0.8408399820327759
1.372534326,0,0,1.4772224426269531,0,0,0.9172800183296204
1.373784128,0,0,1.4772224426269531,0,0,1.2994799613952637
1.375035171,0,0,1.4772224426269531,0,0,0.7644000053405762
1.376285047,0,0,1.4772224426269531,0,0,1.070159912109375
1.3775340520000001,0,0,1.4772224426269531,0,0,0.8408399820327759
1.378784317,0,0,1.4772224426269531,0,0,0.9937199950218201
1.380034063,0,0,1.3263877630233765,0,0,0.611519992351532
1.38128418,0,0,1.3263877630233765,0,0,0.7644000053405762
1.382536926,0,0,1.3263877630233765,0,0,0.611519992351532
1.38378558,0,0,1.3263877630233765,0,0,0.611519992351532
1.385035475,0,0,1.3263877630233765,0,0,0.3822000026702881
1.386285406,0,0,1.3263877630233765,0,0,0.611519992351532
1.387535393,0,0,1.3263877630233765,0,0,0.9937199950218201
1.388785269,0,0,1.3263877630233765,0,0,0.611519992351532
1.390035349,0,0,1.3694833517074585,0,0,0.6879600286483765
1.391285299,0,0,1.3694833517074585,0,0,1.1466000080108643
1.392535045,0,0,1.3694833517074585,0,0,0.9172800183296204
1.393785217,0,0,1.3694833517074585,0,0,0.611519992351532
1.395040075,0,0,1.3694833517074585,0,0,1.070159912109375
1.396286117,0,0,1.3694833517074585,0,0,0.7644000053405762
1.397535419,0,0,1.3694833517074585,0,0,1.1466000080108643
1.398785369,0,0,1.3910311460494995,0,0,0.7644000053405762
1.40003519,0,0,1.3910311460494995,0,0,0.9937199950218201
1.401285288,0,0,1.3910311460494995,0,0,0.8408399820327759
1.402535238,0,0,1.3910311460494995,0,0,1.1466000080108643
1.403785299,0,0,1.3910311460494995,0,0,0.8408399820327759
1.405035101,0,0,1.3910311460494995,0,0,0.8408399820327759
1.40628518,0,0,1.3910311460494995,0,0,0.4586400091648102
1.407535056,0,0,1.314416766166687,0,0,0.7644000053405762
1.408785229,0,0,1.314416766166687,0,0,0.9172800183296204
1.41003516,0,0,1.314416766166687,0,0,0.8408399820327759
1.411285203,0,0,1.314416766166687,0,0,1.223039984703064
1.412535171,0,0,1.314416766166687,0,0,0.5350799560546875
1.413785195,0,0,1.314416766166687,0,0,0.7644000053405762
1.415035386,0,0,1.314416766166687,0,0,0.6879600286483765
1.416285336,0,0,1.2665326595306396,0,0,0.9937199950218201
1.417552416,0,0,1.2665326595306396,0,0,0.2293200045824051
1.418788033,0,0,1.2665326595306396,0,0,0.9172800183296204
1.420035631,0,0,1.2665326595306396,0,0,0.9172800183296204
1.42128534,0,0,1.2665326595306396,0,0,0.9172800183296204
1.422536809,0,0,1.2665326595306396,0,0,0.7644000053405762
1.42378511,0,0,1.2665326595306396,0,0,0.8408399820327759
1.425035227,0,0,1.2665326595306396,0,0,1.070159912109375
1.426285047,0,0,1.4053963422775269,0,0,0.6879600286483765
1.4275352940000001,0,0,1.4053963422775269,0,0,0.5350799560546875
1.428786003,0,0,1.4053963422775269,0,0,0.8408399820327759
1.430035323,0,0,1.4053963422775269,0,0,0.7644000053405762
1.431285329,0,0,1.4053963422775269,0,0,1.070159912109375
1.432535112,0,0,1.4053963422775269,0,0,1.070159912109375
1.433788859,0,0,1.4053963422775269,0,0,0.9172800183296204
1.435035568,0,0,1.4724340438842773,0,0,0.6879600286483765
1.436285166,0,0,1.4724340438842773,0,0,0.5350799560546875
1.437535153,0,0,1.4724340438842773,0,0,0.6879600286483765
1.438788251,0,0,1.4724340438842773,0,0,0.9172800183296204
1.4400524049999999,0,0,1.4724340438842773,0,0,0.8408399820327759
1.441301188,0,0,1.4724340438842773,0,0,1.070159912109375
1.442537231,0,0,1.4724340438842773,0,0,0.9172800183296204
1.443785866,0,0,1.5466543436050415,0,0,0.8408399820327759
1.445035576,0,0,1.5466543436050415,0,0,0.6879600286483765
1.446285155,0,0,1.5466543436050415,0,0,0.9937199950218201
1.447549679,0,0,1.5466543436050415,0,0,0.611519992351532
1.448796944,0,0,1.5466543436050415,0,0,0.9937199950218201
1.450062264,0,0,1.5466543436050415,0,0,0.6879600286483765
1.451288752,0,0,1.5466543436050415,0,0,0.6879600286483765
1.452535183,0,0,1.5418659448623657,0,0,0.7644000053405762
1.453785096,0,0,1.5418659448623657,0,0,0.7644000053405762
1.45503525,0,0,1.5418659448623657,0,0,0.8408399820327759
1.456285274,0,0,1.5418659448623657,0,0,0.9172800183296204
1.457535131,0,0,1.5418659448623657,0,0,0.8408399820327759
1.458785267,0,0,1.5418659448623657,0,0,0.8408399820327759
1.4600363459999999,0,0,1.5418659448623657,0,0,0.9172800183296204
1.461285278,0,0,1.5849615335464478,0,0,0.8408399820327759
1.462536617,0,0,1.5849615335464478,0,0,0.9172800183296204
1.463785344,0,0,1.5849615335464478,0,0,0.8408399820327759
1.465035054,0,0,1.5849615335464478,0,0,0.7644000053405762
1.4662853,0,0,1.5849615335464478,0,0,0.7644000053405762
1.467535195,0,0,1.5849615335464478,0,0,0.5350799560546875
1.468785145,0,0,1.5849615335464478,0,0,0.9172800183296204
1.4700351870000001,0,0,1.5490485429763794,0,0,0.9172800183296204
1.471285378,0,0,1.5490485429763794,0,0,0.3822000026702881
1.472539883,0,0,1.5490485429763794,0,0,0.7644000053405762
1.473785611,0,0,1.5490485429763794,0,0,0.611519992351532
1.475039617,0,0,1.5490485429763794,0,0,0.6879600286483765
1.476286456,0,0,1.5490485429763794,0,0,0.8408399820327759
1.477535517,0,0,1.5490485429763794,0,0,0.6879600286483765
1.478785319,0,0,1.5490485429763794,0,0,0.8408399820327759
1.48003538,0,0,1.3024457693099976,0,0,0.6879600286483765
1.481285237,0,0,1.3024457693099976,0,0,0.9172800183296204
1.482535687,0,0,1.3024457693099976,0,0,0.6879600286483765
1.483785119,0,0,1.3024457693099976,0,0,1.070159912109375
1.485035124,0,0,1.3024457693099976,0,0,0.9172800183296204
1.486285186,0,0,1.3024457693099976,0,0,0.9172800183296204
1.487535191,0,0,1.3024457693099976,0,0,0.9172800183296204
1.48878516,0,0,1.3000515699386597,0,0,0.8408399820327759
1.490035202,0,0,1.3000515699386597,0,0,0.6879600286483765
1.491285671,0,0,1.3000515699386597,0,0,0.611519992351532
1.49253575,0,0,1.3000515699386597,0,0,1.070159912109375
1.493785404,0,0,1.3000515699386597,0,0,0.8408399820327759
1.495035225,0,0,1.3000515699386597,0,0,0.9172800183296204
1.496285064,0,0,1.3000515699386597,0,0,0.9937199950218201
1.497535088,0,0,1.3527239561080933,0,0,1.1466000080108643
1.498785112,0,0,1.3527239561080933,0,0,0.9172800183296204
1.500035284,0,0,1.3527239561080933,0,0,0.611519992351532
1.501285067,0,0,1.3527239561080933,0,0,0.8408399820327759
1.5025349989999999,0,0,1.3527239561080933,0,0,0.611519992351532
1.503785412,0,0,1.3527239561080933,0,0,0.5350799560546875
1.505035269,0,0,1.3527239561080933,0,0,0.6879600286483765
1.506285034,0,0,1.3503297567367554,0,0,0.7644000053405762
1.5075355030000002,0,0,1.3503297567367554,0,0,0.9937199950218201
1.508785138,0,0,1.3503297567367554,0,0,0.6879600286483765
1.510035143,0,0,1.3503297567367554,0,0,0.6879600286483765
1.511296778,0,0,1.3503297567367554,0,0,0.9172800183296204
1.512557173,0,0,1.3503297567367554,0,0,0.6879600286483765
1.51379379,0,0,1.3503297567367554,0,0,1.2994799613952637
1.515073388,0,0,1.479616641998291,0,0,0.6879600286483765
1.516313023,0,0,1.479616641998291,0,0,0.611519992351532
1.517537029,0,0,1.479616641998291,0,0,0.7644000053405762
1.518785849,0,0,1.479616641998291,0,0,0.9937199950218201
1.520035207,0,0,1.479616641998291,0,0,0.8408399820327759
1.521303342,0,0,1.479616641998291,0,0,0.9172800183296204
1.522558273,0,0,1.479616641998291,0,0,0.7644000053405762
1.523800705,0,0,1.479616641998291,0,0,0.5350799560546875
1.525036247,0,0,1.4939818382263184,0,0,0.9172800183296204
1.5262853079999998,0,0,1.4939818382263184,0,0,0.7644000053405762
1.527567332,0,0,1.4939818382263184,0,0,0.9172800183296204
1.528794523,0,0,1.4939818382263184,0,0,0.8408399820327759
1.530047047,0,0,1.4939818382263184,0,0,0.8408399820327759
1.531286534,0,0,1.4939818382263184,0,0,0.7644000053405762
1.532535707,0,0,1.4939818382263184,0,0,0.7644000053405762
1.533786101,0,0,1.6089035272598267,0,0,0.6879600286483765
1.535061329,0,0,1.6089035272598267,0,0,0.611519992351532
1.5362921859999998,0,0,1.6089035272598267,0,0,0.5350799560546875
1.5375397290000001,0,0,1.6089035272598267,0,0,0.8408399820327759
1.5387861790000001,0,0,1.6089035272598267,0,0,0.9172800183296204
1.540066166,0,0,1.6089035272598267,0,0,0.7644000053405762
1.5413299679999999,0,0,1.6089035272598267,0,0,0.7644000053405762
1.5425457329999999,0,0,1.5753847360610962,0,0,0.6879600286483765
1.5437947570000001,0,0,1.5753847360610962,0,0,0.8408399820327759
1.545036188,0,0,1.5753847360610962,0,0,0.6879600286483765
1.546287435,0,0,1.5753847360610962,0,0,0.9937199950218201
1.547561588,0,0,1.5753847360610962,0,0,0.9172800183296204
1.548789594,0,0,1.5753847360610962,0,0,0.9172800183296204
1.550050599,0,0,1.5753847360610962,0,0,0.611519992351532
1.551286698,0,0,1.4867992401123047,0,0,0.611519992351532
1.5525683510000001,0,0,1.4867992401123047,0,0,0.9172800183296204
1.553806542,0,0,1.4867992401123047,0,0,0.8408399820327759
1.5550532879999999,0,0,1.4867992401123047,0,0,0.4586400091648102
1.5563064610000001,0,0,1.4867992401123047,0,0,0.6879600286483765
1.557557281,0,0,1.4867992401123047,0,0,0.9937199950218201
1.55879962,0,0,1.4867992401123047,0,0,0.7644000053405762
1.5600365520000001,0,0,1.6328455209732056,0,0,0.8408399820327759
1.561285594,0,0,1.6328455209732056,0,0,0.611519992351532
1.562535692,0,0,1.6328455209732056,0,0,1.070159912109375
1.563818327,0,0,1.6328455209732056,0,0,0.9172800183296204
1.5650456849999999,0,0,1.6328455209732056,0,0,0.7644000053405762
1.566298802,0,0,1.6328455209732056,0,0,0.9172800183296204
1.5675366039999998,0,0,1.6328455209732056,0,0,0.6879600286483765
1.5687851830000001,0,0,1.5203180313110352,0,0,0.5350799560546875
1.5700352629999998,0,0,1.5203180313110352,0,0,0.5350799560546875
1.571285231,0,0,1.5203180313110352,0,0,0.9172800183296204
1.572535459,0,0,1.5203180313110352,0,0,1.1466000080108643
1.573785298,0,0,1.5203180313110352,0,0,0.9172800183296204
1.575054118,0,0,1.5203180313110352,0,0,0.6879600286483765
1.576303309,0,0,1.5203180313110352,0,0,0.611519992351532
1.577581296,0,0,1.5203180313110352,0,0,0.611519992351532
1.578846709,0,0,1.3766659498214722,0,0,0.8408399820327759
1.580101899,0,0,1.3766659498214722,0,0,0.5350799560546875
1.5813363310000002,0,0,1.3766659498214722,0,0,0.8408399820327759
1.5825818740000002,0,0,1.3766659498214722,0,0,0.6879600286483765
1.583832028,0,0,1.3766659498214722,0,0,1.070159912109375
1.585058959,0,0,1.3766659498214722,0,0,0.611519992351532
1.586301446,0,0,1.3766659498214722,0,0,0.611519992351532
1.587580026,0,0,1.4053963422775269,0,0,0.7644000053405762
1.5888203650000001,0,0,1.4053963422775269,0,0,0.9172800183296204
1.590038797,0,0,1.4053963422775269,0,0,0.305759996175766
1.591287247,0,0,1.4053963422775269,0,0,0.8408399820327759
1.592561159,0,0,1.4053963422775269,0,0,0.8408399820327759
1.593821054,0,0,1.4053963422775269,0,0,0.8408399820327759
1.595063578,0,0,1.4053963422775269,0,0,0.9937199950218201
1.5962888240000002,0,0,1.2689268589019775,0,0,0.5350799560546875
1.597535886,0,0,1.2689268589019775,0,0,0.9937199950218201
1.598799447,0,0,1.2689268589019775,0,0,0.4586400091648102
1.6000861560000001,0,0,1.2689268589019775,0,0,0.9172800183296204
1.601344513,0,0,1.2689268589019775,0,0,0.611519992351532
1.602568778,0,0,1.2689268589019775,0,0,0.5350799560546875
1.603787451,0,0,1.2689268589019775,0,0,0.9172800183296204
1.6050354009999999,0,0,1.2617442607879639,0,0,0.8408399820327759
1.606285295,0,0,1.2617442607879639,0,0,0.8408399820327759
1.607535504,0,0,1.2617442607879639,0,0,0.611519992351532
1.608785103,0,0,1.2617442607879639,0,0,0.6879600286483765
1.610035275,0,0,1.2617442607879639,0,0,0.611519992351532
1.6113140019999999,0,0,1.2617442607879639,0,0,1.223039984703064
1.61257436,0,0,1.2617442607879639,0,0,0.9172800183296204
1.613813254,0,0,1.4293384552001953,0,0,0.7644000053405762
1.615040112,0,0,1.4293384552001953,0,0,0.7644000053405762
1.616291469,0,0,1.4293384552001953,0,0,0.9172800183296204
1.617554086,0,0,1.4293384552001953,0,0,0.9172800183296204
1.618788517,0,0,1.4293384552001953,0,0,0.611519992351532
1.6200360969999998,0,0,1.4293384552001953,0,0,0.7644000053405762
1.62128564,0,0,1.4293384552001953,0,0,0.5350799560546875
1.6225356450000001,0,0,1.4963760375976563,0,0,1.070159912109375
1.623785466,0,0,1.4963760375976563,0,0,0.9172800183296204
1.6250355079999999,0,0,1.4963760375976563,0,0,0.8408399820327759
1.626285607,0,0,1.4963760375976563,0,0,0.8408399820327759
1.627540279,0,0,1.4963760375976563,0,0,0.8408399820327759
1.628785562,0,0,1.4963760375976563,0,0,0.9937199950218201
1.630052864,0,0,1.4963760375976563,0,0,0.8408399820327759
1.631287832,0,0,1.4963760375976563,0,0,0.5350799560546875
1.632536505,0,0,1.556231141090393,0,0,0.6879600286483765
1.633810121,0,0,1.556231141090393,0,0,0.4586400091648102
1.635038534,0,0,1.556231141090393,0,0,0.8408399820327759
1.6362859840000001,0,0,1.556231141090393,0,0,0.9937199950218201
1.637552119,0,0,1.556231141090393,0,0,0.9937199950218201
1.6387876810000002,0,0,1.556231141090393,0,0,0.9937199950218201
1.640035723,0,0,1.556231141090393,0,0,0.9172800183296204
1.641285544,0,0,1.5442601442337036,0,0,0.611519992351532
1.642536753,0,0,1.5442601442337036,0,0,0.6879600286483765
1.643785259,0,0,1.5442601442337036,0,0,0.8408399820327759
1.645035523,0,0,1.5442601442337036,0,0,0.611519992351532
1.6462850850000001,0,0,1.5442601442337036,0,0,0.6879600286483765
1.647535183,0,0,1.5442601442337036,0,0,0.8408399820327759
1.6487852250000001,0,0,1.5442601442337036,0,0,0.9172800183296204
1.65003525,0,0,1.4844050407409668,0,0,0.7644000053405762
1.651285255,0,0,1.4844050407409668,0,0,0.7644000053405762
1.652535168,0,0,1.4844050407409668,0,0,0.4586400091648102
1.6537851369999998,0,0,1.4844050407409668,0,0,0.4586400091648102
1.655036105,0,0,1.4844050407409668,0,0,0.5350799560546875
1.656285314,0,0,1.4844050407409668,0,0,0.8408399820327759
1.657535283,0,0,1.4844050407409668,0,0,0.9937199950218201
1.6587852889999999,0,0,1.601720929145813,0,0,0.8408399820327759
1.660035405,0,0,1.601720929145813,0,0,0.9172800183296204
1.661285355,0,0,1.601720929145813,0,0,0.9172800183296204
1.662536416,0,0,1.601720929145813,0,0,0.5350799560546875
1.663794311,0,0,1.601720929145813,0,0,0.611519992351532
1.665035983,0,0,1.601720929145813,0,0,1.1466000080108643
1.66629084,0,0,1.601720929145813,0,0,0.305759996175766
1.667535661,0,0,1.5466543436050415,0,0,1.1466000080108643
1.668785167,0,0,1.5466543436050415,0,0,0.611519992351532
1.670035209,0,0,1.5466543436050415,0,0,0.9937199950218201
1.6712852329999999,0,0,1.5466543436050415,0,0,0.9172800183296204
1.672535313,0,0,1.5466543436050415,0,0,1.1466000080108643
1.67378517,0,0,1.5466543436050415,0,0,0.9172800183296204
1.6750352130000001,0,0,1.5466543436050415,0,0,0.7644000053405762
1.676286033,0,0,1.5466543436050415,0,0,0.9172800183296204
1.677535261,0,0,1.4245500564575195,0,0,0.7644000053405762
1.678785322,0,0,1.4245500564575195,0,0,0.9937199950218201
1.6800351980000001,0,0,1.4245500564575195,0,0,0.6879600286483765
1.681285259,0,0,1.4245500564575195,0,0,0.9937199950218201
1.682535561,0,0,1.4245500564575195,0,0,0.7644000053405762
1.6837851590000001,0,0,1.4245500564575195,0,0,0.611519992351532
1.6850351460000002,0,0,1.4245500564575195,0,0,0.6879600286483765
1.6862851330000002,0,0,1.3431471586227417,0,0,0.6879600286483765
1.687535176,0,0,1.3431471586227417,0,0,0.9937199950218201
1.688785163,0,0,1.3431471586227417,0,0,1.1466000080108643
1.690035409,0,0,1.3431471586227417,0,0,0.9172800183296204
1.691285267,0,0,1.3431471586227417,0,0,0.8408399820327759
1.692535124,0,0,1.3431471586227417,0,0,0.8408399820327759
1.69378513,0,0,1.3431471586227417,0,0,0.8408399820327759
1.695035135,0,0,1.2234370708465576,0,0,0.9172800183296204
1.6962859369999999,0,0,1.2234370708465576,0,0,0.6879600286483765
1.697535202,0,0,1.2234370708465576,0,0,0.8408399820327759
1.6987855600000001,0,0,1.2234370708465576,0,0,0.5350799560546875
1.700035121,0,0,1.2234370708465576,0,0,1.1466000080108643
1.7012852189999998,0,0,1.2234370708465576,0,0,0.8408399820327759
1.70253641,0,0,1.2234370708465576,0,0,0.8408399820327759
1.703785212,0,0,1.414973258972168,0,0,0.9937199950218201
1.7050379759999998,0,0,1.414973258972168,0,0,0.6879600286483765
1.7062855749999999,0,0,1.414973258972168,0,0,0.9937199950218201
1.7075351909999998,0,0,1.414973258972168,0,0,0.8408399820327759
1.708785308,0,0,1.414973258972168,0,0,0.9937199950218201
1.710035091,0,0,1.414973258972168,0,0,0.7644000053405762
1.711285226,0,0,1.414973258972168,0,0,1.070159912109375
1.712535288,0,0,1.400607943534851,0,0,0.9172800183296204
1.7137849410000001,0,0,1.400607943534851,0,0,1.1466000080108643
1.715035169,0,0,1.400607943534851,0,0,0.611519992351532
1.716285064,0,0,1.400607943534851,0,0,0.9172800183296204
1.7175507730000001,0,0,1.400607943534851,0,0,0.5350799560546875
1.718787278,0,0,1.400607943534851,0,0,0.4586400091648102
1.720035488,0,0,1.400607943534851,0,0,0.305759996175766
1.721285345,0,0,1.400607943534851,0,0,0.7644000053405762
1.7225351290000002,0,0,1.4676456451416016,0,0,0.9937199950218201
1.72378506,0,0,1.4676456451416016,0,0,0.8408399820327759
1.725035306,0,0,1.4676456451416016,0,0,0.8408399820327759
1.726285238,0,0,1.4676456451416016,0,0,0.8408399820327759
1.727535169,0,0,1.4676456451416016,0,0,0.9937199950218201
1.7287861009999999,0,0,1.4676456451416016,0,0,0.6879600286483765
1.730035143,0,0,1.4676456451416016,0,0,0.9937199950218201
1.7312864270000001,0,0,1.647210717201233,0,0,0.6879600286483765
1.7325353209999999,0,0,1.647210717201233,0,0,0.6879600286483765
1.7337849570000001,0,0,1.647210717201233,0,0,0.5350799560546875
1.735035147,0,0,1.647210717201233,0,0,0.7644000053405762
1.7362850600000002,0,0,1.647210717201233,0,0,0.5350799560546875
1.73753527,0,0,1.647210717201233,0,0,0.5350799560546875
1.738785164,0,0,1.647210717201233,0,0,0.6879600286483765
1.7400351509999998,0,0,1.5945383310317993,0,0,0.6879600286483765
1.7412851379999998,0,0,1.5945383310317993,0,0,0.9172800183296204
1.742536477,0,0,1.5945383310317993,0,0,0.8408399820327759
1.743788483,0,0,1.5945383310317993,0,0,0.7644000053405762
1.745035747,0,0,1.5945383310317993,0,0,0.611519992351532
1.746285049,0,0,1.5945383310317993,0,0,1.223039984703064
1.747535203,0,0,1.5945383310317993,0,0,0.7644000053405762
1.748785098,0,0,1.4724340438842773,0,0,0.7644000053405762
1.7500352700000001,0,0,1.4724340438842773,0,0,0.8408399820327759
1.751285294,0,0,1.4724340438842773,0,0,0.6879600286483765
1.7525352810000001,0,0,1.4724340438842773,0,0,0.5350799560546875
1.753789083,0,0,1.4724340438842773,0,0,0.611519992351532
1.755035329,0,0,1.4724340438842773,0,0,0.6879600286483765
1.7562852420000001,0,0,1.4724340438842773,0,0,1.070159912109375
1.757535303,0,0,1.5682021379470825,0,0,0.5350799560546875
1.758785272,0,0,1.5682021379470825,0,0,0.7644000053405762
1.7600356110000002,0,0,1.5682021379470825,0,0,0.9172800183296204
1.7612860609999998,0,0,1.5682021379470825,0,0,0.5350799560546875
1.762535937,0,0,1.5682021379470825,0,0,0.9937199950218201
1.763785572,0,0,1.5682021379470825,0,0,0.152879998087883
1.765035189,0,0,1.5682021379470825,0,0,0.8408399820327759
1.7662853790000002,0,0,1.3527239561080933,0,0,0.8408399820327759
1.767535385,0,0,1.3527239561080933,0,0,1.070159912109375
1.768785298,0,0,1.3527239561080933,0,0,0.9172800183296204
1.770035192,0,0,1.3527239561080933,0,0,0.9172800183296204
1.7712854569999998,0,0,1.3527239561080933,0,0,0.7644000053405762
1.77253537,0,0,1.3527239561080933,0,0,0.6879600286483765
1.773785079,0,0,1.3527239561080933,0,0,1.223039984703064
1.7750351960000001,0,0,1.3527239561080933,0,0,0.8408399820327759
1.776285202,0,0,1.316810965538025,0,0,1.1466000080108643
1.777535318,0,0,1.316810965538025,0,0,0.8408399820327759
1.778785305,0,0,1.316810965538025,0,0,0.8408399820327759
1.7800352,0,0,1.316810965538025,0,0,0.7644000053405762
1.7812852430000001,0,0,1.316810965538025,0,0,0.9172800183296204
1.78253873,0,0,1.316810965538025,0,0,0.611519992351532
1.783785624,0,0,1.316810965538025,0,0,0.611519992351532
1.785035259,0,0,1.3982137441635132,0,0,0.4586400091648102
1.786285098,0,0,1.3982137441635132,0,0,1.1466000080108643
1.787535104,0,0,1.3982137441635132,0,0,0.9937199950218201
1.7887852020000001,0,0,1.3982137441635132,0,0,0.7644000053405762
1.7900353,0,0,1.3982137441635132,0,0,0.7644000053405762
1.791284991,0,0,1.3982137441635132,0,0,0.7644000053405762
1.792535682,0,0,1.3982137441635132,0,0,0.7644000053405762
1.793785206,0,0,1.3311761617660522,0,0,0.6879600286483765
1.795035471,0,0,1.3311761617660522,0,0,1.223039984703064
1.796285069,0,0,1.3311761617660522,0,0,0.6879600286483765
1.797535222,0,0,1.3311761617660522,0,0,0.9937199950218201
1.798785284,0,0,1.3311761617660522,0,0,0.9937199950218201
1.800035382,0,0,1.3311761617660522,0,0,0.8408399820327759
1.801285424,0,0,1.3311761617660522,0,0,0.7644000053405762
1.802535356,0,0,1.4460978507995605,0,0,0.8408399820327759
1.8037853240000001,0,0,1.4460978507995605,0,0,0.9937199950218201
1.805035237,0,0,1.4460978507995605,0,0,0.8408399820327759
1.806285243,0,0,1.4460978507995605,0,0,1.070159912109375
1.807535137,0,0,1.4460978507995605,0,0,0.8408399820327759
1.8087853649999999,0,0,1.4460978507995605,0,0,1.2994799613952637
1.8100351670000001,0,0,1.4460978507995605,0,0,0.6879600286483765
1.8112852099999999,0,0,1.50355863571167,0,0,0.9172800183296204
1.8125354,0,0,1.50355863571167,0,0,1.070159912109375
1.813785239,0,0,1.50355863571167,0,0,0.6879600286483765
1.8150353190000001,0,0,1.50355863571167,0,0,0.5350799560546875
1.816285269,0,0,1.50355863571167,0,0,0.8408399820327759
1.817535367,0,0,1.50355863571167,0,0,0.5350799560546875
1.8187851689999999,0,0,1.50355863571167,0,0,0.611519992351532
1.820035286,0,0,1.50355863571167,0,0,0.611519992351532
1.821287273,0,0,1.5634137392044067,0,0,0.6879600286483765
1.822535408,0,0,1.5634137392044067,0,0,0.611519992351532
1.823785803,0,0,1.5634137392044067,0,0,0.6879600286483765
1.825042678,0,0,1.5634137392044067,0,0,1.070159912109375
1.826286332,0,0,1.5634137392044067,0,0,0.5350799560546875
1.827535245,0,0,1.5634137392044067,0,0,1.070159912109375
1.8287851210000001,0,0,1.5634137392044067,0,0,0.6879600286483765
1.830035256,0,0,1.6855180263519287,0,0,0.8408399820327759
1.831285262,0,0,1.6855180263519287,0,0,0.9172800183296204
1.832535101,0,0,1.6855180263519287,0,0,0.7644000053405762
1.83378518,0,0,1.6855180263519287,0,0,0.6879600286483765
1.8350350930000001,0,0,1.6855180263519287,0,0,0.8408399820327759
1.836285081,0,0,1.6855180263519287,0,0,0.4586400091648102
1.837534993,0,0,1.6855180263519287,0,0,0.611519992351532
1.838785055,0,0,1.6208745241165161,0,0,0.9172800183296204
1.840035079,0,0,1.6208745241165161,0,0,0.7644000053405762
1.841285214,0,0,1.6208745241165161,0,0,0.8408399820327759
1.842535182,0,0,1.6208745241165161,0,0,0.7644000053405762
1.843785262,0,0,1.6208745241165161,0,0,1.070159912109375
1.845035379,0,0,1.6208745241165161,0,0,0.8408399820327759
1.8462852920000001,0,0,1.6208745241165161,0,0,0.8408399820327759
1.8475351309999999,0,0,1.599326729774475,0,0,0.7644000053405762
1.848785099,0,0,1.599326729774475,0,0,0.7644000053405762
1.85003516,0,0,1.599326729774475,0,0,0.3822000026702881
1.8513156290000001,0,0,1.599326729774475,0,0,0.611519992351532
1.852583578,0,0,1.599326729774475,0,0,0.8408399820327759
1.853808029,0,0,1.599326729774475,0,0,0.8408399820327759
1.855037035,0,0,1.599326729774475,0,0,0.6879600286483765
1.856286096,0,0,1.522712230682373,0,0,0.611519992351532
1.8575355089999999,0,0,1.522712230682373,0,0,0.9172800183296204
1.858786255,0,0,1.522712230682373,0,0,0.6879600286483765
1.860040668,0,0,1.522712230682373,0,0,0.9172800183296204
1.861285433,0,0,1.522712230682373,0,0,0.9172800183296204
1.8625354010000001,0,0,1.522712230682373,0,0,1.1466000080108643
1.863785425,0,0,1.522712230682373,0,0,0.6879600286483765
1.8650352639999999,0,0,1.292868971824646,0,0,0.8408399820327759
1.8662854,0,0,1.292868971824646,0,0,0.5350799560546875
1.867535387,0,0,1.292868971824646,0,0,0.9172800183296204
1.8687852999999999,0,0,1.292868971824646,0,0,0.7644000053405762
1.8700352869999999,0,0,1.292868971824646,0,0,0.7644000053405762
1.871285366,0,0,1.292868971824646,0,0,1.223039984703064
1.872535224,0,0,1.292868971824646,0,0,0.611519992351532
1.8737852849999999,0,0,1.292868971824646,0,0,1.070159912109375
1.8750371239999999,0,0,1.3862427473068237,0,0,0.8408399820327759
1.8763036849999999,0,0,1.3862427473068237,0,0,1.070159912109375
1.877537024,0,0,1.3862427473068237,0,0,0.8408399820327759
1.878785326,0,0,1.3862427473068237,0,0,0.9172800183296204
1.8800352569999998,0,0,1.3862427473068237,0,0,0.7644000053405762
1.8812850220000001,0,0,1.3862427473068237,0,0,0.7644000053405762
1.8825354349999999,0,0,1.3862427473068237,0,0,0.305759996175766
1.883799403,0,0,1.4460978507995605,0,0,0.8408399820327759
1.8850822790000001,0,0,1.4460978507995605,0,0,0.9937199950218201
1.886310748,0,0,1.4460978507995605,0,0,0.9172800183296204
1.8875435870000001,0,0,1.4460978507995605,0,0,0.9172800183296204
1.888786611,0,0,1.4460978507995605,0,0,0.8408399820327759
1.890035431,0,0,1.4460978507995605,0,0,0.8408399820327759
1.891285326,0,0,1.4460978507995605,0,0,0.9172800183296204
1.892535628,0,0,1.3455413579940796,0,0,1.070159912109375
1.893785263,0,0,1.3455413579940796,0,0,0.9172800183296204
1.8950352320000001,0,0,1.3455413579940796,0,0,0.8408399820327759
1.8962852369999998,0,0,1.3455413579940796,0,0,1.1466000080108643
1.8975776130000002,0,0,1.3455413579940796,0,0,1.1466000080108643
1.898825933,0,0,1.3455413579940796,0,0,0.8408399820327759
1.9000647160000002,0,0,1.3455413579940796,0,0,0.7644000053405762
1.901288648,0,0,1.400607943534851,0,0,0.611519992351532
1.902535784,0,0,1.400607943534851,0,0,0.611519992351532
1.903785308,0,0,1.400607943534851,0,0,0.4586400091648102
1.905046591,0,0,1.400607943534851,0,0,0.8408399820327759
1.9062863559999998,0,0,1.400607943534851,0,0,1.223039984703064
1.907535528,0,0,1.400607943534851,0,0,0.4586400091648102
1.908786552,0,0,1.400607943534851,0,0,1.070159912109375
1.910035261,0,0,1.4772224426269531,0,0,0.611519992351532
1.911285211,0,0,1.4772224426269531,0,0,0.8408399820327759
1.912535032,0,0,1.4772224426269531,0,0,0.5350799560546875
1.913785241,0,0,1.4772224426269531,0,0,0.611519992351532
1.915058228,0,0,1.4772224426269531,0,0,0.305759996175766
1.9163278259999998,0,0,1.4772224426269531,0,0,0.9172800183296204
1.917566276,0,0,1.4772224426269531,0,0,0.5350799560546875
1.918788671,0,0,1.4987702369689941,0,0,0.7644000053405762
1.920036584,0,0,1.4987702369689941,0,0,1.070159912109375
1.921285386,0,0,1.4987702369689941,0,0,0.7644000053405762
1.922535613,0,0,1.4987702369689941,0,0,0.9937199950218201
1.923785286,0,0,1.4987702369689941,0,0,0.611519992351532
1.9250351430000001,0,0,1.4987702369689941,0,0,0.9937199950218201
1.926285427,0,0,1.4987702369689941,0,0,0.8408399820327759
1.927535247,0,0,1.6543933153152466,0,0,1.1466000080108643
1.928785234,0,0,1.6543933153152466,0,0,0.7644000053405762
1.930035036,0,0,1.6543933153152466,0,0,0.9172800183296204
1.93128543,0,0,1.6543933153152466,0,0,0.9172800183296204
1.932558954,0,0,1.6543933153152466,0,0,0.7644000053405762
1.9338218299999999,0,0,1.6543933153152466,0,0,0.6879600286483765
1.935063891,0,0,1.6543933153152466,0,0,0.6879600286483765
1.936288601,0,0,1.6543933153152466,0,0,0.8408399820327759
1.9375575139999999,0,0,1.5155296325683594,0,0,0.7644000053405762
1.938789927,0,0,1.5155296325683594,0,0,0.9937199950218201
1.94003584,0,0,1.5155296325683594,0,0,0.9172800183296204
1.941285605,0,0,1.5155296325683594,0,0,0.8408399820327759
1.942536684,0,0,1.5155296325683594,0,0,0.8408399820327759
1.943785412,0,0,1.5155296325683594,0,0,0.8408399820327759
1.9450353059999999,0,0,1.5155296325683594,0,0,0.611519992351532
1.946285238,0,0,1.5825673341751099,0,0,0.7644000053405762
1.947535336,0,0,1.5825673341751099,0,0,0.3822000026702881
1.9487851379999999,0,0,1.5825673341751099,0,0,0.611519992351532
1.950042125,0,0,1.5825673341751099,0,0,0.7644000053405762
1.951293908,0,0,1.5825673341751099,0,0,0.9172800183296204
1.9525373400000001,0,0,1.5825673341751099,0,0,0.6879600286483765
1.953788457,0,0,1.5825673341751099,0,0,0.8408399820327759
1.955035481,0,0,1.460463047027588,0,0,0.7644000053405762
1.956285486,0,0,1.460463047027588,0,0,0.9172800183296204
1.957535399,0,0,1.460463047027588,0,0,1.2994799613952637
1.958785405,0,0,1.460463047027588,0,0,0.611519992351532
1.960035466,0,0,1.460463047027588,0,0,0.9937199950218201
1.9612852859999999,0,0,1.460463047027588,0,0,0.7644000053405762
1.9625354590000001,0,0,1.460463047027588,0,0,0.9172800183296204
1.963785353,0,0,1.280897855758667,0,0,0.611519992351532
1.965035507,0,0,1.280897855758667,0,0,0.9172800183296204
1.9662938460000001,0,0,1.280897855758667,0,0,0.6879600286483765
1.967560666,0,0,1.280897855758667,0,0,0.6879600286483765
1.968806468,0,0,1.280897855758667,0,0,0.4586400091648102
1.970055233,0,0,1.280897855758667,0,0,0.611519992351532
1.9713087379999998,0,0,1.280897855758667,0,0,0.7644000053405762
1.972556929,0,0,1.3407529592514038,0,0,0.8408399820327759
1.973810897,0,0,1.3407529592514038,0,0,0.8408399820327759
1.975059385,0,0,1.3407529592514038,0,0,0.9172800183296204
1.976318797,0,0,1.3407529592514038,0,0,0.6879600286483765
1.977579784,0,0,1.3407529592514038,0,0,0.7644000053405762
1.978829827,0,0,1.3407529592514038,0,0,1.375920057296753
1.980084684,0,0,1.3407529592514038,0,0,0.8408399820327759
1.981314968,0,0,1.3407529592514038,0,0,0.8408399820327759
1.982595399,0,0,1.2689268589019775,0,0,1.1466000080108643
1.98383859,0,0,1.2689268589019775,0,0,0.7644000053405762
1.985093392,0,0,1.2689268589019775,0,0,0.9172800183296204
1.986322472,0,0,1.2689268589019775,0,0,0.8408399820327759
1.987567885,0,0,1.2689268589019775,0,0,0.9172800183296204
1.9888302420000001,0,0,1.2689268589019775,0,0,0.8408399820327759
1.9900536,0,0,1.2689268589019775,0,0,0.9937199950218201
1.991287828,0,0,1.3287819623947144,0,0,0.7644000053405762
1.9925346670000001,0,0,1.3287819623947144,0,0,0.9937199950218201
1.993784302,0,0,1.3287819623947144,0,0,0.5350799560546875
1.995035363,0,0,1.3287819623947144,0,0,1.1466000080108643
1.9962842570000001,0,0,1.3287819623947144,0,0,0.8408399820327759
1.997534226,0,0,1.3287819623947144,0,0,0.8408399820327759
1.9987848430000001,0,0,1.3287819623947144,0,0,0.4586400091648102
2.000034126,0,0,1.4532804489135742,0,0,0.6879600286483765
2.001284076,0,0,1.4532804489135742,0,0,0.6879600286483765
2.002539859,0,0,1.4532804489135742,0,0,0.8408399820327759
2.003784717,0,0,1.4532804489135742,0,0,1.223039984703064
2.005041519,0,0,1.4532804489135742,0,0,0.6879600286483765
2.006284561,0,0,1.4532804489135742,0,0,0.8408399820327759
2.007535067,0,0,1.4532804489135742,0,0,0.9172800183296204
2.008784202,0,0,1.5275006294250488,0,0,0.7644000053405762
2.010034152,0,0,1.5275006294250488,0,0,0.5350799560546875
2.011288658,0,0,1.5275006294250488,0,0,0.7644000053405762
2.012534645,0,0,1.5275006294250488,0,0,0.8408399820327759
2.013784169,0,0,1.5275006294250488,0,0,1.070159912109375
2.015040119,0,0,1.5275006294250488,0,0,0.9172800183296204
2.016284532,0,0,1.5275006294250488,0,0,1.223039984703064
2.017552371,0,0,1.5394717454910278,0,0,0.9937199950218201
2.018787821,0,0,1.5394717454910278,0,0,0.9172800183296204
2.020034826,0,0,1.5394717454910278,0,0,0.6879600286483765
2.021284054,0,0,1.5394717454910278,0,0,0.9172800183296204
2.022534541,0,0,1.5394717454910278,0,0,0.7644000053405762
2.023784325,0,0,1.5394717454910278,0,0,0.7644000053405762
2.025033923,0,0,1.5394717454910278,0,0,0.6879600286483765
2.026283965,0,0,1.647210717201233,0,0,0.5350799560546875
2.027537415,0,0,1.647210717201233,0,0,0.8408399820327759
2.028785736,0,0,1.647210717201233,0,0,0.6879600286483765
2.030035482,0,0,1.647210717201233,0,0,0.4586400091648102
2.031286136,0,0,1.647210717201233,0,0,0.3822000026702881
2.032535401,0,0,1.647210717201233,0,0,0.8408399820327759
2.033785239,0,0,1.647210717201233,0,0,0.8408399820327759
2.035035449,0,0,1.647210717201233,0,0,0.8408399820327759
2.036285417,0,0,1.5873557329177856,0,0,0.9937199950218201
2.037535423,0,0,1.5873557329177856,0,0,0.8408399820327759
2.03878541,0,0,1.5873557329177856,0,0,0.6879600286483765
2.040035638,0,0,1.5873557329177856,0,0,1.070159912109375
2.041285384,0,0,1.5873557329177856,0,0,0.9937199950218201
2.042535538,0,0,1.5873557329177856,0,0,0.6879600286483765
2.043785377,0,0,1.5873557329177856,0,0,0.611519992351532
2.045035549,0,0,1.644816517829895,0,0,0.7644000053405762
2.04628524,0,0,1.644816517829895,0,0,0.611519992351532
2.04753543,0,0,1.644816517829895,0,0,1.1466000080108643
2.048786399,0,0,1.644816517829895,0,0,1.070159912109375
2.050035331,0,0,1.644816517829895,0,0,0.6879600286483765
2.051296058,0,0,1.644816517829895,0,0,0.9937199950218201
2.052537249,0,0,1.644816517829895,0,0,0.8408399820327759
2.053790088,0,0,1.4700398445129395,0,0,0.9172800183296204
2.055035816,0,0,1.4700398445129395,0,0,0.9937199950218201
2.056285488,0,0,1.4700398445129395,0,0,0.8408399820327759
2.05753516,0,0,1.4700398445129395,0,0,1.070159912109375
2.058785258,0,0,1.4700398445129395,0,0,0.8408399820327759
2.060035171,0,0,1.4700398445129395,0,0,0.9172800183296204
2.061285233,0,0,1.4700398445129395,0,0,0.9172800183296204
2.062536571,0,0,1.3646949529647827,0,0,0.611519992351532
2.063785373,0,0,1.3646949529647827,0,0,0.4586400091648102
2.065044175,0,0,1.3646949529647827,0,0,0.6879600286483765
2.066285829,0,0,1.3646949529647827,0,0,0.6879600286483765
2.067535279,0,0,1.3646949529647827,0,0,0.9937199950218201
2.068785099,0,0,1.3646949529647827,0,0,0.8408399820327759
2.070035272,0,0,1.3646949529647827,0,0,0.7644000053405762
2.071285222,0,0,1.3670891523361206,0,0,0.7644000053405762
2.072535005,0,0,1.3670891523361206,0,0,0.7644000053405762
2.073785122,0,0,1.3670891523361206,0,0,0.6879600286483765
2.075035183,0,0,1.3670891523361206,0,0,0.5350799560546875
2.07628654,0,0,1.3670891523361206,0,0,1.1466000080108643
2.077534953,0,0,1.3670891523361206,0,0,0.8408399820327759
2.078785459,0,0,1.3670891523361206,0,0,0.9172800183296204
2.080035816,0,0,1.3311761617660522,0,0,0.7644000053405762
2.081285248,0,0,1.3311761617660522,0,0,0.9937199950218201
2.082535531,0,0,1.3311761617660522,0,0,0.7644000053405762
2.083785203,0,0,1.3311761617660522,0,0,0.6879600286483765
2.085035301,0,0,1.3311761617660522,0,0,1.223039984703064
2.08628514,0,0,1.3311761617660522,0,0,0.6879600286483765
2.087535202,0,0,1.3311761617660522,0,0,1.2994799613952637
2.088785133,0,0,1.3311761617660522,0,0,0.8408399820327759
2.090041546,0,0,1.3934253454208374,0,0,0.9172800183296204
2.091286237,0,0,1.3934253454208374,0,0,0.7644000053405762
2.092538502,0,0,1.3934253454208374,0,0,0.9172800183296204
2.093785452,0,0,1.3934253454208374,0,0,0.8408399820327759
2.095035087,0,0,1.3934253454208374,0,0,0.8408399820327759
2.096285407,0,0,1.3934253454208374,0,0,0.611519992351532
2.097535228,0,0,1.3934253454208374,0,0,1.1466000080108643
2.098785159,0,0,1.4963760375976563,0,0,0.6879600286483765
2.100035072,0,0,1.4963760375976563,0,0,0.9172800183296204
2.101284967,0,0,1.4963760375976563,0,0,0.9172800183296204
2.102559046,0,0,1.4963760375976563,0,0,0.9937199950218201
2.103832533,0,0,1.4963760375976563,0,0,0.9172800183296204
2.105058002,0,0,1.4963760375976563,0,0,0.9172800183296204
2.106286915,0,0,1.4963760375976563,0,0,0.6879600286483765
2.10753605,0,0,1.4891934394836426,0,0,0.8408399820327759
2.108785574,0,0,1.4891934394836426,0,0,0.9937199950218201
2.110035617,0,0,1.4891934394836426,0,0,0.6879600286483765
2.111285511,0,0,1.4891934394836426,0,0,0.8408399820327759
2.112536628,0,0,1.4891934394836426,0,0,0.611519992351532
2.113785504,0,0,1.4891934394836426,0,0,0.9937199950218201
2.115035602,0,0,1.4891934394836426,0,0,0.7644000053405762
2.116285441,0,0,1.5275006294250488,0,0,0.8408399820327759
2.117535446,0,0,1.5275006294250488,0,0,0.6879600286483765
2.118785248,0,0,1.5275006294250488,0,0,0.7644000053405762
2.120035439,0,0,1.5275006294250488,0,0,0.8408399820327759
2.121285334,0,0,1.5275006294250488,0,0,0.8408399820327759
2.122535413,0,0,1.5275006294250488,0,0,0.9937199950218201
2.1237854,0,0,1.5275006294250488,0,0,0.611519992351532
2.125035332,0,0,1.5873557329177856,0,0,0.9172800183296204
2.126285337,0,0,1.5873557329177856,0,0,0.4586400091648102
2.12753525,0,0,1.5873557329177856,0,0,0.7644000053405762
2.128785386,0,0,1.5873557329177856,0,0,0.5350799560546875
2.130035391,0,0,1.5873557329177856,0,0,0.8408399820327759
2.131290026,0,0,1.5873557329177856,0,0,0.5350799560546875
2.13253581,0,0,1.5873557329177856,0,0,0.8408399820327759
2.133785241,0,0,1.5873557329177856,0,0,0.8408399820327759
2.1350356169999998,0,0,1.5490485429763794,0,0,0.6879600286483765
2.136285141,0,0,1.5490485429763794,0,0,0.7644000053405762
2.137535128,0,0,1.5490485429763794,0,0,0.8408399820327759
2.1387854490000002,0,0,1.5490485429763794,0,0,0.8408399820327759
2.140035177,0,0,1.5490485429763794,0,0,0.611519992351532
2.141285219,0,0,1.5490485429763794,0,0,0.8408399820327759
2.142537336,0,0,1.5490485429763794,0,0,0.8408399820327759
2.143785693,0,0,1.6136919260025024,0,0,0.611519992351532
2.145043365,0,0,1.6136919260025024,0,0,0.7644000053405762
2.146286686,0,0,1.6136919260025024,0,0,0.9172800183296204
2.147535654,0,0,1.6136919260025024,0,0,0.8408399820327759
2.148785308,0,0,1.6136919260025024,0,0,0.9172800183296204
2.150035277,0,0,1.6136919260025024,0,0,0.9172800183296204
2.151285264,0,0,1.6136919260025024,0,0,0.8408399820327759
2.152535325,0,0,1.4245500564575195,0,0,0.9172800183296204
2.15378909,0,0,1.4245500564575195,0,0,0.9172800183296204
2.155037392,0,0,1.4245500564575195,0,0,0.8408399820327759
2.156289434,0,0,1.4245500564575195,0,0,0.7644000053405762
2.157547792,0,0,1.4245500564575195,0,0,0.9937199950218201
2.158787742,0,0,1.4245500564575195,0,0,0.9172800183296204
2.160046099,0,0,1.4245500564575195,0,0,0.5350799560546875
2.161287679,0,0,1.3910311460494995,0,0,0.6879600286483765
2.162535814,0,0,1.3910311460494995,0,0,0.7644000053405762
2.163785708,0,0,1.3910311460494995,0,0,0.2293200045824051
2.165035529,0,0,1.3910311460494995,0,0,0.6879600286483765
2.166285275,0,0,1.3910311460494995,0,0,0.9172800183296204
2.167535299,0,0,1.3910311460494995,0,0,0.7644000053405762
2.16878549,0,0,1.3910311460494995,0,0,0.611519992351532
2.170039884,0,0,1.3335703611373901,0,0,0.8408399820327759
2.171285353,0,0,1.3335703611373901,0,0,0.9172800183296204
2.172535303,0,0,1.3335703611373901,0,0,0.5350799560546875
2.173785068,0,0,1.3335703611373901,0,0,0.7644000053405762
2.175037185,0,0,1.3335703611373901,0,0,0.305759996175766
2.1763023009999998,0,0,1.3335703611373901,0,0,0.9937199950218201
2.17753677,0,0,1.3335703611373901,0,0,0.9172800183296204
2.178785757,0,0,1.2210428714752197,0,0,0.8408399820327759
2.180035225,0,0,1.2210428714752197,0,0,0.7644000053405762
2.181285324,0,0,1.2210428714752197,0,0,0.6879600286483765
2.182535588,0,0,1.2210428714752197,0,0,0.8408399820327759
2.18378539,0,0,1.2210428714752197,0,0,0.611519992351532
2.185035507,0,0,1.2210428714752197,0,0,0.8408399820327759
2.186285494,0,0,1.2210428714752197,0,0,0.6879600286483765
2.187535722,0,0,1.2210428714752197,0,0,0.9172800183296204
2.188785061,0,0,1.235408067703247,0,0,0.9172800183296204
2.19003514,0,0,1.235408067703247,0,0,0.8408399820327759
2.19128522,0,0,1.235408067703247,0,0,0.8408399820327759
2.192535392,0,0,1.235408067703247,0,0,0.7644000053405762
2.193785324,0,0,1.235408067703247,0,0,0.6879600286483765
2.1950352,0,0,1.235408067703247,0,0,0.9937199950218201
2.196285742,0,0,1.235408067703247,0,0,0.5350799560546875
2.197535341,0,0,1.4724340438842773,0,0,0.7644000053405762
2.198785254,0,0,1.4724340438842773,0,0,0.7644000053405762
2.200035166,0,0,1.4724340438842773,0,0,0.6879600286483765
2.201285413,0,0,1.4724340438842773,0,0,0.9172800183296204
2.2025368260000002,0,0,1.4724340438842773,0,0,1.070159912109375
2.203785239,0,0,1.4724340438842773,0,0,0.5350799560546875
2.205035244,0,0,1.4724340438842773,0,0,0.611519992351532
2.206285268,0,0,1.5514427423477173,0,0,1.070159912109375
2.207535441,0,0,1.5514427423477173,0,0,0.6879600286483765
2.208790243,0,0,1.5514427423477173,0,0,0.9172800183296204
2.2100354700000002,0,0,1.5514427423477173,0,0,0.611519992351532
2.211285235,0,0,1.5514427423477173,0,0,1.1466000080108643
2.212535222,0,0,1.5514427423477173,0,0,0.8408399820327759
2.213785672,0,0,1.5514427423477173,0,0,0.9172800183296204
2.21503527,0,0,1.623268723487854,0,0,0.8408399820327759
2.216285072,0,0,1.623268723487854,0,0,0.611519992351532
2.217535226,0,0,1.623268723487854,0,0,0.611519992351532
2.218785343,0,0,1.623268723487854,0,0,0.6879600286483765
2.220035071,0,0,1.623268723487854,0,0,1.070159912109375
2.221285335,0,0,1.623268723487854,0,0,0.6879600286483765
2.222535267,0,0,1.623268723487854,0,0,0.9172800183296204
2.223785254,0,0,1.5682021379470825,0,0,0.611519992351532
2.225042704,0,0,1.5682021379470825,0,0,0.7644000053405762
2.226286469,0,0,1.5682021379470825,0,0,0.611519992351532
2.2275354370000002,0,0,1.5682021379470825,0,0,0.8408399820327759
2.228785165,0,0,1.5682021379470825,0,0,0.611519992351532
2.2300350780000002,0,0,1.5682021379470825,0,0,0.8408399820327759
2.231285121,0,0,1.5682021379470825,0,0,0.7644000053405762
2.232535274,0,0,1.5849615335464478,0,0,0.9172800183296204
2.233784965,0,0,1.5849615335464478,0,0,0.8408399820327759
2.23503836,0,0,1.5849615335464478,0,0,0.7644000053405762
2.23628581,0,0,1.5849615335464478,0,0,0.9172800183296204
2.237547963,0,0,1.5849615335464478,0,0,0.5350799560546875
2.238786969,0,0,1.5849615335464478,0,0,0.9172800183296204
2.240036345,0,0,1.5849615335464478,0,0,0.7644000053405762
2.241285332,0,0,1.5849615335464478,0,0,0.8408399820327759
2.242535245,0,0,1.601720929145813,0,0,0.9172800183296204
2.243785436,0,0,1.601720929145813,0,0,1.070159912109375
2.24503533,0,0,1.601720929145813,0,0,0.9172800183296204
2.246285336,0,0,1.601720929145813,0,0,0.8408399820327759
2.247539378,0,0,1.601720929145813,0,0,0.7644000053405762
2.248785699,0,0,1.601720929145813,0,0,0.4586400091648102
2.250035501,0,0,1.601720929145813,0,0,1.070159912109375
2.251285358,0,0,1.4197616577148438,0,0,0.9172800183296204
2.252535364,0,0,1.4197616577148438,0,0,1.1466000080108643
2.253785277,0,0,1.4197616577148438,0,0,0.8408399820327759
2.25503543,0,0,1.4197616577148438,0,0,0.9172800183296204
2.256285417,0,0,1.4197616577148438,0,0,1.070159912109375
2.257535479,0,0,1.4197616577148438,0,0,0.6879600286483765
2.2587852059999998,0,0,1.4197616577148438,0,0,0.6879600286483765
2.260035379,0,0,1.381454348564148,0,0,0.7644000053405762
2.261285366,0,0,1.381454348564148,0,0,0.611519992351532
2.262536519,0,0,1.381454348564148,0,0,0.8408399820327759
2.263785358,0,0,1.381454348564148,0,0,0.8408399820327759
2.265035401,0,0,1.381454348564148,0,0,1.2994799613952637
2.266285351,0,0,1.381454348564148,0,0,0.8408399820327759
2.267535579,0,0,1.381454348564148,0,0,0.7644000053405762
2.268785381,0,0,1.3742717504501343,0,0,0.7644000053405762
2.270035534,0,0,1.3742717504501343,0,0,0.6879600286483765
2.2712853920000002,0,0,1.3742717504501343,0,0,0.9172800183296204
2.272535657,0,0,1.3742717504501343,0,0,0.6879600286483765
2.273785366,0,0,1.3742717504501343,0,0,0.611519992351532
2.275036594,0,0,1.3742717504501343,0,0,0.9937199950218201
2.276285433,0,0,1.3742717504501343,0,0,0.9172800183296204
2.277535494,0,0,1.2234370708465576,0,0,0.9172800183296204
2.278785518,0,0,1.2234370708465576,0,0,0.9172800183296204
2.280035172,0,0,1.2234370708465576,0,0,0.8408399820327759
2.281285344,0,0,1.2234370708465576,0,0,0.9937199950218201
2.282535535,0,0,1.2234370708465576,0,0,0.5350799560546875
2.283785355,0,0,1.2234370708465576,0,0,0.6879600286483765
2.285035231,0,0,1.2234370708465576,0,0,0.9172800183296204
2.2862881440000002,0,0,1.3407529592514038,0,0,0.611519992351532
2.287535742,0,0,1.3407529592514038,0,0,0.9172800183296204
2.288785322,0,0,1.3407529592514038,0,0,0.9172800183296204
2.290035272,0,0,1.3407529592514038,0,0,0.9937199950218201
2.291285537,0,0,1.3407529592514038,0,0,0.6879600286483765
2.292535283,0,0,1.3407529592514038,0,0,1.223039984703064
2.293785122,0,0,1.3407529592514038,0,0,0.9172800183296204
2.295035498,0,0,1.3407529592514038,0,0,0.8408399820327759
2.296285226,0,0,1.4389152526855469,0,0,0.8408399820327759
2.297535287,0,0,1.4389152526855469,0,0,0.8408399820327759
2.29878557,0,0,1.4389152526855469,0,0,0.9172800183296204
2.300035428,0,0,1.4389152526855469,0,0,0.9172800183296204
2.301285396,0,0,1.4389152526855469,0,0,0.7644000053405762
2.3025366050000002,0,0,1.4389152526855469,0,0,0.7644000053405762
2.303793703,0,0,1.4389152526855469,0,0,0.8408399820327759
2.305041913,0,0,1.4628572463989258,0,0,0.5350799560546875
2.306285789,0,0,1.4628572463989258,0,0,0.7644000053405762
2.307535424,0,0,1.4628572463989258,0,0,0.9937199950218201
2.3087851329999998,0,0,1.4628572463989258,0,0,0.9172800183296204
2.310035417,0,0,1.4628572463989258,0,0,0.8408399820327759
2.311285441,0,0,1.4628572463989258,0,0,0.8408399820327759
2.3125352980000002,0,0,1.4628572463989258,0,0,0.611519992351532
2.313785304,0,0,1.5322890281677246,0,0,0.4586400091648102
2.315035365,0,0,1.5322890281677246,0,0,0.9172800183296204
2.316285333,0,0,1.5322890281677246,0,0,0.7644000053405762
2.317544598,0,0,1.5322890281677246,0,0,0.6879600286483765
2.318787233,0,0,1.5322890281677246,0,0,0.611519992351532
2.320035628,0,0,1.5322890281677246,0,0,0.9937199950218201
2.321285467,0,0,1.5322890281677246,0,0,0.7644000053405762
2.322536472,0,0,1.5682021379470825,0,0,0.8408399820327759
2.323785237,0,0,1.5682021379470825,0,0,0.4586400091648102
2.325038632,0,0,1.5682021379470825,0,0,0.8408399820327759
2.326285656,0,0,1.5682021379470825,0,0,0.9172800183296204
2.327535161,0,0,1.5682021379470825,0,0,0.5350799560546875
2.328785297,0,0,1.5682021379470825,0,0,0.9172800183296204
2.330035247,0,0,1.5682021379470825,0,0,0.8408399820327759
2.331285104,0,0,1.6208745241165161,0,0,0.8408399820327759
2.3325354799999998,0,0,1.6208745241165161,0,0,0.7644000053405762
2.333785337,0,0,1.6208745241165161,0,0,0.611519992351532
2.335035287,0,0,1.6208745241165161,0,0,0.5350799560546875
2.336285737,0,0,1.6208745241165161,0,0,1.070159912109375
2.337535428,0,0,1.6208745241165161,0,0,0.8408399820327759
2.338785545,0,0,1.6208745241165161,0,0,0.9172800183296204
2.340035254,0,0,1.6208745241165161,0,0,0.9172800183296204
2.34128526,0,0,1.4891934394836426,0,0,0.7644000053405762
2.342536265,0,0,1.4891934394836426,0,0,0.6879600286483765
2.343784919,0,0,1.4891934394836426,0,0,0.9172800183296204
2.345054924,0,0,1.4891934394836426,0,0,0.611519992351532
2.346300615,0,0,1.4891934394836426,0,0,0.6879600286483765
2.347538139,0,0,1.4891934394836426,0,0,0.8408399820327759
2.348785682,0,0,1.4891934394836426,0,0,0.5350799560546875
2.350035669,0,0,1.3431471586227417,0,0,0.7644000053405762
2.351285527,0,0,1.3431471586227417,0,0,0.611519992351532
2.352545051,0,0,1.3431471586227417,0,0,0.9172800183296204
2.353832797,0,0,1.3431471586227417,0,0,0.611519992351532
2.355069247,0,0,1.3431471586227417,0,0,0.611519992351532
2.356291141,0,0,1.3431471586227417,0,0,0.7644000053405762
2.357536203,0,0,1.3431471586227417,0,0,0.8408399820327759
2.358786042,0,0,1.3623007535934448,0,0,0.8408399820327759
2.360035473,0,0,1.3623007535934448,0,0,0.8408399820327759
2.361286516,0,0,1.3623007535934448,0,0,0.8408399820327759
2.362560577,0,0,1.3623007535934448,0,0,0.611519992351532
2.363837304,0,0,1.3623007535934448,0,0,0.9172800183296204
2.365070291,0,0,1.3623007535934448,0,0,0.6879600286483765
2.366287927,0,0,1.3623007535934448,0,0,0.8408399820327759
2.367536358,0,0,1.338358759880066,0,0,0.5350799560546875
2.368784457,0,0,1.338358759880066,0,0,0.9937199950218201
2.370034407,0,0,1.338358759880066,0,0,0.8408399820327759
2.371284579,0,0,1.338358759880066,0,0,0.7644000053405762
2.372534473,0,0,1.338358759880066,0,0,0.7644000053405762
2.373784201,0,0,1.338358759880066,0,0,0.7644000053405762
2.375035114,0,0,1.338358759880066,0,0,0.6879600286483765
2.376284286,0,0,1.3479355573654175,0,0,0.9937199950218201
2.377534533,0,0,1.3479355573654175,0,0,0.7644000053405762
2.378784575,0,0,1.3479355573654175,0,0,0.9937199950218201
2.380034396,0,0,1.3479355573654175,0,0,0.7644000053405762
2.381284179,0,0,1.3479355573654175,0,0,0.6879600286483765
2.382535851,0,0,1.3479355573654175,0,0,0.6879600286483765
2.383784523,0,0,1.3479355573654175,0,0,0.8408399820327759
2.385048214,0,0,1.4508862495422363,0,0,0.8408399820327759
2.386284572,0,0,1.4508862495422363,0,0,0.8408399820327759
2.387533855,0,0,1.4508862495422363,0,0,0.8408399820327759
2.388784564,0,0,1.4508862495422363,0,0,0.7644000053405762
2.390034107,0,0,1.4508862495422363,0,0,0.611519992351532
2.391287353,0,0,1.4508862495422363,0,0,0.8408399820327759
2.392535488,0,0,1.4508862495422363,0,0,0.5350799560546875
2.39378555,0,0,1.4508862495422363,0,0,0.8408399820327759
2.395039518,0,0,1.5514427423477173,0,0,1.070159912109375
2.396296746,0,0,1.5514427423477173,0,0,0.9937199950218201
2.397538122,0,0,1.5514427423477173,0,0,0.611519992351532
2.398786146,0,0,1.5514427423477173,0,0,1.070159912109375
2.400035429,0,0,1.5514427423477173,0,0,0.5350799560546875
2.401285639,0,0,1.5514427423477173,0,0,0.6879600286483765
2.402538848,0,0,1.5514427423477173,0,0,0.4586400091648102
2.4037859089999998,0,0,1.53707754611969,0,0,0.9172800183296204
2.405035285,0,0,1.53707754611969,0,0,1.070159912109375
2.406294753,0,0,1.53707754611969,0,0,0.9172800183296204
2.407537722,0,0,1.53707754611969,0,0,0.6879600286483765
2.408785894,0,0,1.53707754611969,0,0,0.611519992351532
2.4100355110000002,0,0,1.53707754611969,0,0,0.9172800183296204
2.411285683,0,0,1.53707754611969,0,0,0.5350799560546875
2.412535448,0,0,1.5322890281677246,0,0,0.7644000053405762
2.413785287,0,0,1.5322890281677246,0,0,0.6879600286483765
2.415035663,0,0,1.5322890281677246,0,0,0.9172800183296204
2.416285446,0,0,1.5322890281677246,0,0,0.9172800183296204
2.417535396,0,0,1.5322890281677246,0,0,0.9172800183296204
2.418785402,0,0,1.5322890281677246,0,0,0.7644000053405762
2.420036167,0,0,1.5322890281677246,0,0,0.9937199950218201
2.421285709,0,0,1.5466543436050415,0,0,0.4586400091648102
2.422536863,0,0,1.5466543436050415,0,0,0.6879600286483765
2.423785498,0,0,1.5466543436050415,0,0,0.8408399820327759
2.425035356,0,0,1.5466543436050415,0,0,0.7644000053405762
2.426285565,0,0,1.5466543436050415,0,0,0.7644000053405762
2.427535441,0,0,1.5466543436050415,0,0,0.9172800183296204
2.428785446,0,0,1.5466543436050415,0,0,1.223039984703064
2.430035656,0,0,1.5753847360610962,0,0,0.8408399820327759
2.431285254,0,0,1.5753847360610962,0,0,0.8408399820327759
2.4325353339999998,0,0,1.5753847360610962,0,0,0.8408399820327759
2.433785376,0,0,1.5753847360610962,0,0,0.7644000053405762
2.435035623,0,0,1.5753847360610962,0,0,0.6879600286483765
2.436285535,0,0,1.5753847360610962,0,0,0.8408399820327759
2.437535486,0,0,1.5753847360610962,0,0,0.9172800183296204
2.438785417,0,0,1.5753847360610962,0,0,1.070159912109375
2.44003946,0,0,1.455674648284912,0,0,0.9172800183296204
2.44133328,0,0,1.455674648284912,0,0,0.7644000053405762
2.442544415,0,0,1.455674648284912,0,0,0.8408399820327759
2.443785939,0,0,1.455674648284912,0,0,0.9172800183296204
2.445035315,0,0,1.455674648284912,0,0,0.9172800183296204
2.446286673,0,0,1.455674648284912,0,0,0.6879600286483765
2.447561382,0,0,1.455674648284912,0,0,1.1466000080108643
2.448800776,0,0,1.3311761617660522,0,0,1.1466000080108643
2.450036282,0,0,1.3311761617660522,0,0,0.7644000053405762
2.451285565,0,0,1.3311761617660522,0,0,0.9172800183296204
2.4525365519999998,0,0,1.3311761617660522,0,0,0.6879600286483765
2.453785651,0,0,1.3311761617660522,0,0,0.8408399820327759
2.455035582,0,0,1.3311761617660522,0,0,0.8408399820327759
2.456285421,0,0,1.3311761617660522,0,0,0.7644000053405762
2.457535871,0,0,1.3646949529647827,0,0,0.8408399820327759
2.458785525,0,0,1.3646949529647827,0,0,0.9172800183296204
2.460035382,0,0,1.3646949529647827,0,0,0.611519992351532
2.461285499,0,0,1.3646949529647827,0,0,0.7644000053405762
2.462537004,0,0,1.3646949529647827,0,0,0.8408399820327759
2.46378551,0,0,1.3646949529647827,0,0,0.7644000053405762
2.465052756,0,0,1.3646949529647827,0,0,0.8408399820327759
2.466287243,0,0,1.3239935636520386,0,0,1.070159912109375
2.467536842,0,0,1.3239935636520386,0,0,0.5350799560546875
2.468785792,0,0,1.3239935636520386,0,0,0.9172800183296204
2.470035538,0,0,1.3239935636520386,0,0,0.6879600286483765
2.471285432,0,0,1.3239935636520386,0,0,1.070159912109375
2.4725353820000002,0,0,1.3239935636520386,0,0,0.7644000053405762
2.473785703,0,0,1.3239935636520386,0,0,0.7644000053405762
2.475035505,0,0,1.3239935636520386,0,0,0.611519992351532
2.476285844,0,0,1.3239935636520386,0,0,0.7644000053405762
2.4775354419999998,0,0,1.3239935636520386,0,0,0.611519992351532
2.478785503,0,0,1.3239935636520386,0,0,0.5350799560546875
2.480040305,0,0,1.3239935636520386,0,0,0.9172800183296204
2.481285903,0,0,1.3239935636520386,0,0,0.611519992351532
2.482535983,0,0,1.3239935636520386,0,0,0.9172800183296204
2.483786025,0,0,1.3886369466781616,0,0,0.5350799560546875
2.485035494,0,0,1.3886369466781616,0,0,0.611519992351532
2.486285629,0,0,1.3886369466781616,0,0,0.7644000053405762
2.487535616,0,0,1.3886369466781616,0,0,0.6879600286483765
2.488785603,0,0,1.3886369466781616,0,0,0.7644000053405762
2.49003559,0,0,1.3886369466781616,0,0,0.7644000053405762
2.491285818,0,0,1.3886369466781616,0,0,0.9172800183296204
2.4925353980000002,0,0,1.3886369466781616,0,0,0.7644000053405762
2.493785496,0,0,1.5083470344543457,0,0,0.9937199950218201
2.495035612,0,0,1.5083470344543457,0,0,0.5350799560546875
2.496285544,0,0,1.5083470344543457,0,0,0.8408399820327759
2.497535235,0,0,1.5083470344543457,0,0,0.5350799560546875
2.498785351,0,0,1.5083470344543457,0,0,0.611519992351532
2.500035524,0,0,1.5083470344543457,0,0,0.7644000053405762
2.501285363,0,0,1.5083470344543457,0,0,0.7644000053405762
2.502536664,0,0,1.5466543436050415,0,0,0.7644000053405762
2.5037853549999998,0,0,1.5466543436050415,0,0,0.6879600286483765
2.505035361,0,0,1.5466543436050415,0,0,1.070159912109375
2.506285403,0,0,1.5466543436050415,0,0,1.1466000080108643
2.5075354279999997,0,0,1.5466543436050415,0,0,0.9937199950218201
2.508785544,0,0,1.5466543436050415,0,0,0.8408399820327759
2.510035457,0,0,1.5466543436050415,0,0,0.6879600286483765
2.511285537,0,0,1.6400281190872192,0,0,0.4586400091648102
2.512535413,0,0,1.6400281190872192,0,0,0.6879600286483765
2.513785437,0,0,1.6400281190872192,0,0,0.7644000053405762
2.515035702,0,0,1.6400281190872192,0,0,0.9172800183296204
2.516285948,0,0,1.6400281190872192,0,0,0.5350799560546875
2.51753538,0,0,1.6400281190872192,0,0,0.9172800183296204
2.518788681,0,0,1.6400281190872192,0,0,1.070159912109375
2.5200357799999997,0,0,1.5538369417190552,0,0,0.6879600286483765
2.5212854890000003,0,0,1.5538369417190552,0,0,0.9172800183296204
2.522535809,0,0,1.5538369417190552,0,0,0.7644000053405762
2.523785259,0,0,1.5538369417190552,0,0,0.7644000053405762
2.525035413,0,0,1.5538369417190552,0,0,0.9172800183296204
2.526285419,0,0,1.5538369417190552,0,0,0.8408399820327759
2.527535535,0,0,1.5538369417190552,0,0,0.8408399820327759
2.528785467,0,0,1.6065093278884888,0,0,0.9172800183296204
2.530035324,0,0,1.6065093278884888,0,0,0.5350799560546875
2.531285608,0,0,1.6065093278884888,0,0,0.7644000053405762
2.532535391,0,0,1.6065093278884888,0,0,1.1466000080108643
2.533785396,0,0,1.6065093278884888,0,0,0.9172800183296204
2.535035717,0,0,1.6065093278884888,0,0,0.9172800183296204
2.536285408,0,0,1.6065093278884888,0,0,0.611519992351532
2.537550358,0,0,1.4245500564575195,0,0,1.1466000080108643
2.538788067,0,0,1.4245500564575195,0,0,0.6879600286483765
2.540035628,0,0,1.4245500564575195,0,0,0.8408399820327759
2.541285541,0,0,1.4245500564575195,0,0,0.611519992351532
2.542535732,0,0,1.4245500564575195,0,0,0.9172800183296204
2.543785552,0,0,1.4245500564575195,0,0,0.8408399820327759
2.5450471500000003,0,0,1.4245500564575195,0,0,0.6879600286483765
2.546286267,0,0,1.4245500564575195,0,0,0.8408399820327759
2.547544439,0,0,1.3239935636520386,0,0,0.7644000053405762
2.5487926119999997,0,0,1.3239935636520386,0,0,1.070159912109375
2.550037821,0,0,1.3239935636520386,0,0,0.9172800183296204
2.551285901,0,0,1.3239935636520386,0,0,0.8408399820327759
2.552535462,0,0,1.3239935636520386,0,0,0.5350799560546875
2.553785412,0,0,1.3239935636520386,0,0,0.9937199950218201
2.555036288,0,0,1.3239935636520386,0,0,0.5350799560546875
2.556285997,0,0,1.3646949529647827,0,0,0.611519992351532
2.557539447,0,0,1.3646949529647827,0,0,0.9172800183296204
2.558785915,0,0,1.3646949529647827,0,0,1.1466000080108643
2.56003531,0,0,1.3646949529647827,0,0,0.8408399820327759
2.5614012219999998,0,0,1.3646949529647827,0,0,0.7644000053405762
2.5625399509999998,0,0,1.3646949529647827,0,0,0.611519992351532
2.563790715,0,0,1.3646949529647827,0,0,0.6879600286483765
2.56503648,0,0,1.3000515699386597,0,0,1.1466000080108643
2.566285375,0,0,1.3000515699386597,0,0,0.6879600286483765
2.567535732,0,0,1.3000515699386597,0,0,0.9172800183296204
2.5687852380000002,0,0,1.3000515699386597,0,0,0.6879600286483765
2.570035392,0,0,1.3000515699386597,0,0,0.9172800183296204
2.571285508,0,0,1.3000515699386597,0,0,0.9172800183296204
2.572535329,0,0,1.3000515699386597,0,0,0.8408399820327759
2.573785371,0,0,1.3742717504501343,0,0,0.6879600286483765
2.5750354509999998,0,0,1.3742717504501343,0,0,0.4586400091648102
2.576285438,0,0,1.3742717504501343,0,0,0.9172800183296204
2.577535444,0,0,1.3742717504501343,0,0,0.9172800183296204
2.5788170040000002,0,0,1.3742717504501343,0,0,0.9172800183296204
2.580086176,0,0,1.3742717504501343,0,0,0.6879600286483765
2.581309997,0,0,1.3742717504501343,0,0,0.7644000053405762
2.582564021,0,0,1.436521053314209,0,0,0.7644000053405762
