Time,AccelX1,AccelY1,AccelZ1,AccelX2,AccelY2,AccelZ2
0.000010778,0,0,1.4676456451416016,0,0,0.611519992351532
0.007645319,0,0,1.4676456451416016,0,0,0.8408399820327759
0.00783539,0,0,1.6376339197158813,0,0,2.06387996673584
0.008002758,0,0,1.6376339197158813,0,0,2.06387996673584
0.008167256,0,0,1.6376339197158813,0,0,1.9874399900436401
0.008333346,0,0,1.6376339197158813,0,0,1.9874399900436401
0.008498103,0,0,1.6376339197158813,0,0,0.2293200045824051
0.008662508,0,0,1.6376339197158813,0,0,0.2293200045824051
0.008827302,0,0,1.5298948287963867,0,0,0.5350799560546875
0.009241926,0,0,1.4939818382263184,0,0,0.8408399820327759
0.010240338,0,0,1.4508862495422363,0,0,0.9172800183296204
0.011233195,0,0,1.4532804489135742,0,0,0.6879600286483765
0.012279384,0,0,1.3718775510787964,0,0,1.070159912109375
0.013270425,0,0,1.4437036514282227,0,0,1.223039984703064
0.01426856,0,0,1.4700398445129395,0,0,0.611519992351532
0.01527899,0,0,1.5538369417190552,0,0,0.7644000053405762
0.01623744,0,0,1.6328455209732056,0,0,1.223039984703064
0.017238037,0,0,1.525106430053711,0,0,0.8408399820327759
0.018232801,0,0,1.800439715385437,0,0,1.1466000080108643
0.019230379,0,0,1.6735470294952393,0,0,0.8408399820327759
0.020230532,0,0,1.4963760375976563,0,0,0.8408399820327759
0.021246221,0,0,1.4772224426269531,0,0,0.9172800183296204
0.022249633,0,0,1.4628572463989258,0,0,0.5350799560546875
0.02324036,0,0,1.3096283674240112,0,0,0.611519992351532
0.024236698,0,0,1.3718775510787964,0,0,0.611519992351532
0.025239906,0,0,1.4844050407409668,0,0,0.5350799560546875
0.02623304,0,0,1.6280571222305298,0,0,0.611519992351532
0.027229212,0,0,1.6496049165725708,0,0,0.9172800183296204
0.028228939,0,0,1.5442601442337036,0,0,0.9172800183296204
0.029232184,0,0,1.7118542194366455,0,0,0.8408399820327759
0.030228929,0,0,1.4939818382263184,0,0,0.5350799560546875
0.031231804,0,0,1.4724340438842773,0,0,1.1466000080108643
0.033198388,0,0,1.4724340438842773,0,0,1.1466000080108643
0.033415162,0,0,1.4221558570861816,0,0,0.611519992351532
0.034302779,0,0,1.4317326545715332,0,0,0.611519992351532
0.035305988,0,0,1.4676456451416016,0,0,0.9937199950218201
0.036253215,0,0,1.5610195398330688,0,0,0.8408399820327759
0.03728246,0,0,1.6280571222305298,0,0,0.7644000053405762
0.038373463,0,0,1.6711528301239014,0,0,0
0.03930658,0,0,1.6160861253738403,0,0,1.1466000080108643
0.040300307,0,0,1.6974890232086182,0,0,0.7644000053405762
0.041302422,0,0,1.4628572463989258,0,0,0.8408399820327759
0.042291464,0,0,1.501164436340332,0,0,0.8408399820327759
0.043270265,0,0,1.4508862495422363,0,0,0.9937199950218201
0.044286066,0,0,1.400607943534851,0,0,0.8408399820327759
0.045286144,0,0,1.4053963422775269,0,0,0.6879600286483765
0.046288667,0,0,1.4173674583435059,0,0,0.7644000053405762
0.047272691,0,0,1.6112977266311646,0,0,0.611519992351532
0.048237066,0,0,1.5897499322891235,0,0,0.6879600286483765
0.049247256,0,0,1.6041151285171509,0,0,0
0.05024276,0,0,1.482010841369629,0,0,0.7644000053405762
0.051447447,0,0,1.6184803247451782,0,0,0.9172800183296204
0.052257177,0,0,1.3431471586227417,0,0,0.9172800183296204
0.053235904,0,0,1.4628572463989258,0,0,0.5350799560546875
0.054228649,0,0,1.434126853942871,0,0,1.070159912109375
0.055227524,0,0,1.335964560508728,0,0,0.8408399820327759
0.056226732,0,0,1.4939818382263184,0,0,0.8408399820327759
0.057233274,0,0,1.5610195398330688,0,0,1.1466000080108643
0.05822926,0,0,1.625662922859192,0,0,0.5350799560546875
0.059226301,0,0,1.6160861253738403,0,0,0.611519992351532
0.060227084,0,0,1.5466543436050415,0,0,0.4586400091648102
0.061233329,0,0,1.6328455209732056,0,0,0.8408399820327759
0.062228019,0,0,1.6543933153152466,0,0,0.9937199950218201
0.063227486,0,0,1.460463047027588,0,0,0.7644000053405762
0.064228602,0,0,1.5466543436050415,0,0,0.9172800183296204
0.065252643,0,0,1.460463047027588,0,0,0.611519992351532
0.066236926,0,0,1.3838485479354858,0,0,0.9937199950218201
0.067233634,0,0,1.434126853942871,0,0,0.8408399820327759
0.068234194,0,0,1.4772224426269531,0,0,0.9172800183296204
0.069231754,0,0,1.6112977266311646,0,0,0.7644000053405762
0.070229185,0,0,1.6304513216018677,0,0,1.070159912109375
0.071227245,0,0,1.5107412338256836,0,0,0.611519992351532
0.072228008,0,0,1.6735470294952393,0,0,0.9172800183296204
0.073233439,0,0,1.6112977266311646,0,0,1.1466000080108643
0.074234962,0,0,1.3551181554794312,0,0,0.6879600286483765
0.075257466,0,0,1.4317326545715332,0,0,0.6879600286483765
0.076342525,0,0,1.3287819623947144,0,0,1.1466000080108643
0.077287271,0,0,1.3120225667953491,0,0,0.6879600286483765
0.078255313,0,0,1.4437036514282227,0,0,0.8408399820327759
0.079229188,0,0,1.5825673341751099,0,0,0.9937199950218201
0.080236878,0,0,1.5921441316604614,0,0,0.4586400091648102
0.081245086,0,0,1.4987702369689941,0,0,1.1466000080108643
0.082226739,0,0,1.4053963422775269,0,0,0.8408399820327759
0.083242966,0,0,1.6496049165725708,0,0,1.1466000080108643
0.084225489,0,0,1.5729905366897583,0,0,0.8408399820327759
0.085227142,0,0,1.50355863571167,0,0,0.611519992351532
0.086223739,0,0,1.460463047027588,0,0,0.9172800183296204
0.08722354,0,0,1.4293384552001953,0,0,0.9172800183296204
0.08822347,0,0,1.3287819623947144,0,0,0.7644000053405762
0.089226882,0,0,1.3670891523361206,0,0,0.8408399820327759
0.090224498,0,0,1.5179238319396973,0,0,0.8408399820327759
0.091223502,0,0,1.6304513216018677,0,0,0.8408399820327759
0.092223007,0,0,1.6543933153152466,0,0,1.375920057296753
0.093224344,0,0,1.5921441316604614,0,0,1.070159912109375
0.094223571,0,0,1.7549498081207275,0,0,0.9937199950218201
0.095223113,0,0,1.53707754611969,0,0,0.9172800183296204
0.096223043,0,0,1.4460978507995605,0,0,0.9172800183296204
0.097241085,0,0,1.479616641998291,0,0,0.9172800183296204
0.098234015,0,0,1.3958195447921753,0,0,1.070159912109375
0.099223927,0,0,1.3239935636520386,0,0,0.611519992351532
0.100223543,0,0,1.50355863571167,0,0,0.6879600286483765
0.101224955,0,0,1.5897499322891235,0,0,0.7644000053405762
0.102223441,0,0,1.5897499322891235,0,0,0.6879600286483765
0.103223427,0,0,1.5825673341751099,0,0,1.070159912109375
0.104223357,0,0,1.4437036514282227,0,0,0.8408399820327759
0.10522551,0,0,1.6184803247451782,0,0,1.1466000080108643
0.106223552,0,0,1.4628572463989258,0,0,0.9172800183296204
0.107223575,0,0,1.4437036514282227,0,0,1.070159912109375
0.108223413,0,0,1.4987702369689941,0,0,1.070159912109375
0.109231898,0,0,1.4197616577148438,0,0,0.611519992351532
0.110228681,0,0,1.4221558570861816,0,0,0.9937199950218201
0.111234759,0,0,1.4628572463989258,0,0,0.7644000053405762
0.112233819,0,0,1.558625340461731,0,0,0.6879600286483765
0.113280323,0,0,1.623268723487854,0,0,0.9172800183296204
0.114269495,0,0,1.6208745241165161,0,0,0.6879600286483765
0.116032063,0,0,1.6112977266311646,0,0,0.9172800183296204
0.116235171,0,0,1.7549498081207275,0,0,0.9172800183296204
0.117248083,0,0,1.455674648284912,0,0,0.5350799560546875
0.118233958,0,0,1.436521053314209,0,0,0.611519992351532
0.119229833,0,0,1.4053963422775269,0,0,0.7644000053405762
0.1202273,0,0,1.4173674583435059,0,0,0.611519992351532
0.121257082,0,0,1.5298948287963867,0,0,0.8408399820327759
0.122256439,0,0,1.5203180313110352,0,0,0.8408399820327759
0.123228425,0,0,1.6065093278884888,0,0,0.3822000026702881
0.124226633,0,0,1.6903064250946045,0,0,0.7644000053405762
0.125264748,0,0,1.5969325304031372,0,0,0.5350799560546875
0.126238661,0,0,1.5107412338256836,0,0,0.8408399820327759
0.127325034,0,0,1.580173134803772,0,0,1.1466000080108643
0.128229096,0,0,1.3455413579940796,0,0,0.611519992351532
0.129251859,0,0,1.4221558570861816,0,0,0.7644000053405762
0.130228012,0,0,1.359906554222107,0,0,0.9937199950218201
0.131226072,0,0,1.3982137441635132,0,0,0.6879600286483765
0.132226095,0,0,1.381454348564148,0,0,0.611519992351532
0.133226137,0,0,1.3766659498214722,0,0,0.9172800183296204
0.134225197,0,0,1.577778935432434,0,0,0.5350799560546875
0.135225276,0,0,1.6328455209732056,0,0,1.070159912109375
0.13622578,0,0,1.5418659448623657,0,0,0.4586400091648102
0.137247525,0,0,1.659181833267212,0,0,0.9172800183296204
0.138228234,0,0,1.6280571222305298,0,0,0.8408399820327759
0.139249034,0,0,1.335964560508728,0,0,0.8408399820327759
0.140255372,0,0,1.4844050407409668,0,0,0.7644000053405762
0.141244062,0,0,1.460463047027588,0,0,0.9172800183296204
0.142253048,0,0,1.3910311460494995,0,0,0.6879600286483765
0.143260237,0,0,1.436521053314209,0,0,0.9172800183296204
0.144247038,0,0,1.4844050407409668,0,0,0.6879600286483765
0.145254858,0,0,1.522712230682373,0,0,0.5350799560546875
0.146242881,0,0,1.6184803247451782,0,0,1.070159912109375
0.147240885,0,0,1.525106430053711,0,0,0.4586400091648102
0.148243001,0,0,1.6352397203445435,0,0,0.7644000053405762
0.149242228,0,0,1.6927006244659424,0,0,0.9172800183296204
0.150240881,0,0,1.5394717454910278,0,0,0.6879600286483765
0.151255274,0,0,1.5418659448623657,0,0,0.5350799560546875
0.152260482,0,0,1.4652514457702637,0,0,0.8408399820327759
0.153260042,0,0,1.3982137441635132,0,0,0.7644000053405762
0.154248917,0,0,1.3718775510787964,0,0,0.611519992351532
0.1552442,0,0,1.4508862495422363,0,0,0.5350799560546875
0.156242463,0,0,1.5298948287963867,0,0,1.1466000080108643
0.157240375,0,0,1.6065093278884888,0,0,1.223039984703064
0.158241306,0,0,1.5538369417190552,0,0,0.2293200045824051
0.159268347,0,0,1.721431016921997,0,0,0.8408399820327759
0.16025587,0,0,1.5514427423477173,0,0,1.1466000080108643
0.161248282,0,0,1.4197616577148438,0,0,0.9172800183296204
0.162249213,0,0,1.4891934394836426,0,0,1.070159912109375
0.163244791,0,0,1.436521053314209,0,0,0.9937199950218201
0.164244,0,0,1.3192051649093628,0,0,0.7644000053405762
0.165236541,0,0,1.4077905416488647,0,0,0.9172800183296204
0.166249305,0,0,1.5298948287963867,0,0,0.9172800183296204
0.167227421,0,0,1.5682021379470825,0,0,0.9172800183296204
0.168225925,0,0,1.5849615335464478,0,0,1.375920057296753
0.16922956,0,0,1.5538369417190552,0,0,0.611519992351532
0.170225805,0,0,1.6855180263519287,0,0,0.9172800183296204
0.171225976,0,0,1.5729905366897583,0,0,0.9172800183296204
0.172225944,0,0,1.4053963422775269,0,0,0.9172800183296204
0.173226985,0,0,1.4772224426269531,0,0,0.7644000053405762
0.174225656,0,0,1.403002142906189,0,0,1.070159912109375
0.175226105,0,0,1.3862427473068237,0,0,0.6879600286483765
0.176225777,0,0,1.4293384552001953,0,0,0.8408399820327759
0.177228503,0,0,1.5897499322891235,0,0,1.223039984703064
0.178226082,0,0,1.5610195398330688,0,0,0.8408399820327759
0.179226179,0,0,1.5634137392044067,0,0,1.070159912109375
0.180226276,0,0,1.580173134803772,0,0,0.611519992351532
0.181226503,0,0,1.7549498081207275,0,0,0.7644000053405762
0.182225915,0,0,1.6160861253738403,0,0,0.9937199950218201
0.183225938,0,0,1.434126853942871,0,0,0.8408399820327759
0.184225979,0,0,1.4413094520568848,0,0,0.7644000053405762
0.185227132,0,0,1.4413094520568848,0,0,0.7644000053405762
0.186226118,0,0,1.4077905416488647,0,0,0.7644000053405762
0.18722603,0,0,1.4891934394836426,0,0,1.1466000080108643
0.188225905,0,0,1.5849615335464478,0,0,0.6879600286483765
0.18922728,0,0,1.625662922859192,0,0,0.6879600286483765
0.190226007,0,0,1.6041151285171509,0,0,0.5350799560546875
0.191225807,0,0,1.6304513216018677,0,0,0.6879600286483765
0.192225849,0,0,1.7741034030914307,0,0,1.070159912109375
0.193227354,0,0,1.4939818382263184,0,0,0.9172800183296204
0.194226154,0,0,1.4987702369689941,0,0,1.070159912109375
0.195225992,0,0,1.4772224426269531,0,0,1.070159912109375
0.196225441,0,0,1.45806884765625,0,0,1.070159912109375
0.197227316,0,0,1.4293384552001953,0,0,0.7644000053405762
0.198226024,0,0,1.3910311460494995,0,0,0.9937199950218201
0.19922551,0,0,1.525106430053711,0,0,0.7644000053405762
0.200225904,0,0,1.5538369417190552,0,0,0.5350799560546875
0.20122689,0,0,1.5705963373184204,0,0,0.8408399820327759
0.202226024,0,0,1.6280571222305298,0,0,0.6879600286483765
0.20322601,0,0,1.7262194156646729,0,0,0.9172800183296204
0.204225959,0,0,1.5705963373184204,0,0,0.7644000053405762
0.205226982,0,0,1.53707754611969,0,0,0.7644000053405762
0.206226098,0,0,1.41257905960083,0,0,0.9937199950218201
0.207225862,0,0,1.3694833517074585,0,0,0.6879600286483765
0.208226125,0,0,1.3527239561080933,0,0,0.7644000053405762
0.209226482,0,0,1.4652514457702637,0,0,1.1466000080108643
0.210226912,0,0,1.558625340461731,0,0,0.4586400091648102
0.211230009,0,0,1.7166426181793213,0,0,1.1466000080108643
0.212249088,0,0,1.6424223184585571,0,0,0.611519992351532
0.213240333,0,0,1.522712230682373,0,0,0.7644000053405762
0.214228597,0,0,1.623268723487854,0,0,1.1466000080108643
0.215226064,0,0,1.381454348564148,0,0,0.8408399820327759
0.216226069,0,0,1.434126853942871,0,0,1.070159912109375
0.217225962,0,0,1.4652514457702637,0,0,0.9172800183296204
0.218226171,0,0,1.4221558570861816,0,0,0.9937199950218201
0.219226046,0,0,1.4389152526855469,0,0,0.8408399820327759
0.22022605,0,0,1.4915876388549805,0,0,1.070159912109375
0.221226981,0,0,1.5490485429763794,0,0,0.6879600286483765
0.222225948,0,0,1.5873557329177856,0,0,0.9937199950218201
0.223226027,0,0,1.501164436340332,0,0,0.3822000026702881
0.224225883,0,0,1.5682021379470825,0,0,0.7644000053405762
0.225226443,0,0,1.7142484188079834,0,0,0.9172800183296204
0.226226114,0,0,1.4508862495422363,0,0,0.8408399820327759
0.227225934,0,0,1.4963760375976563,0,0,0.8408399820327759
0.228226142,0,0,1.4437036514282227,0,0,1.070159912109375
0.229226554,0,0,1.3982137441635132,0,0,0.9937199950218201
0.230225744,0,0,1.359906554222107,0,0,0.9937199950218201
0.23122597,0,0,1.5466543436050415,0,0,0.8408399820327759
0.232225753,0,0,1.6112977266311646,0,0,0.4586400091648102
0.233227683,0,0,1.7357962131500244,0,0,0.9172800183296204
0.234226095,0,0,1.6639702320098877,0,0,0.0764399990439415
0.235226063,0,0,1.659181833267212,0,0,0.7644000053405762
0.236226067,0,0,1.5849615335464478,0,0,0.9172800183296204
0.237227183,0,0,1.482010841369629,0,0,0.7644000053405762
0.238226039,0,0,1.455674648284912,0,0,0.9172800183296204
0.23922547,0,0,1.455674648284912,0,0,1.070159912109375
0.240225863,0,0,1.3766659498214722,0,0,0.8408399820327759
0.241226997,0,0,1.4939818382263184,0,0,0.611519992351532
0.242225576,0,0,1.482010841369629,0,0,0.5350799560546875
0.243225599,0,0,1.577778935432434,0,0,0.611519992351532
0.244226048,0,0,1.5945383310317993,0,0,1.452359914779663
0.245227201,0,0,1.4628572463989258,0,0,0.5350799560546875
0.246225872,0,0,1.6376339197158813,0,0,0.8408399820327759
0.247225969,0,0,1.5658079385757446,0,0,0.9172800183296204
0.248225955,0,0,1.3982137441635132,0,0,0.8408399820327759
0.249227256,0,0,1.5442601442337036,0,0,0.9937199950218201
0.250226149,0,0,1.4508862495422363,0,0,0.9937199950218201
0.251226172,0,0,1.4532804489135742,0,0,0.9172800183296204
0.252225695,0,0,1.479616641998291,0,0,1.070159912109375
0.253227403,0,0,1.5466543436050415,0,0,0.8408399820327759
0.254225797,0,0,1.5634137392044067,0,0,0.5350799560546875
0.255226172,0,0,1.6352397203445435,0,0,1.2994799613952637
0.256226065,0,0,1.5514427423477173,0,0,0.5350799560546875
0.257250495,0,0,1.6496049165725708,0,0,0.9172800183296204
0.258227834,0,0,1.5059528350830078,0,0,0.8408399820327759
0.259226134,0,0,1.4077905416488647,0,0,0.7644000053405762
0.260226176,0,0,1.4508862495422363,0,0,0.9172800183296204
0.261227143,0,0,1.4484920501708984,0,0,0.9937199950218201
0.262225833,0,0,1.359906554222107,0,0,0.8408399820327759
0.263225875,0,0,1.3958195447921753,0,0,0.7644000053405762
0.264225435,0,0,1.5873557329177856,0,0,0.611519992351532
0.265227143,0,0,1.6735470294952393,0,0,0.6879600286483765
0.266225981,0,0,1.6160861253738403,0,0,1.223039984703064
0.267225893,0,0,1.5394717454910278,0,0,0.9172800183296204
0.268226046,0,0,1.7118542194366455,0,0,0.9172800183296204
0.26922718,0,0,1.4269442558288574,0,0,0.8408399820327759
0.270225851,0,0,1.455674648284912,0,0,0.8408399820327759
0.271226041,0,0,1.601720929145813,0,0,0.7644000053405762
0.272225749,0,0,1.4437036514282227,0,0,0.8408399820327759
0.273227105,0,0,1.3551181554794312,0,0,0.9172800183296204
0.274225832,0,0,1.4101848602294922,0,0,0.9172800183296204
0.275225929,0,0,1.5083470344543457,0,0,0.8408399820327759
0.276226026,0,0,1.659181833267212,0,0,0.8408399820327759
0.277227068,0,0,1.580173134803772,0,0,0.7644000053405762
0.278226184,0,0,1.5131354331970215,0,0,0.9172800183296204
0.279226077,0,0,1.699883222579956,0,0,0.9172800183296204
0.280225804,0,0,1.522712230682373,0,0,0.9937199950218201
0.281227271,0,0,1.4772224426269531,0,0,0.611519992351532
0.282225646,0,0,1.5155296325683594,0,0,0.5350799560546875
0.283226114,0,0,1.3838485479354858,0,0,0.8408399820327759
0.284226026,0,0,1.3910311460494995,0,0,0.9172800183296204
0.285226919,0,0,1.534683346748352,0,0,0.8408399820327759
0.286225609,0,0,1.525106430053711,0,0,1.070159912109375
0.287225947,0,0,1.6089035272598267,0,0,0.6879600286483765
0.288226025,0,0,1.482010841369629,0,0,0.7644000053405762
0.289226956,0,0,1.5131354331970215,0,0,0.7644000053405762
0.290226127,0,0,1.6974890232086182,0,0,0.9937199950218201
0.291226131,0,0,1.4748282432556152,0,0,0.5350799560546875
0.292225895,0,0,1.4724340438842773,0,0,0.611519992351532
0.293227381,0,0,1.4413094520568848,0,0,0.8408399820327759
0.294226015,0,0,1.400607943534851,0,0,0.5350799560546875
0.295226001,0,0,1.3694833517074585,0,0,0.9172800183296204
0.296225913,0,0,1.3886369466781616,0,0,0.8408399820327759
0.29722727,0,0,1.4939818382263184,0,0,0.6879600286483765
0.298225997,0,0,1.6424223184585571,0,0,0.9937199950218201
0.299225853,0,0,1.5753847360610962,0,0,0.3822000026702881
0.300225876,0,0,1.644816517829895,0,0,0.9172800183296204
0.301226918,0,0,1.6711528301239014,0,0,1.070159912109375
0.302225904,0,0,1.4963760375976563,0,0,0.8408399820327759
0.303226038,0,0,1.455674648284912,0,0,0.8408399820327759
0.304225505,0,0,1.4676456451416016,0,0,1.070159912109375
0.305227288,0,0,1.501164436340332,0,0,0.6879600286483765
0.306225811,0,0,1.4460978507995605,0,0,0.8408399820327759
0.3072255,0,0,1.5729905366897583,0,0,1.070159912109375
0.308226042,0,0,1.6184803247451782,0,0,0.6879600286483765
0.30922712,0,0,1.623268723487854,0,0,0.8408399820327759
0.310225958,0,0,1.5442601442337036,0,0,0.0764399990439415
0.31122587,0,0,1.623268723487854,0,0,0.9937199950218201
0.312225893,0,0,1.6041151285171509,0,0,0.8408399820327759
0.313225861,0,0,1.403002142906189,0,0,0.8408399820327759
0.314226143,0,0,1.482010841369629,0,0,0.6879600286483765
0.315225814,0,0,1.400607943534851,0,0,1.070159912109375
0.316226041,0,0,1.3623007535934448,0,0,0.9172800183296204
0.317227305,0,0,1.3623007535934448,0,0,0.5350799560546875
0.318226013,0,0,1.4269442558288574,0,0,0.8408399820327759
0.319225999,0,0,1.5658079385757446,0,0,0.5350799560546875
0.320226059,0,0,1.6879122257232666,0,0,1.452359914779663
0.321226397,0,0,1.5418659448623657,0,0,0.152879998087883
0.322225994,0,0,1.7357962131500244,0,0,0.9172800183296204
0.32322574,0,0,1.5945383310317993,0,0,0.6879600286483765
0.324226151,0,0,1.4628572463989258,0,0,0.611519992351532
0.325226878,0,0,1.4508862495422363,0,0,0.8408399820327759
0.326225994,0,0,1.338358759880066,0,0,1.1466000080108643
0.327225832,0,0,1.2665326595306396,0,0,0.8408399820327759
0.328225892,0,0,1.3646949529647827,0,0,0.7644000053405762
0.329225526,0,0,1.5466543436050415,0,0,0.8408399820327759
0.330225901,0,0,1.659181833267212,0,0,0.611519992351532
0.33122585,0,0,1.659181833267212,0,0,1.5288000106811523
0.332225966,0,0,1.6496049165725708,0,0,0.5350799560546875
0.333227285,0,0,1.5729905366897583,0,0,0.9172800183296204
0.334226197,0,0,1.6519991159439087,0,0,1.1466000080108643
0.335226109,0,0,1.501164436340332,0,0,0.8408399820327759
0.336225965,0,0,1.4173674583435059,0,0,0.7644000053405762
0.337227136,0,0,1.4652514457702637,0,0,0.6879600286483765
0.338225993,0,0,1.403002142906189,0,0,1.1466000080108643
0.339225812,0,0,1.3311761617660522,0,0,0.8408399820327759
0.340226002,0,0,1.3742717504501343,0,0,0.7644000053405762
0.341227154,0,0,1.4772224426269531,0,0,0.611519992351532
0.342226178,0,0,1.534683346748352,0,0,1.2994799613952637
0.343226127,0,0,1.6328455209732056,0,0,0.4586400091648102
0.344225946,0,0,1.5634137392044067,0,0,0.8408399820327759
0.345227043,0,0,1.7405846118927002,0,0,0.9172800183296204
0.346225881,0,0,1.5442601442337036,0,0,0.9172800183296204
0.34722583,0,0,1.4748282432556152,0,0,0.7644000053405762
0.348235242,0,0,1.4772224426269531,0,0,0.8408399820327759
0.349231024,0,0,1.4293384552001953,0,0,0.9172800183296204
0.350225806,0,0,1.3982137441635132,0,0,0.8408399820327759
0.351225792,0,0,1.4652514457702637,0,0,0.5350799560546875
0.352226241,0,0,1.6208745241165161,0,0,0.6879600286483765
0.35322669,0,0,1.5705963373184204,0,0,1.375920057296753
0.354225991,0,0,1.5945383310317993,0,0,0.611519992351532
0.355225885,0,0,1.4963760375976563,0,0,1.375920057296753
0.356225945,0,0,1.656787633895874,0,0,1.223039984703064
0.357226097,0,0,1.460463047027588,0,0,0.8408399820327759
0.358226009,0,0,1.4724340438842773,0,0,0.9937199950218201
0.359226032,0,0,1.3982137441635132,0,0,0.8408399820327759
0.360225944,0,0,1.3263877630233765,0,0,0.9172800183296204
0.361226042,0,0,1.4724340438842773,0,0,0.7644000053405762
0.362225879,0,0,1.5107412338256836,0,0,0.8408399820327759
0.363226032,0,0,1.5825673341751099,0,0,0.6879600286483765
0.364225888,0,0,1.601720929145813,0,0,1.223039984703064
0.365227597,0,0,1.5322890281677246,0,0,0.9172800183296204
0.366225953,0,0,1.5538369417190552,0,0,0.9172800183296204
0.367225902,0,0,1.721431016921997,0,0,0.6879600286483765
0.368225981,0,0,1.50355863571167,0,0,0.8408399820327759
0.369226874,0,0,1.4891934394836426,0,0,1.070159912109375
0.370225916,0,0,1.4700398445129395,0,0,0.7644000053405762
0.37122605,0,0,1.4197616577148438,0,0,0.7644000053405762
0.372225425,0,0,1.4532804489135742,0,0,0.8408399820327759
0.373245836,0,0,1.4963760375976563,0,0,0.4586400091648102
0.374228471,0,0,1.5705963373184204,0,0,0.9172800183296204
0.375226198,0,0,1.6879122257232666,0,0,1.070159912109375
0.376226017,0,0,1.623268723487854,0,0,0.6879600286483765
0.377226984,0,0,1.558625340461731,0,0,0.8408399820327759
0.378226045,0,0,1.6831238269805908,0,0,0.8408399820327759
0.379225864,0,0,1.4077905416488647,0,0,0.6879600286483765
0.380225998,0,0,1.525106430053711,0,0,0.9937199950218201
0.381227058,0,0,1.436521053314209,0,0,0.611519992351532
0.382225915,0,0,1.3694833517074585,0,0,0.9937199950218201
0.383225901,0,0,1.4413094520568848,0,0,0.7644000053405762
0.384225868,0,0,1.4460978507995605,0,0,0.6879600286483765
0.385227095,0,0,1.5394717454910278,0,0,0.8408399820327759
0.386226044,0,0,1.6065093278884888,0,0,0.2293200045824051
0.387225919,0,0,1.5490485429763794,0,0,0.9172800183296204
0.388225775,0,0,1.7094600200653076,0,0,0.611519992351532
0.389227187,0,0,1.656787633895874,0,0,0.8408399820327759
0.390225618,0,0,1.4772224426269531,0,0,0.7644000053405762
0.391226029,0,0,1.5107412338256836,0,0,0.9172800183296204
0.392225886,0,0,1.434126853942871,0,0,0.5350799560546875
0.393225964,0,0,1.3407529592514038,0,0,0.9937199950218201
0.394225469,0,0,1.4389152526855469,0,0,0.9172800183296204
0.395225936,0,0,1.4532804489135742,0,0,0.5350799560546875
0.396225997,0,0,1.6208745241165161,0,0,1.1466000080108643
0.397227131,0,0,1.6543933153152466,0,0,0.3822000026702881
0.398226117,0,0,1.5179238319396973,0,0,0.9172800183296204
0.399226066,0,0,1.7262194156646729,0,0,0.9172800183296204
0.400226237,0,0,1.5682021379470825,0,0,0.9172800183296204
0.401227038,0,0,1.41257905960083,0,0,0.9172800183296204
0.402226061,0,0,1.4245500564575195,0,0,0.9172800183296204
0.403225788,0,0,1.3120225667953491,0,0,0.5350799560546875
0.404225959,0,0,1.4197616577148438,0,0,0.8408399820327759
0.405227074,0,0,1.3982137441635132,0,0,0.7644000053405762
0.406225857,0,0,1.4867992401123047,0,0,0.8408399820327759
0.40722588,0,0,1.5729905366897583,0,0,1.070159912109375
0.408225699,0,0,1.6184803247451782,0,0,0.3822000026702881
0.409227093,0,0,1.5729905366897583,0,0,0.611519992351532
0.410225875,0,0,1.6927006244659424,0,0,0.611519992351532
0.411226157,0,0,1.5083470344543457,0,0,0.9172800183296204
0.412227773,0,0,1.4077905416488647,0,0,0.9172800183296204
0.413225926,0,0,1.4532804489135742,0,0,1.1466000080108643
0.41422593,0,0,1.3766659498214722,0,0,0.8408399820327759
0.415225379,0,0,1.2856862545013428,0,0,0.8408399820327759
0.416226124,0,0,1.3958195447921753,0,0,0.611519992351532
0.41722637,0,0,1.5514427423477173,0,0,0.6879600286483765
0.41822593,0,0,1.6304513216018677,0,0,1.1466000080108643
0.419225953,0,0,1.5849615335464478,0,0,0.8408399820327759
0.420226013,0,0,1.580173134803772,0,0,0.9172800183296204
0.421227017,0,0,1.680729627609253,0,0,0.9172800183296204
0.422225966,0,0,1.4939818382263184,0,0,0.6879600286483765
0.423226175,0,0,1.4724340438842773,0,0,0.9172800183296204
0.424225846,0,0,1.3646949529647827,0,0,0.9937199950218201
0.425226147,0,0,1.3048399686813354,0,0,0.9937199950218201
0.42622604,0,0,1.4173674583435059,0,0,0.7644000053405762
0.427226063,0,0,1.45806884765625,0,0,0.8408399820327759
0.428225975,0,0,1.5155296325683594,0,0,0.4586400091648102
0.429226405,0,0,1.5897499322891235,0,0,1.452359914779663
0.430225947,0,0,1.558625340461731,0,0,0.5350799560546875
0.431225915,0,0,1.5873557329177856,0,0,0.8408399820327759
0.432225882,0,0,1.745373010635376,0,0,0.9172800183296204
0.433226998,0,0,1.5059528350830078,0,0,0.9937199950218201
0.434226021,0,0,1.400607943534851,0,0,0.9172800183296204
0.435225673,0,0,1.400607943534851,0,0,0.7644000053405762
0.4362259,0,0,1.3503297567367554,0,0,0.9937199950218201
0.437234423,0,0,1.3838485479354858,0,0,0.9937199950218201
0.438227613,0,0,1.4317326545715332,0,0,0.6879600286483765
0.43922608,0,0,1.5753847360610962,0,0,0.8408399820327759
0.440226067,0,0,1.6424223184585571,0,0,1.070159912109375
0.441321959,0,0,1.558625340461731,0,0,0.8408399820327759
0.44223215,0,0,1.6543933153152466,0,0,0.9172800183296204
0.443226802,0,0,1.7381904125213623,0,0,0.6879600286483765
0.44422614,0,0,1.434126853942871,0,0,0.7644000053405762
0.445227626,0,0,1.4460978507995605,0,0,0.8408399820327759
0.446226094,0,0,1.414973258972168,0,0,0.8408399820327759
0.44722595,0,0,1.3718775510787964,0,0,0.6879600286483765
0.448226029,0,0,1.403002142906189,0,0,0.9937199950218201
0.44922733,0,0,1.4987702369689941,0,0,0.6879600286483765
0.45022613,0,0,1.5825673341751099,0,0,0.6879600286483765
0.451226024,0,0,1.5921441316604614,0,0,0.6879600286483765
0.452226065,0,0,1.6041151285171509,0,0,0.9172800183296204
0.453227144,0,0,1.6136919260025024,0,0,1.070159912109375
0.454226019,0,0,1.6160861253738403,0,0,0.7644000053405762
0.455225394,0,0,1.4676456451416016,0,0,0.8408399820327759
0.456225954,0,0,1.5275006294250488,0,0,0.9937199950218201
0.457227273,0,0,1.4437036514282227,0,0,0.7644000053405762
0.458225685,0,0,1.3910311460494995,0,0,0.9937199950218201
0.459225486,0,0,1.3766659498214722,0,0,0.7644000053405762
0.460226083,0,0,1.4508862495422363,0,0,0.8408399820327759
0.461227032,0,0,1.5753847360610962,0,0,0.6879600286483765
0.462225759,0,0,1.623268723487854,0,0,0.5350799560546875
0.463226097,0,0,1.558625340461731,0,0,1.1466000080108643
0.464225861,0,0,1.6974890232086182,0,0,0.8408399820327759
0.46522705,0,0,1.558625340461731,0,0,0.8408399820327759
0.466225833,0,0,1.3958195447921753,0,0,1.070159912109375
0.467226115,0,0,1.4724340438842773,0,0,1.2994799613952637
0.468226082,0,0,1.3910311460494995,0,0,1.1466000080108643
0.46922718,0,0,1.4293384552001953,0,0,0.8408399820327759
0.470226184,0,0,1.4101848602294922,0,0,0.9172800183296204
0.471226115,0,0,1.4221558570861816,0,0,0.611519992351532
0.472226045,0,0,1.5538369417190552,0,0,0.9937199950218201
0.473225864,0,0,1.5849615335464478,0,0,0.305759996175766
0.474225999,0,0,1.50355863571167,0,0,0.9172800183296204
0.475226096,0,0,1.6615760326385498,0,0,0.9937199950218201
0.476225896,0,0,1.5083470344543457,0,0,0.7644000053405762
0.477226679,0,0,1.3694833517074585,0,0,0.611519992351532
0.478225498,0,0,1.4915876388549805,0,0,0.8408399820327759
0.479207336,0,0,1.4221558570861816,0,0,0.7644000053405762
0.48074,0,0,1.4221558570861816,0,0,0.9172800183296204
0.481230734,0,0,1.3527239561080933,0,0,0.9172800183296204
0.482226905,0,0,1.4891934394836426,0,0,0.6879600286483765
0.483226262,0,0,1.6208745241165161,0,0,1.375920057296753
0.484226229,0,0,1.625662922859192,0,0,0
0.485226234,0,0,1.6496049165725708,0,0,0.8408399820327759
0.48622596,0,0,1.8339585065841675,0,0,0.9937199950218201
0.487225983,0,0,1.5107412338256836,0,0,0.9172800183296204
0.488225951,0,0,1.4245500564575195,0,0,0.9172800183296204
0.489227381,0,0,1.3982137441635132,0,0,1.452359914779663
0.490225997,0,0,1.41257905960083,0,0,0.9937199950218201
0.491225853,0,0,1.4867992401123047,0,0,0.6879600286483765
0.492225802,0,0,1.434126853942871,0,0,0.8408399820327759
0.493227029,0,0,1.656787633895874,0,0,0.8408399820327759
0.494225941,0,0,1.5873557329177856,0,0,1.070159912109375
0.495225853,0,0,1.522712230682373,0,0,0.4586400091648102
0.496225913,0,0,1.558625340461731,0,0,0.9172800183296204
0.497227029,0,0,1.7381904125213623,0,0,0.9937199950218201
0.498225607,0,0,1.5059528350830078,0,0,0.8408399820327759
0.499226075,0,0,1.4987702369689941,0,0,0.9172800183296204
0.500226153,0,0,1.4197616577148438,0,0,0.9172800183296204
0.501241936,0,0,1.3934253454208374,0,0,0.9937199950218201
0.5022262,0,0,1.2761094570159912,0,0,0.8408399820327759
0.503225926,0,0,1.3263877630233765,0,0,0.9937199950218201
0.504226116,0,0,1.4891934394836426,0,0,0.8408399820327759
0.505226954,0,0,1.5682021379470825,0,0,1.223039984703064
0.506225699,0,0,1.601720929145813,0,0,0.611519992351532
0.507226074,0,0,1.5298948287963867,0,0,0.7644000053405762
0.508225875,0,0,1.7477672100067139,0,0,0.8408399820327759
0.509226898,0,0,1.4652514457702637,0,0,0.7644000053405762
0.510226088,0,0,1.3862427473068237,0,0,0.8408399820327759
0.511225814,0,0,1.4197616577148438,0,0,0.8408399820327759
0.512225745,0,0,1.3335703611373901,0,0,1.1466000080108643
0.513256416,0,0,1.3239935636520386,0,0,0.8408399820327759
0.514227921,0,0,1.4676456451416016,0,0,0.6879600286483765
0.515226092,0,0,1.5538369417190552,0,0,0.7644000053405762
0.516225911,0,0,1.625662922859192,0,0,1.2994799613952637
0.51722699,0,0,1.5322890281677246,0,0,0.611519992351532
0.518226143,0,0,1.644816517829895,0,0,1.070159912109375
0.51922561,0,0,1.6879122257232666,0,0,0.9172800183296204
0.520225911,0,0,1.4460978507995605,0,0,0.9172800183296204
0.521226749,0,0,1.5610195398330688,0,0,0.9937199950218201
0.522225698,0,0,1.4293384552001953,0,0,0.9172800183296204
0.523225276,0,0,1.434126853942871,0,0,0.8408399820327759
0.52422591,0,0,1.414973258972168,0,0,0.9172800183296204
0.525225785,0,0,1.479616641998291,0,0,0.4586400091648102
0.526226012,0,0,1.599326729774475,0,0,0.611519992351532
0.527225794,0,0,1.5729905366897583,0,0,0.5350799560546875
0.528225669,0,0,1.4867992401123047,0,0,0.8408399820327759
0.52922697,0,0,1.5442601442337036,0,0,0.9937199950218201
0.530225827,0,0,1.5514427423477173,0,0,0.9172800183296204
0.53122585,0,0,1.4269442558288574,0,0,0.7644000053405762
0.532225873,0,0,1.4628572463989258,0,0,1.070159912109375
0.533227507,0,0,1.3263877630233765,0,0,1.2994799613952637
0.53422653,0,0,1.3215993642807007,0,0,0.8408399820327759
0.535225905,0,0,1.338358759880066,0,0,0.8408399820327759
0.536225761,0,0,1.479616641998291,0,0,0.7644000053405762
0.537226969,0,0,1.601720929145813,0,0,0.611519992351532
0.53822577,0,0,1.6208745241165161,0,0,0.5350799560546875
0.539225812,0,0,1.5059528350830078,0,0,0.8408399820327759
0.540225705,0,0,1.6352397203445435,0,0,0.9937199950218201
0.541226358,0,0,1.5107412338256836,0,0,0.8408399820327759
0.542226048,0,0,1.3742717504501343,0,0,0.6879600286483765
0.543225756,0,0,1.4867992401123047,0,0,1.070159912109375
0.54422576,0,0,1.5059528350830078,0,0,0.611519992351532
0.545226358,0,0,1.5083470344543457,0,0,0.8408399820327759
0.546225621,0,0,1.403002142906189,0,0,0.9172800183296204
0.547225774,0,0,1.436521053314209,0,0,0.8408399820327759
0.548225705,0,0,1.5634137392044067,0,0,1.070159912109375
0.549226894,0,0,1.644816517829895,0,0,0.0764399990439415
0.550225695,0,0,1.5538369417190552,0,0,0.6879600286483765
0.551225866,0,0,1.6974890232086182,0,0,1.070159912109375
0.552225834,0,0,1.6112977266311646,0,0,0.8408399820327759
0.553226801,0,0,1.436521053314209,0,0,0.9172800183296204
0.55422575,0,0,1.5059528350830078,0,0,0.9172800183296204
0.555225699,0,0,1.4867992401123047,0,0,0.8408399820327759
0.556225722,0,0,1.3982137441635132,0,0,0.611519992351532
0.557226819,0,0,1.3670891523361206,0,0,0.9172800183296204
0.558225842,0,0,1.534683346748352,0,0,0.611519992351532
0.559225643,0,0,1.6927006244659424,0,0,1.1466000080108643
0.560253092,0,0,1.5825673341751099,0,0,0.0764399990439415
0.561278763,0,0,1.4508862495422363,0,0,0.7644000053405762
0.562262786,0,0,1.6711528301239014,0,0,0.9937199950218201
0.56324718,0,0,1.4724340438842773,0,0,1.070159912109375
0.564227592,0,0,1.4269442558288574,0,0,0.7644000053405762
0.565226078,0,0,1.4867992401123047,0,0,0.9172800183296204
0.566225657,0,0,1.4532804489135742,0,0,0.6879600286483765
0.567225457,0,0,1.3766659498214722,0,0,0.6879600286483765
0.568225906,0,0,1.37906014919281,0,0,0.7644000053405762
0.569226003,0,0,1.5418659448623657,0,0,0.7644000053405762
0.570226101,0,0,1.53707754611969,0,0,1.223039984703064
0.571225901,0,0,1.50355863571167,0,0,0.0764399990439415
0.572225795,0,0,1.5107412338256836,0,0,0.9172800183296204
0.573226096,0,0,1.7381904125213623,0,0,0.8408399820327759
0.574226045,0,0,1.4532804489135742,0,0,0.6879600286483765
0.575225938,0,0,1.482010841369629,0,0,0.611519992351532
0.576225776,0,0,1.4221558570861816,0,0,0.611519992351532
0.577227503,0,0,1.3335703611373901,0,0,0.7644000053405762
0.57822547,0,0,1.3623007535934448,0,0,0.9937199950218201
0.579225919,0,0,1.4652514457702637,0,0,0.611519992351532
0.580258664,0,0,1.5490485429763794,0,0,0.7644000053405762
0.581272779,0,0,1.5083470344543457,0,0,1.452359914779663
0.582247692,0,0,1.5059528350830078,0,0,1.070159912109375
0.583466823,0,0,1.5897499322891235,0,0,0.8408399820327759
0.584229923,0,0,1.7262194156646729,0,0,0.9937199950218201
0.585231835,0,0,1.3934253454208374,0,0,0.8408399820327759
0.586226377,0,0,1.4844050407409668,0,0,0.9172800183296204
0.587226326,0,0,1.4245500564575195,0,0,1.1466000080108643
0.588225849,0,0,1.4101848602294922,0,0,0.6879600286483765
0.589227483,0,0,1.4317326545715332,0,0,1.070159912109375
0.590226543,0,0,1.4748282432556152,0,0,0.611519992351532
0.591226492,0,0,1.6112977266311646,0,0,0.6879600286483765
0.592226423,0,0,1.599326729774475,0,0,1.223039984703064
0.593227575,0,0,1.5490485429763794,0,0,0.7644000053405762
0.594226265,0,0,1.6280571222305298,0,0,0.8408399820327759
0.595226158,0,0,1.7046716213226318,0,0,0.611519992351532
0.596226496,0,0,1.3982137441635132,0,0,1.070159912109375
0.597227334,0,0,1.4460978507995605,0,0,1.1466000080108643
0.598226357,0,0,1.4245500564575195,0,0,0.8408399820327759
0.59922638,0,0,1.41257905960083,0,0,0.8408399820327759
0.600232311,0,0,1.3886369466781616,0,0,0.7644000053405762
0.601231537,0,0,1.4652514457702637,0,0,0.611519992351532
0.602226505,0,0,1.6879122257232666,0,0,0.6879600286483765
0.603226287,0,0,1.7118542194366455,0,0,1.223039984703064
0.604226625,0,0,1.6160861253738403,0,0,1.1466000080108643
0.605226852,0,0,1.7118542194366455,0,0,0.9172800183296204
0.606225764,0,0,1.6352397203445435,0,0,0.7644000053405762
0.607226898,0,0,1.2880805730819702,0,0,0.9172800183296204
0.608226254,0,0,1.3623007535934448,0,0,0.7644000053405762
0.609226166,0,0,1.4891934394836426,0,0,0.9937199950218201
0.610225856,0,0,1.482010841369629,0,0,0.7644000053405762
0.61122625,0,0,1.455674648284912,0,0,0.9172800183296204
0.612229458,0,0,1.482010841369629,0,0,0.6879600286483765
0.613226147,0,0,1.577778935432434,0,0,0.7644000053405762
0.614226282,0,0,1.5466543436050415,0,0,0.6879600286483765
0.615226138,0,0,1.4652514457702637,0,0,0.7644000053405762
0.616226568,0,0,1.6041151285171509,0,0,1.1466000080108643
0.617225258,0,0,1.558625340461731,0,0,0.8408399820327759
0.618223392,0,0,1.4101848602294922,0,0,0.6879600286483765
0.61922349,0,0,1.4101848602294922,0,0,1.070159912109375
0.620223901,0,0,1.434126853942871,0,0,1.070159912109375
0.621231406,0,0,1.3886369466781616,0,0,0.8408399820327759
0.622226466,0,0,1.403002142906189,0,0,0.9172800183296204
0.623226156,0,0,1.4987702369689941,0,0,0.7644000053405762
0.62422629,0,0,1.580173134803772,0,0,0.8408399820327759
0.625226628,0,0,1.5490485429763794,0,0,0.2293200045824051
0.626226225,0,0,1.5442601442337036,0,0,0.7644000053405762
0.627226174,0,0,1.6711528301239014,0,0,1.223039984703064
0.628226123,0,0,1.482010841369629,0,0,0.9172800183296204
0.629226739,0,0,1.3287819623947144,0,0,1.070159912109375
0.630226076,0,0,1.482010841369629,0,0,0.9172800183296204
0.631225562,0,0,1.5155296325683594,0,0,0.7644000053405762
0.632226271,0,0,1.4389152526855469,0,0,0.7644000053405762
0.633226534,0,0,1.4748282432556152,0,0,0.9172800183296204
0.634226206,0,0,1.5634137392044067,0,0,0.9172800183296204
0.635226136,0,0,1.6543933153152466,0,0,1.070159912109375
0.63622603,0,0,1.6160861253738403,0,0,0.5350799560546875
0.637227386,0,0,1.5418659448623657,0,0,0.611519992351532
0.638226335,0,0,1.577778935432434,0,0,0.8408399820327759
0.639226154,0,0,1.4963760375976563,0,0,0.9172800183296204
0.640226233,0,0,1.5538369417190552,0,0,0.7644000053405762
0.641227256,0,0,1.4891934394836426,0,0,0.9937199950218201
0.642226094,0,0,1.434126853942871,0,0,0.8408399820327759
0.643226265,0,0,1.3838485479354858,0,0,0.9172800183296204
0.64422627,0,0,1.381454348564148,0,0,1.070159912109375
0.645227348,0,0,1.4867992401123047,0,0,0.611519992351532
0.64622626,0,0,1.6136919260025024,0,0,1.223039984703064
0.64722632,0,0,1.5753847360610962,0,0,0.2293200045824051
0.648226065,0,0,1.6328455209732056,0,0,0.8408399820327759
0.649240199,0,0,1.721431016921997,0,0,0.9937199950218201
0.650227112,0,0,1.4053963422775269,0,0,0.7644000053405762
0.651226098,0,0,1.4484920501708984,0,0,1.223039984703064
0.652226361,0,0,1.3623007535934448,0,0,1.070159912109375
0.653227625,0,0,1.338358759880066,0,0,0.8408399820327759
0.654226482,0,0,1.4867992401123047,0,0,0.7644000053405762
0.655226523,0,0,1.5538369417190552,0,0,0.611519992351532
0.656226176,0,0,1.5873557329177856,0,0,0.6879600286483765
0.657227477,0,0,1.5275006294250488,0,0,1.223039984703064
0.65822624,0,0,1.501164436340332,0,0,0.3822000026702881
0.659226356,0,0,1.5442601442337036,0,0,0.8408399820327759
0.660226083,0,0,1.644816517829895,0,0,1.070159912109375
0.661244902,0,0,1.5107412338256836,0,0,0.9172800183296204
0.662226666,0,0,1.5921441316604614,0,0,0.9172800183296204
0.663226411,0,0,1.558625340461731,0,0,0.9172800183296204
0.664226101,0,0,1.4101848602294922,0,0,0.9172800183296204
0.665228402,0,0,1.4269442558288574,0,0,0.9172800183296204
0.666226277,0,0,1.5275006294250488,0,0,0.6879600286483765
0.667226263,0,0,1.5682021379470825,0,0,0.4586400091648102
0.668226101,0,0,1.6376339197158813,0,0,0.8408399820327759
0.669227031,0,0,1.4844050407409668,0,0,0.6879600286483765
0.670226276,0,0,1.7166426181793213,0,0,0.8408399820327759
0.671225522,0,0,1.601720929145813,0,0,0.9937199950218201
0.672226323,0,0,1.4101848602294922,0,0,0.611519992351532
0.673227234,0,0,1.4987702369689941,0,0,1.070159912109375
0.67422585,0,0,1.4460978507995605,0,0,0.7644000053405762
0.675225762,0,0,1.4389152526855469,0,0,0.7644000053405762
0.676226174,0,0,1.4460978507995605,0,0,0.9172800183296204
0.677227141,0,0,1.525106430053711,0,0,0.611519992351532
0.67822635,0,0,1.644816517829895,0,0,0.6879600286483765
0.679226299,0,0,1.678335428237915,0,0,0.9172800183296204
0.6802261,0,0,1.5418659448623657,0,0,0.6879600286483765
0.681227234,0,0,1.6328455209732056,0,0,0.9937199950218201
0.68222622,0,0,1.4844050407409668,0,0,1.070159912109375
0.68322615,0,0,1.482010841369629,0,0,0.9172800183296204
0.684226303,0,0,1.5083470344543457,0,0,0.8408399820327759
0.685227122,0,0,1.460463047027588,0,0,0.7644000053405762
0.686226238,0,0,1.4053963422775269,0,0,0.9172800183296204
0.687226094,0,0,1.3982137441635132,0,0,0.8408399820327759
0.688225914,0,0,1.4939818382263184,0,0,0.611519992351532
0.689227159,0,0,1.6136919260025024,0,0,0.8408399820327759
0.6902262,0,0,1.5849615335464478,0,0,0.9937199950218201
0.691226335,0,0,1.53707754611969,0,0,0.8408399820327759
0.692226376,0,0,1.7357962131500244,0,0,1.070159912109375
0.69322701,0,0,1.558625340461731,0,0,0.8408399820327759
0.694226052,0,0,1.338358759880066,0,0,0.8408399820327759
0.695226112,0,0,1.4197616577148438,0,0,0.8408399820327759
0.69622582,0,0,1.3646949529647827,0,0,0.5350799560546875
0.69722638,0,0,1.3311761617660522,0,0,0.8408399820327759
0.698226218,0,0,1.4748282432556152,0,0,0.6879600286483765
0.699226075,0,0,1.5442601442337036,0,0,0.6879600286483765
0.700225894,0,0,1.5945383310317993,0,0,0.9937199950218201
0.701227343,0,0,1.5442601442337036,0,0,0.5350799560546875
0.70222631,0,0,1.5322890281677246,0,0,0.9172800183296204
0.703226334,0,0,1.723825216293335,0,0,0.9172800183296204
0.704226042,0,0,1.460463047027588,0,0,0.9937199950218201
0.705227565,0,0,1.400607943534851,0,0,0.9172800183296204
0.706226773,0,0,1.434126853942871,0,0,1.223039984703064
0.707226296,0,0,1.4484920501708984,0,0,0.8408399820327759
0.708226264,0,0,1.479616641998291,0,0,0.611519992351532
0.709227213,0,0,1.41257905960083,0,0,0.7644000053405762
0.710226662,0,0,1.522712230682373,0,0,0.6879600286483765
0.711227111,0,0,1.6160861253738403,0,0,1.1466000080108643
0.712226208,0,0,1.5682021379470825,0,0,0
0.71322736,0,0,1.580173134803772,0,0,0.3822000026702881
0.714225828,0,0,1.8291701078414917,0,0,0.9937199950218201
0.71522624,0,0,1.5155296325683594,0,0,0.6879600286483765
0.716226189,0,0,1.4700398445129395,0,0,0.6879600286483765
0.717226656,0,0,1.434126853942871,0,0,0.9937199950218201
0.718225661,0,0,1.4508862495422363,0,0,0.7644000053405762
0.719226295,0,0,1.3934253454208374,0,0,0.9172800183296204
0.720226374,0,0,1.400607943534851,0,0,0.9172800183296204
0.721227471,0,0,1.5514427423477173,0,0,0.4586400091648102
0.722226216,0,0,1.659181833267212,0,0,1.223039984703064
0.723226258,0,0,1.5873557329177856,0,0,0.305759996175766
0.724226207,0,0,1.5490485429763794,0,0,0.8408399820327759
0.725227378,0,0,1.680729627609253,0,0,0.9937199950218201
0.726226179,0,0,1.4173674583435059,0,0,0.6879600286483765
0.727226276,0,0,1.3862427473068237,0,0,0.611519992351532
0.728226206,0,0,1.3431471586227417,0,0,0.9172800183296204
0.729226266,0,0,1.4317326545715332,0,0,0.8408399820327759
0.730226512,0,0,1.3958195447921753,0,0,0.9937199950218201
0.731226109,0,0,1.403002142906189,0,0,0.7644000053405762
0.73222615,0,0,1.460463047027588,0,0,0.9937199950218201
0.733227155,0,0,1.6184803247451782,0,0,1.070159912109375
0.734226511,0,0,1.6615760326385498,0,0,0.6879600286483765
0.735226275,0,0,1.6927006244659424,0,0,0.9937199950218201
0.736226094,0,0,1.6879122257232666,0,0,0.9172800183296204
0.737227229,0,0,1.400607943534851,0,0,0.9172800183296204
0.738226103,0,0,1.4077905416488647,0,0,0.9937199950218201
0.739225904,0,0,1.4221558570861816,0,0,0.7644000053405762
0.740226187,0,0,1.2665326595306396,0,0,0.611519992351532
0.741227136,0,0,1.316810965538025,0,0,0.6879600286483765
0.742226307,0,0,1.4389152526855469,0,0,0.6879600286483765
0.743226126,0,0,1.5394717454910278,0,0,0.7644000053405762
0.744226186,0,0,1.6615760326385498,0,0,1.223039984703064
0.745227209,0,0,1.45806884765625,0,0,0.5350799560546875
0.746226232,0,0,1.5897499322891235,0,0,1.070159912109375
0.747226218,0,0,1.5921441316604614,0,0,0.9937199950218201
0.74822613,0,0,1.3886369466781616,0,0,0.7644000053405762
0.74922719,0,0,1.4724340438842773,0,0,0.7644000053405762
0.750226102,0,0,1.455674648284912,0,0,0.6879600286483765
0.75122607,0,0,1.414973258972168,0,0,0.7644000053405762
0.752226167,0,0,1.4053963422775269,0,0,0.9172800183296204
0.753227375,0,0,1.4293384552001953,0,0,0.7644000053405762
0.75422638,0,0,1.5059528350830078,0,0,0.6879600286483765
0.755226292,0,0,1.6112977266311646,0,0,0.6879600286483765
0.756226222,0,0,1.5203180313110352,0,0,0.8408399820327759
0.757234171,0,0,1.7118542194366455,0,0,0.8408399820327759
0.758228528,0,0,1.6089035272598267,0,0,0.611519992351532
0.759226217,0,0,1.4532804489135742,0,0,0.8408399820327759
0.760226055,0,0,1.4293384552001953,0,0,1.223039984703064
0.761226856,0,0,1.4245500564575195,0,0,0.9172800183296204
0.762226231,0,0,1.3527239561080933,0,0,0.9937199950218201
0.763226365,0,0,1.3742717504501343,0,0,0.8408399820327759
0.764226147,0,0,1.4460978507995605,0,0,0.5350799560546875
0.765227282,0,0,1.5514427423477173,0,0,0.7644000053405762
0.76622636,0,0,1.623268723487854,0,0,0.9172800183296204
0.767226383,0,0,1.5969325304031372,0,0,0.8408399820327759
0.768226091,0,0,1.7142484188079834,0,0,0.8408399820327759
0.769227226,0,0,1.6112977266311646,0,0,0.8408399820327759
0.770226138,0,0,1.5610195398330688,0,0,0.8408399820327759
0.771226309,0,0,1.5131354331970215,0,0,0.9172800183296204
0.772226054,0,0,1.5107412338256836,0,0,0.7644000053405762
0.773227244,0,0,1.4460978507995605,0,0,0.8408399820327759
0.774226285,0,0,1.5298948287963867,0,0,0.9172800183296204
0.775226031,0,0,1.6041151285171509,0,0,0.6879600286483765
0.776226165,0,0,1.53707754611969,0,0,0.8408399820327759
0.777227095,0,0,1.4963760375976563,0,0,0.6879600286483765
0.778226303,0,0,1.556231141090393,0,0,0.8408399820327759
0.779225771,0,0,1.778891921043396,0,0,0.6879600286483765
0.78022635,0,0,1.5897499322891235,0,0,0.9937199950218201
0.781227354,0,0,1.4508862495422363,0,0,0.7644000053405762
0.782225581,0,0,1.3934253454208374,0,0,1.1466000080108643
0.783226437,0,0,1.4413094520568848,0,0,0.7644000053405762
0.784226257,0,0,1.3886369466781616,0,0,0.9172800183296204
0.785225965,0,0,1.4101848602294922,0,0,0.7644000053405762
0.786223618,0,0,1.5466543436050415,0,0,0.5350799560546875
0.787223511,0,0,1.534683346748352,0,0,1.223039984703064
0.788224367,0,0,1.577778935432434,0,0,0.3822000026702881
0.789227853,0,0,1.6496049165725708,0,0,0.9937199950218201
0.790226358,0,0,1.6519991159439087,0,0,1.1466000080108643
0.791226455,0,0,1.338358759880066,0,0,0.7644000053405762
0.792226311,0,0,1.482010841369629,0,0,1.070159912109375
0.79322752,0,0,1.4101848602294922,0,0,0.8408399820327759
0.794226172,0,0,1.4221558570861816,0,0,0.8408399820327759
0.795226214,0,0,1.4532804489135742,0,0,0.9937199950218201
0.796226144,0,0,1.53707754611969,0,0,0.9172800183296204
0.797227316,0,0,1.580173134803772,0,0,0.7644000053405762
0.79822632,0,0,1.6424223184585571,0,0,1.452359914779663
0.799226269,0,0,1.6112977266311646,0,0,0.4586400091648102
0.800225755,0,0,1.558625340461731,0,0,0.8408399820327759
0.801227149,0,0,1.6065093278884888,0,0,0.9172800183296204
0.802226042,0,0,1.4389152526855469,0,0,0.5350799560546875
0.803226102,0,0,1.5849615335464478,0,0,0.9172800183296204
0.804225699,0,0,1.4389152526855469,0,0,0.7644000053405762
0.80522713,0,0,1.434126853942871,0,0,0.7644000053405762
0.806226116,0,0,1.359906554222107,0,0,0.9172800183296204
0.807226139,0,0,1.4245500564575195,0,0,0.9172800183296204
0.808226088,0,0,1.5873557329177856,0,0,0.5350799560546875
0.809226055,0,0,1.599326729774475,0,0,1.2994799613952637
0.810223671,0,0,1.5897499322891235,0,0,0.5350799560546875
0.811223731,0,0,1.699883222579956,0,0,1.1466000080108643
0.812225439,0,0,1.4532804489135742,0,0,0.9937199950218201
0.814384853,0,0,1.4532804489135742,0,0,0.9937199950218201
0.81454874,0,0,1.53707754611969,0,0,0.8408399820327759
0.815226082,0,0,1.4173674583435059,0,0,0.9937199950218201
0.816225883,0,0,1.3838485479354858,0,0,0.6879600286483765
0.817225906,0,0,1.4077905416488647,0,0,0.6879600286483765
0.818225818,0,0,1.4891934394836426,0,0,0.7644000053405762
0.81922573,0,0,1.580173134803772,0,0,0.4586400091648102
0.820234957,0,0,1.6041151285171509,0,0,0.9937199950218201
0.821233424,0,0,1.5705963373184204,0,0,0.3822000026702881
0.822225873,0,0,1.680729627609253,0,0,1.070159912109375
0.823225878,0,0,1.6089035272598267,0,0,0.8408399820327759
0.82422592,0,0,1.4748282432556152,0,0,0.8408399820327759
0.825225517,0,0,1.479616641998291,0,0,0.9937199950218201
0.826225558,0,0,1.3646949529647827,0,0,0.611519992351532
0.827225896,0,0,1.3479355573654175,0,0,0.8408399820327759
0.828225753,0,0,1.3311761617660522,0,0,1.1466000080108643
0.82922622,0,0,1.460463047027588,0,0,0.7644000053405762
0.830492647,0,0,1.6543933153152466,0,0,0.9937199950218201
0.831227155,0,0,1.5897499322891235,0,0,0.9172800183296204
0.83222653,0,0,1.4915876388549805,0,0,0.7644000053405762
0.833227683,0,0,1.702277421951294,0,0,0.9937199950218201
0.834235261,0,0,1.4844050407409668,0,0,0.6879600286483765
0.835227932,0,0,1.403002142906189,0,0,0.9937199950218201
0.836226752,0,0,1.37906014919281,0,0,1.070159912109375
0.837227404,0,0,1.37906014919281,0,0,0.9172800183296204
0.838226372,0,0,1.4437036514282227,0,0,0.6879600286483765
0.839226302,0,0,1.45806884765625,0,0,0.6879600286483765
0.84022614,0,0,1.5107412338256836,0,0,0.9937199950218201
0.841227367,0,0,1.5658079385757446,0,0,0.5350799560546875
0.842226261,0,0,1.601720929145813,0,0,0.5350799560546875
0.843226228,0,0,1.644816517829895,0,0,0.4586400091648102
0.844226196,0,0,1.6855180263519287,0,0,0.9937199950218201
0.845227256,0,0,1.414973258972168,0,0,0.8408399820327759
0.846226149,0,0,1.482010841369629,0,0,0.7644000053405762
0.847225931,0,0,1.4676456451416016,0,0,1.223039984703064
0.84822614,0,0,1.434126853942871,0,0,0.5350799560546875
0.849226996,0,0,1.3239935636520386,0,0,0.7644000053405762
0.850226315,0,0,1.381454348564148,0,0,0.7644000053405762
0.851235135,0,0,1.5897499322891235,0,0,0.8408399820327759
0.852228065,0,0,1.6065093278884888,0,0,1.070159912109375
0.853226829,0,0,1.5442601442337036,0,0,0.5350799560546875
0.854239333,0,0,1.534683346748352,0,0,0.9172800183296204
0.855227653,0,0,1.6615760326385498,0,0,0.8408399820327759
0.856226546,0,0,1.482010841369629,0,0,0.9937199950218201
0.857226273,0,0,1.5083470344543457,0,0,0.8408399820327759
0.858225981,0,0,1.4652514457702637,0,0,1.070159912109375
0.85922619,0,0,1.3910311460494995,0,0,0.611519992351532
0.860226453,0,0,1.3646949529647827,0,0,0.7644000053405762
0.861226569,0,0,1.4628572463989258,0,0,0.8408399820327759
0.862226296,0,0,1.482010841369629,0,0,0.5350799560546875
0.863226319,0,0,1.5514427423477173,0,0,0.9937199950218201
0.864226231,0,0,1.5538369417190552,0,0,0.611519992351532
0.865225791,0,0,1.4652514457702637,0,0,0.6879600286483765
0.866226443,0,0,1.5729905366897583,0,0,1.070159912109375
0.867226115,0,0,1.5849615335464478,0,0,0.7644000053405762
0.868226138,0,0,1.4460978507995605,0,0,0.9937199950218201
0.869226605,0,0,1.4963760375976563,0,0,0.9937199950218201
0.870225776,0,0,1.4317326545715332,0,0,0.8408399820327759
0.871226392,0,0,1.400607943534851,0,0,0.9937199950218201
0.872226286,0,0,1.4221558570861816,0,0,0.7644000053405762
0.873227883,0,0,1.522712230682373,0,0,0.6879600286483765
0.874226332,0,0,1.623268723487854,0,0,0.9172800183296204
0.875226392,0,0,1.6280571222305298,0,0,0.4586400091648102
0.876226415,0,0,1.699883222579956,0,0,0.6879600286483765
0.877227327,0,0,1.6352397203445435,0,0,1.1466000080108643
0.87822635,0,0,1.4293384552001953,0,0,0.9172800183296204
0.879226391,0,0,1.4676456451416016,0,0,1.070159912109375
0.880226229,0,0,1.482010841369629,0,0,0.8408399820327759
0.881227419,0,0,1.414973258972168,0,0,0.7644000053405762
0.882226349,0,0,1.4269442558288574,0,0,0.6879600286483765
0.88322641,0,0,1.4676456451416016,0,0,0.611519992351532
0.884226173,0,0,1.5921441316604614,0,0,0.6879600286483765
0.885240307,0,0,1.5753847360610962,0,0,0.8408399820327759
0.886226923,0,0,1.534683346748352,0,0,0.4586400091648102
0.887225891,0,0,1.6112977266311646,0,0,0.9172800183296204
0.888226303,0,0,1.5322890281677246,0,0,0.8408399820327759
0.889227548,0,0,1.4173674583435059,0,0,0.7644000053405762
0.89022583,0,0,1.4269442558288574,0,0,0.9172800183296204
0.891226335,0,0,1.4867992401123047,0,0,0.7644000053405762
0.892226154,0,0,1.41257905960083,0,0,0.7644000053405762
0.893227418,0,0,1.357512354850769,0,0,1.070159912109375
0.894226145,0,0,1.434126853942871,0,0,0.5350799560546875
0.895226168,0,0,1.5921441316604614,0,0,0.9172800183296204
0.896226246,0,0,1.6639702320098877,0,0,1.070159912109375
0.897227473,0,0,1.6424223184585571,0,0,0.6879600286483765
0.8982262,0,0,1.699883222579956,0,0,1.1466000080108643
0.899226315,0,0,1.5155296325683594,0,0,1.070159912109375
0.900226172,0,0,1.3838485479354858,0,0,0.9172800183296204
0.901227213,0,0,1.4508862495422363,0,0,0.9172800183296204
0.902226199,0,0,1.357512354850769,0,0,0.6879600286483765
0.903226241,0,0,1.4101848602294922,0,0,0.8408399820327759
0.904226116,0,0,1.482010841369629,0,0,1.070159912109375
0.905227398,0,0,1.5825673341751099,0,0,0.5350799560546875
0.906226199,0,0,1.5921441316604614,0,0,0.6879600286483765
0.907226352,0,0,1.577778935432434,0,0,0.9937199950218201
0.908225801,0,0,1.5466543436050415,0,0,0.4586400091648102
0.909227268,0,0,1.6376339197158813,0,0,1.070159912109375
0.910226236,0,0,1.4676456451416016,0,0,0.7644000053405762
0.911226203,0,0,1.482010841369629,0,0,0.8408399820327759
0.912225652,0,0,1.4652514457702637,0,0,0.9172800183296204
0.913227286,0,0,1.3862427473068237,0,0,0.6879600286483765
0.914226143,0,0,1.3718775510787964,0,0,0.8408399820327759
0.915226518,0,0,1.4748282432556152,0,0,0.9172800183296204
0.91622617,0,0,1.659181833267212,0,0,0.5350799560546875
0.917227119,0,0,1.6352397203445435,0,0,0.611519992351532
0.918226216,0,0,1.5921441316604614,0,0,0.9172800183296204
0.919226073,0,0,1.5729905366897583,0,0,0.6879600286483765
0.920226244,0,0,1.721431016921997,0,0,1.070159912109375
0.921226712,0,0,1.4987702369689941,0,0,0.7644000053405762
0.922226068,0,0,1.4867992401123047,0,0,0.611519992351532
0.923226054,0,0,1.4891934394836426,0,0,0.7644000053405762
0.92422617,0,0,1.4508862495422363,0,0,0.7644000053405762
0.925227433,0,0,1.314416766166687,0,0,0.4586400091648102
0.926226327,0,0,1.359906554222107,0,0,1.070159912109375
0.927226405,0,0,1.5514427423477173,0,0,0.4586400091648102
0.928227428,0,0,1.5873557329177856,0,0,0.9172800183296204
0.929227211,0,0,1.522712230682373,0,0,0.5350799560546875
0.930225956,0,0,1.6280571222305298,0,0,0.8408399820327759
0.931226146,0,0,1.6400281190872192,0,0,0.9937199950218201
0.932226169,0,0,1.4700398445129395,0,0,0.9172800183296204
0.93322684,0,0,1.455674648284912,0,0,0.9937199950218201
0.934225771,0,0,1.4173674583435059,0,0,0.9172800183296204
0.935226164,0,0,1.4748282432556152,0,0,0.8408399820327759
0.936226298,0,0,1.3718775510787964,0,0,0.9172800183296204
0.937227099,0,0,1.4245500564575195,0,0,0.611519992351532
0.938226326,0,0,1.6160861253738403,0,0,0.6879600286483765
0.939226312,0,0,1.5514427423477173,0,0,0.9937199950218201
0.940226224,0,0,1.5298948287963867,0,0,0.3822000026702881
0.941226599,0,0,1.4963760375976563,0,0,0.9172800183296204
0.942226196,0,0,1.6543933153152466,0,0,1.223039984703064
0.943225997,0,0,1.50355863571167,0,0,0.8408399820327759
0.944226038,0,0,1.455674648284912,0,0,0.8408399820327759
0.945227209,0,0,1.4460978507995605,0,0,1.1466000080108643
0.946226455,0,0,1.4844050407409668,0,0,0.6879600286483765
0.947226144,0,0,1.4867992401123047,0,0,0.7644000053405762
0.948226297,0,0,1.4987702369689941,0,0,1.070159912109375
0.94923382,0,0,1.5682021379470825,0,0,0.7644000053405762
0.950227028,0,0,1.6184803247451782,0,0,1.070159912109375
0.951226311,0,0,1.601720929145813,0,0,0.611519992351532
0.952226093,0,0,1.6208745241165161,0,0,1.070159912109375
0.95322719,0,0,1.534683346748352,0,0,0.9937199950218201
0.954226213,0,0,1.3742717504501343,0,0,0.7644000053405762
0.955225662,0,0,1.5083470344543457,0,0,0.8408399820327759
0.956226296,0,0,1.4245500564575195,0,0,1.070159912109375
0.957226356,0,0,1.4077905416488647,0,0,0.8408399820327759
0.958226287,0,0,1.41257905960083,0,0,0.9172800183296204
0.959226291,0,0,1.4963760375976563,0,0,0.9172800183296204
0.960226314,0,0,1.5849615335464478,0,0,0.611519992351532
0.961227412,0,0,1.659181833267212,0,0,1.070159912109375
0.962226175,0,0,1.6280571222305298,0,0,0.5350799560546875
0.963226217,0,0,1.7621324062347412,0,0,0.6879600286483765
0.964226203,0,0,1.6543933153152466,0,0,1.1466000080108643
0.965227152,0,0,1.4987702369689941,0,0,0.9172800183296204
0.966226805,0,0,1.4532804489135742,0,0,0.9172800183296204
0.967444547,0,0,1.4293384552001953,0,0,0.9937199950218201
0.968229703,0,0,1.3742717504501343,0,0,1.070159912109375
0.969226874,0,0,1.479616641998291,0,0,0.9172800183296204
0.970212027,0,0,1.6184803247451782,0,0,0.7644000053405762
0.971226827,0,0,1.659181833267212,0,0,0.7644000053405762
0.972225517,0,0,1.6112977266311646,0,0,1.2994799613952637
0.973226429,0,0,1.4963760375976563,0,0,0.3822000026702881
0.97422523,0,0,1.6735470294952393,0,0,1.070159912109375
0.975225234,0,0,1.5203180313110352,0,0,0.9172800183296204
0.97622498,0,0,1.4173674583435059,0,0,0.9172800183296204
0.977224077,0,0,1.4676456451416016,0,0,0.9937199950218201
0.978222452,0,0,1.4724340438842773,0,0,0.9172800183296204
0.97922229,0,0,1.4293384552001953,0,0,0.8408399820327759
0.980222257,0,0,1.4101848602294922,0,0,1.1466000080108643
0.981225762,0,0,1.5634137392044067,0,0,0.7644000053405762
0.982225266,0,0,1.6615760326385498,0,0,0.7644000053405762
0.983225011,0,0,1.5682021379470825,0,0,1.070159912109375
0.984224868,0,0,1.5107412338256836,0,0,0.5350799560546875
0.985225928,0,0,1.7070658206939697,0,0,0.9172800183296204
0.986225155,0,0,1.4724340438842773,0,0,0.8408399820327759
0.987224993,0,0,1.4197616577148438,0,0,1.070159912109375
0.988224867,0,0,1.414973258972168,0,0,1.223039984703064
0.989225798,0,0,1.37906014919281,0,0,0.8408399820327759
0.99022508,0,0,1.3263877630233765,0,0,0.9172800183296204
0.991224918,0,0,1.4437036514282227,0,0,0.6879600286483765
0.992224867,0,0,1.5394717454910278,0,0,0.7644000053405762
0.993224353,0,0,1.6280571222305298,0,0,0.9172800183296204
0.994222635,0,0,1.6112977266311646,0,0,0.7644000053405762
0.995221751,0,0,1.6065093278884888,0,0,0.5350799560546875
0.996222107,0,0,1.6974890232086182,0,0,0.8408399820327759
0.99722613,0,0,1.4460978507995605,0,0,0.9172800183296204
0.99822445,0,0,1.414973258972168,0,0,0.6879600286483765
0.999224658,0,0,1.3910311460494995,0,0,1.1466000080108643
1.000224422,0,0,1.455674648284912,0,0,0.6879600286483765
1.00122563,0,0,1.335964560508728,0,0,0.6879600286483765
1.002224375,0,0,1.4484920501708984,0,0,0.9937199950218201
1.003224843,0,0,1.5466543436050415,0,0,0.5350799560546875
1.004224384,0,0,1.5897499322891235,0,0,0.9172800183296204
1.005225519,0,0,1.580173134803772,0,0,0.611519992351532
1.006224597,0,0,1.5945383310317993,0,0,0.7644000053405762
1.007224639,0,0,1.7046716213226318,0,0,1.1466000080108643
1.008224569,0,0,1.522712230682373,0,0,0.9172800183296204
1.009225203,0,0,1.4437036514282227,0,0,0.611519992351532
1.010224245,0,0,1.5131354331970215,0,0,1.1466000080108643
1.011224027,0,0,1.3503297567367554,0,0,0.9172800183296204
1.012224124,0,0,1.359906554222107,0,0,0.7644000053405762
1.013248295,0,0,1.4772224426269531,0,0,0.8408399820327759
1.014224115,0,0,1.6400281190872192,0,0,0.7644000053405762
1.015222416,0,0,1.6136919260025024,0,0,1.1466000080108643
1.016221995,0,0,1.534683346748352,0,0,0.3822000026702881
1.017222943,0,0,1.7190368175506592,0,0,0.6879600286483765
1.018221892,0,0,1.6735470294952393,0,0,1.375920057296753
1.019222193,0,0,1.4700398445129395,0,0,0.8408399820327759
1.020221883,0,0,1.4460978507995605,0,0,0.9172800183296204
1.02123161,0,0,1.3551181554794312,0,0,0.7644000053405762
1.022223374,0,0,1.3670891523361206,0,0,0.7644000053405762
1.02322223,0,0,1.436521053314209,0,0,0.8408399820327759
1.02422216,0,0,1.53707754611969,0,0,0.611519992351532
1.025572623,0,0,1.6208745241165161,0,0,0.9172800183296204
1.026230114,0,0,1.6112977266311646,0,0,0.9172800183296204
1.027225767,0,0,1.5729905366897583,0,0,0.3822000026702881
1.028224919,0,0,1.6519991159439087,0,0,0.7644000053405762
1.029226128,0,0,1.45806884765625,0,0,0.9172800183296204
1.030224688,0,0,1.403002142906189,0,0,0.9937199950218201
1.031224822,0,0,1.4508862495422363,0,0,0.6879600286483765
1.032224808,0,0,1.359906554222107,0,0,1.070159912109375
1.033225738,0,0,1.3431471586227417,0,0,0.8408399820327759
1.034224984,0,0,1.4053963422775269,0,0,0.9172800183296204
1.035224858,0,0,1.6208745241165161,0,0,0.6879600286483765
1.036225011,0,0,1.702277421951294,0,0,1.070159912109375
1.037224164,0,0,1.6903064250946045,0,0,1.2994799613952637
1.038221668,0,0,1.5729905366897583,0,0,0.5350799560546875
1.039222395,0,0,1.6855180263519287,0,0,0.8408399820327759
1.040222326,0,0,1.5729905366897583,0,0,0.7644000053405762
1.041225589,0,0,1.4508862495422363,0,0,0.9172800183296204
1.042406591,0,0,1.4173674583435059,0,0,0.9172800183296204
1.043226821,0,0,1.4101848602294922,0,0,0.9172800183296204
1.044225584,0,0,1.3646949529647827,0,0,0.6879600286483765
1.045226182,0,0,1.403002142906189,0,0,0.9937199950218201
1.046257501,0,0,1.5179238319396973,0,0,0.9172800183296204
1.047228524,0,0,1.4987702369689941,0,0,0.6879600286483765
1.04822514,0,0,1.4676456451416016,0,0,1.070159912109375
1.049226589,0,0,1.534683346748352,0,0,0.8408399820327759
1.050224927,0,0,1.6831238269805908,0,0,0.8408399820327759
1.051224968,0,0,1.4077905416488647,0,0,0.9937199950218201
1.052224991,0,0,1.4293384552001953,0,0,0.9937199950218201
1.053225903,0,0,1.3958195447921753,0,0,0.9172800183296204
1.054225,0,0,1.434126853942871,0,0,1.070159912109375
1.055224912,0,0,1.316810965538025,0,0,0.9937199950218201
1.056224769,0,0,1.3192051649093628,0,0,0.7644000053405762
1.057224329,0,0,1.5203180313110352,0,0,0.5350799560546875
1.058222296,0,0,1.522712230682373,0,0,0.7644000053405762
1.059222264,0,0,1.522712230682373,0,0,1.070159912109375
1.060222083,0,0,1.5514427423477173,0,0,0.8408399820327759
1.06122568,0,0,1.6615760326385498,0,0,0.6879600286483765
1.062224814,0,0,1.482010841369629,0,0,0.6879600286483765
1.063224523,0,0,1.4077905416488647,0,0,0.9937199950218201
1.064224731,0,0,1.381454348564148,0,0,0.9937199950218201
1.06522592,0,0,1.4963760375976563,0,0,1.070159912109375
1.0662247950000001,0,0,1.4676456451416016,0,0,0.6879600286483765
1.067225041,0,0,1.4173674583435059,0,0,0.611519992351532
1.068224786,0,0,1.5897499322891235,0,0,0.8408399820327759
1.069225753,0,0,1.6304513216018677,0,0,0.8408399820327759
1.070224851,0,0,1.5083470344543457,0,0,0.9172800183296204
1.071224985,0,0,1.4748282432556152,0,0,0.9937199950218201
1.072224656,0,0,1.5969325304031372,0,0,0.611519992351532
1.073224642,0,0,1.4437036514282227,0,0,0.4586400091648102
1.074222461,0,0,1.522712230682373,0,0,0.9172800183296204
1.075222299,0,0,1.460463047027588,0,0,0.6879600286483765
1.076222322,0,0,1.4867992401123047,0,0,0.8408399820327759
1.077225493,0,0,1.3623007535934448,0,0,0.8408399820327759
1.078224905,0,0,1.436521053314209,0,0,0.9172800183296204
1.079224558,0,0,1.4867992401123047,0,0,0.611519992351532
1.080224489,0,0,1.6184803247451782,0,0,0.7644000053405762
1.081225308,0,0,1.558625340461731,0,0,0.5350799560546875
1.082224627,0,0,1.601720929145813,0,0,0.7644000053405762
1.083224743,0,0,1.5921441316604614,0,0,0.9937199950218201
1.084224136,0,0,1.4293384552001953,0,0,0.8408399820327759
1.085225067,0,0,1.4748282432556152,0,0,0.8408399820327759
1.086224719,0,0,1.359906554222107,0,0,0.9172800183296204
1.087224613,0,0,1.2880805730819702,0,0,0.6879600286483765
1.088224432,0,0,1.3694833517074585,0,0,1.070159912109375
1.089225326,0,0,1.4915876388549805,0,0,0.9937199950218201
1.090224627,0,0,1.580173134803772,0,0,0.6879600286483765
1.091224557,0,0,1.5394717454910278,0,0,1.070159912109375
1.09222458,0,0,1.5610195398330688,0,0,0.3822000026702881
1.093225251,0,0,1.7070658206939697,0,0,0.7644000053405762
1.0942247,0,0,1.5658079385757446,0,0,0.9172800183296204
1.095224557,0,0,1.3958195447921753,0,0,0.7644000053405762
1.096224302,0,0,1.522712230682373,0,0,0.9937199950218201
1.097225399,0,0,1.5179238319396973,0,0,0.9172800183296204
1.098224589,0,0,1.3910311460494995,0,0,0.8408399820327759
1.09922439,0,0,1.3479355573654175,0,0,0.9172800183296204
1.100224376,0,0,1.5131354331970215,0,0,0.8408399820327759
1.101225454,0,0,1.6065093278884888,0,0,0.4586400091648102
1.102237051,0,0,1.6400281190872192,0,0,1.452359914779663
1.1032255,0,0,1.5107412338256836,0,0,0.3822000026702881
1.104224764,0,0,1.723825216293335,0,0,0.7644000053405762
1.105224806,0,0,1.5131354331970215,0,0,0.9172800183296204
1.106224014,0,0,1.4437036514282227,0,0,0.8408399820327759
1.107224593,0,0,1.4532804489135742,0,0,0.9172800183296204
1.108224523,0,0,1.3862427473068237,0,0,0.9937199950218201
1.109224546,0,0,1.3742717504501343,0,0,0.8408399820327759
1.110224477,0,0,1.4652514457702637,0,0,0.8408399820327759
1.111229388,0,0,1.5514427423477173,0,0,0.7644000053405762
1.112226689,0,0,1.556231141090393,0,0,0.6879600286483765
1.113225138,0,0,1.5203180313110352,0,0,1.223039984703064
1.114224865,0,0,1.5107412338256836,0,0,0.0764399990439415
1.115224814,0,0,1.6065093278884888,0,0,1.1466000080108643
1.11622467,0,0,1.4437036514282227,0,0,0.9937199950218201
1.117224638,0,0,1.4437036514282227,0,0,1.070159912109375
1.118224661,0,0,1.5466543436050415,0,0,0.9172800183296204
1.11922448,0,0,1.4772224426269531,0,0,0.9172800183296204
1.120224652,0,0,1.357512354850769,0,0,0.8408399820327759
1.121230397,0,0,1.41257905960083,0,0,0.9937199950218201
1.122223531,0,0,1.41257905960083,0,0,0.611519992351532
1.123222721,0,0,1.5729905366897583,0,0,0.8408399820327759
1.124221818,0,0,1.6112977266311646,0,0,1.223039984703064
1.125226526,0,0,1.601720929145813,0,0,0.5350799560546875
1.126225142,0,0,1.6065093278884888,0,0,0.7644000053405762
1.127225017,0,0,1.6903064250946045,0,0,0.7644000053405762
1.128224243,0,0,1.5155296325683594,0,0,0.9172800183296204
1.129226026,0,0,1.4628572463989258,0,0,1.070159912109375
1.130224919,0,0,1.403002142906189,0,0,0.8408399820327759
1.131224813,0,0,1.3646949529647827,0,0,0.8408399820327759
1.132226928,0,0,1.50355863571167,0,0,1.070159912109375
1.133361023,0,0,1.50355863571167,0,0,0.7644000053405762
1.134225715,0,0,1.5969325304031372,0,0,0.6879600286483765
1.135225053,0,0,1.647210717201233,0,0,0.9937199950218201
1.136225187,0,0,1.623268723487854,0,0,0.7644000053405762
1.137225969,0,0,1.5921441316604614,0,0,0.6879600286483765
1.138224752,0,0,1.6519991159439087,0,0,0.6879600286483765
1.139224849,0,0,1.460463047027588,0,0,0.6879600286483765
1.1402250569999999,0,0,1.5442601442337036,0,0,0.9937199950218201
1.1412258020000001,0,0,1.50355863571167,0,0,0.8408399820327759
1.142225066,0,0,1.4915876388549805,0,0,0.8408399820327759
1.143224848,0,0,1.4245500564575195,0,0,0.8408399820327759
1.144224816,0,0,1.5538369417190552,0,0,0.6879600286483765
1.145224469,0,0,1.5969325304031372,0,0,0.5350799560546875
1.146221881,0,0,1.6663644313812256,0,0,0.611519992351532
1.147222441,0,0,1.623268723487854,0,0,0.5350799560546875
1.148222205,0,0,1.6376339197158813,0,0,0.9172800183296204
1.149225228,0,0,1.5969325304031372,0,0,0.9172800183296204
1.150224769,0,0,1.455674648284912,0,0,0.7644000053405762
1.1512252,0,0,1.5753847360610962,0,0,0.9937199950218201
1.152224982,0,0,1.4437036514282227,0,0,0.7644000053405762
1.153225801,0,0,1.359906554222107,0,0,0.8408399820327759
1.1542250840000001,0,0,1.434126853942871,0,0,0.9172800183296204
1.155224829,0,0,1.5873557329177856,0,0,0.8408399820327759
1.156225019,0,0,1.6328455209732056,0,0,0.7644000053405762
1.157225801,0,0,1.6160861253738403,0,0,0.611519992351532
1.158224991,0,0,1.50355863571167,0,0,1.070159912109375
1.159225032,0,0,1.601720929145813,0,0,1.223039984703064
1.160224833,0,0,1.5514427423477173,0,0,0.7644000053405762
1.161237967,0,0,1.3527239561080933,0,0,0.8408399820327759
1.16222325,0,0,1.4891934394836426,0,0,0.8408399820327759
1.163222347,0,0,1.434126853942871,0,0,0.6879600286483765
1.164223018,0,0,1.37906014919281,0,0,0.611519992351532
1.165227171,0,0,1.3982137441635132,0,0,0.8408399820327759
1.166224971,0,0,1.45806884765625,0,0,0.6879600286483765
1.167224531,0,0,1.5610195398330688,0,0,0.9172800183296204
1.16822461,0,0,1.5538369417190552,0,0,0.152879998087883
1.169225263,0,0,1.5490485429763794,0,0,0.8408399820327759
1.170224508,0,0,1.6879122257232666,0,0,1.070159912109375
1.171223994,0,0,1.558625340461731,0,0,0.611519992351532
1.172224425,0,0,1.4269442558288574,0,0,0.8408399820327759
1.173225299,0,0,1.460463047027588,0,0,0.9937199950218201
1.174224434,0,0,1.400607943534851,0,0,0.8408399820327759
1.1752244570000001,0,0,1.3982137441635132,0,0,0.8408399820327759
1.176224665,0,0,1.3694833517074585,0,0,0.9172800183296204
1.177224688,0,0,1.5897499322891235,0,0,0.9172800183296204
1.17822447,0,0,1.659181833267212,0,0,1.375920057296753
1.179224271,0,0,1.6879122257232666,0,0,0.2293200045824051
1.180224627,0,0,1.6041151285171509,0,0,0.6879600286483765
1.181225688,0,0,1.766920804977417,0,0,1.070159912109375
1.182224525,0,0,1.5155296325683594,0,0,0.611519992351532
1.183224493,0,0,1.4173674583435059,0,0,0.7644000053405762
1.184224516,0,0,1.3886369466781616,0,0,1.223039984703064
1.185225502,0,0,1.4221558570861816,0,0,0.9172800183296204
1.186224599,0,0,1.3766659498214722,0,0,0.9172800183296204
1.187224326,0,0,1.4293384552001953,0,0,0.8408399820327759
1.18822446,0,0,1.5538369417190552,0,0,0.6879600286483765
1.189225113,0,0,1.5849615335464478,0,0,1.223039984703064
1.190224377,0,0,1.5466543436050415,0,0,0.2293200045824051
1.191224307,0,0,1.4987702369689941,0,0,0.7644000053405762
1.192223923,0,0,1.699883222579956,0,0,0.9172800183296204
1.193225075,0,0,1.4437036514282227,0,0,0.8408399820327759
1.194224321,0,0,1.436521053314209,0,0,0.8408399820327759
1.195224621,0,0,1.460463047027588,0,0,0.7644000053405762
1.196224478,0,0,1.4077905416488647,0,0,0.9937199950218201
1.197225612,0,0,1.335964560508728,0,0,0.7644000053405762
1.198224487,0,0,1.3718775510787964,0,0,0.7644000053405762
1.199224343,0,0,1.4293384552001953,0,0,0.5350799560546875
1.2002243479999999,0,0,1.5275006294250488,0,0,1.452359914779663
1.201225334,0,0,1.5466543436050415,0,0,0.7644000053405762
1.202224561,0,0,1.6065093278884888,0,0,0.8408399820327759
1.20322438,0,0,1.647210717201233,0,0,0.7644000053405762
1.20422444,0,0,1.3000515699386597,0,0,0.9172800183296204
1.205225537,0,0,1.403002142906189,0,0,1.1466000080108643
1.206224468,0,0,1.3718775510787964,0,0,0.7644000053405762
1.207224454,0,0,1.3694833517074585,0,0,0.7644000053405762
1.208224347,0,0,1.400607943534851,0,0,1.1466000080108643
1.209225074,0,0,1.4844050407409668,0,0,0.9172800183296204
1.210224171,0,0,1.5897499322891235,0,0,0.5350799560546875
1.2112238419999999,0,0,1.558625340461731,0,0,1.1466000080108643
1.212240884,0,0,1.5131354331970215,0,0,0.9172800183296204
1.213241407,0,0,1.6041151285171509,0,0,0.9172800183296204
1.214223541,0,0,1.6831238269805908,0,0,0.9172800183296204
1.215222453,0,0,1.50355863571167,0,0,0.9937199950218201
1.216222346,0,0,1.4676456451416016,0,0,1.070159912109375
1.217222777,0,0,1.4173674583435059,0,0,0.611519992351532
1.218221985,0,0,1.357512354850769,0,0,0.6879600286483765
1.219222064,0,0,1.41257905960083,0,0,0.8408399820327759
1.2202220129999999,0,0,1.501164436340332,0,0,0.7644000053405762
1.22123098,0,0,1.5729905366897583,0,0,0.6879600286483765
1.222223337,0,0,1.580173134803772,0,0,0.5350799560546875
1.223222415,0,0,1.580173134803772,0,0,0.8408399820327759
1.224222179,0,0,1.6903064250946045,0,0,0.8408399820327759
1.225226165,0,0,1.5322890281677246,0,0,0.8408399820327759
1.22622517,0,0,1.4652514457702637,0,0,0.7644000053405762
1.227225081,0,0,1.5538369417190552,0,0,0.9172800183296204
1.228225105,0,0,1.3527239561080933,0,0,0.7644000053405762
1.229226276,0,0,1.3479355573654175,0,0,0.8408399820327759
1.23022491,0,0,1.3431471586227417,0,0,0.7644000053405762
1.231224803,0,0,1.5298948287963867,0,0,0.8408399820327759
1.232224326,0,0,1.5298948287963867,0,0,0.8408399820327759
1.233225998,0,0,1.5849615335464478,0,0,0.7644000053405762
1.234225039,0,0,1.5514427423477173,0,0,0.7644000053405762
1.235224914,0,0,1.6687586307525635,0,0,0.8408399820327759
1.236224326,0,0,1.5514427423477173,0,0,0.8408399820327759
1.237224479,0,0,1.4532804489135742,0,0,0.7644000053405762
1.2382223350000001,0,0,1.534683346748352,0,0,0.8408399820327759
1.2392222099999999,0,0,1.4963760375976563,0,0,0.9937199950218201
1.240222307,0,0,1.3934253454208374,0,0,0.9172800183296204
1.241225571,0,0,1.4293384552001953,0,0,0.9937199950218201
1.24222515,0,0,1.4987702369689941,0,0,0.7644000053405762
1.243224839,0,0,1.5490485429763794,0,0,1.070159912109375
1.244224436,0,0,1.6112977266311646,0,0,0.305759996175766
1.245225515,0,0,1.7836803197860718,0,0,0.611519992351532
1.246432276,0,0,1.7836803197860718,0,0,0.8408399820327759
1.247226043,0,0,1.434126853942871,0,0,1.1466000080108643
1.248225343,0,0,1.3982137441635132,0,0,0.5350799560546875
1.249226144,0,0,1.4437036514282227,0,0,0.7644000053405762
1.250225038,0,0,1.41257905960083,0,0,0.7644000053405762
1.251224968,0,0,1.434126853942871,0,0,0.611519992351532
1.25222501,0,0,1.4245500564575195,0,0,0.6879600286483765
1.253225959,0,0,1.5538369417190552,0,0,0.6879600286483765
1.254224723,0,0,1.623268723487854,0,0,1.2994799613952637
1.255225153,0,0,1.6496049165725708,0,0,0.152879998087883
1.256227565,0,0,1.5322890281677246,0,0,0.6879600286483765
1.257226366,0,0,1.702277421951294,0,0,0.9937199950218201
1.258225018,0,0,1.4867992401123047,0,0,0.8408399820327759
1.259225134,0,0,1.5298948287963867,0,0,0.7644000053405762
1.260225194,0,0,1.4939818382263184,0,0,1.223039984703064
1.2612258650000001,0,0,1.4269442558288574,0,0,0.8408399820327759
1.262225,0,0,1.4077905416488647,0,0,0.8408399820327759
1.263225171,0,0,1.5418659448623657,0,0,0.8408399820327759
1.264225046,0,0,1.6184803247451782,0,0,0.9172800183296204
1.265224421,0,0,1.5490485429763794,0,0,1.1466000080108643
1.266289924,0,0,1.5682021379470825,0,0,0.2293200045824051
1.267227689,0,0,1.6136919260025024,0,0,1.070159912109375
1.268352303,0,0,1.7166426181793213,0,0,0.9937199950218201
1.2692267720000001,0,0,1.4772224426269531,0,0,0.7644000053405762
1.270225277,0,0,1.4676456451416016,0,0,0.8408399820327759
1.2712250219999999,0,0,1.525106430053711,0,0,1.070159912109375
1.272225156,0,0,1.4844050407409668,0,0,0.611519992351532
1.273226161,0,0,1.4077905416488647,0,0,0.7644000053405762
1.274225387,0,0,1.4460978507995605,0,0,0.7644000053405762
1.275227096,0,0,1.5275006294250488,0,0,0.7644000053405762
1.276225285,0,0,1.5394717454910278,0,0,1.070159912109375
1.277225882,0,0,1.479616641998291,0,0,0.5350799560546875
1.27822498,0,0,1.6065093278884888,0,0,1.070159912109375
1.279224577,0,0,1.6974890232086182,0,0,0.9172800183296204
1.280225044,0,0,1.4413094520568848,0,0,0.8408399820327759
1.281225938,0,0,1.4939818382263184,0,0,1.070159912109375
1.282225035,0,0,1.3910311460494995,0,0,0.8408399820327759
1.283225039,0,0,1.3718775510787964,0,0,0.7644000053405762
1.284225099,0,0,1.359906554222107,0,0,1.1466000080108643
1.285224548,0,0,1.3910311460494995,0,0,0.5350799560546875
1.286222405,0,0,1.5442601442337036,0,0,0.5350799560546875
1.287222372,0,0,1.6136919260025024,0,0,0.5350799560546875
1.288222303,0,0,1.556231141090393,0,0,0.9172800183296204
1.289225474,0,0,1.644816517829895,0,0,1.070159912109375
1.2902252189999999,0,0,1.5275006294250488,0,0,0.8408399820327759
1.291225076,0,0,1.3623007535934448,0,0,0.6879600286483765
1.2922251359999999,0,0,1.482010841369629,0,0,1.1466000080108643
1.293226066,0,0,1.4676456451416016,0,0,0.611519992351532
1.294224923,0,0,1.403002142906189,0,0,0.7644000053405762
1.29522489,0,0,1.3862427473068237,0,0,0.9172800183296204
1.296224969,0,0,1.4867992401123047,0,0,0.9172800183296204
1.297225732,0,0,1.53707754611969,0,0,0.7644000053405762
1.298224885,0,0,1.5658079385757446,0,0,0.4586400091648102
1.299224964,0,0,1.4987702369689941,0,0,0.9937199950218201
1.300224802,0,0,1.6855180263519287,0,0,1.070159912109375
1.301224028,0,0,1.5945383310317993,0,0,0.6879600286483765
1.3022223849999999,0,0,1.41257905960083,0,0,0.9172800183296204
1.303222315,0,0,1.5179238319396973,0,0,1.2994799613952637
1.304222301,0,0,1.4053963422775269,0,0,0.6879600286483765
1.3052251209999999,0,0,1.4269442558288574,0,0,0.9172800183296204
1.306224958,0,0,1.4460978507995605,0,0,0.7644000053405762
1.307224741,0,0,1.4628572463989258,0,0,0.611519992351532
1.308224542,0,0,1.5514427423477173,0,0,0.9172800183296204
1.3092258239999999,0,0,1.678335428237915,0,0,0.0764399990439415
1.31022468,0,0,1.6089035272598267,0,0,0.9172800183296204
1.311224611,0,0,1.7717092037200928,0,0,0.7644000053405762
1.312224467,0,0,1.4891934394836426,0,0,0.7644000053405762
1.313225601,0,0,1.3623007535934448,0,0,0.611519992351532
1.314224532,0,0,1.3982137441635132,0,0,0.8408399820327759
1.315224629,0,0,1.3072341680526733,0,0,0.7644000053405762
1.3162246149999999,0,0,1.4053963422775269,0,0,0.9172800183296204
1.31722549,0,0,1.4245500564575195,0,0,0.6879600286483765
1.318224661,0,0,1.558625340461731,0,0,0.8408399820327759
1.319224684,0,0,1.6903064250946045,0,0,1.5288000106811523
1.3202245590000001,0,0,1.5538369417190552,0,0,0.3822000026702881
1.321232582,0,0,1.5466543436050415,0,0,0.8408399820327759
1.32222729,0,0,1.6974890232086182,0,0,0.5350799560546875
1.323225906,0,0,1.3742717504501343,0,0,0.8408399820327759
1.324225059,0,0,1.4053963422775269,0,0,0.6879600286483765
1.325226415,0,0,1.4939818382263184,0,0,0.6879600286483765
1.326225049,0,0,1.4963760375976563,0,0,0.9172800183296204
1.327225128,0,0,1.3982137441635132,0,0,0.9172800183296204
1.3282249099999999,0,0,1.5107412338256836,0,0,1.070159912109375
1.329226211,0,0,1.53707754611969,0,0,0.8408399820327759
1.330225253,0,0,1.5322890281677246,0,0,1.605239987373352
1.331238127,0,0,1.4197616577148438,0,0,0.6879600286483765
1.332225632,0,0,1.5634137392044067,0,0,1.1466000080108643
1.333224766,0,0,1.702277421951294,0,0,0.6879600286483765
1.334222548,0,0,1.4460978507995605,0,0,1.070159912109375
1.33522246,0,0,1.4700398445129395,0,0,0.9172800183296204
1.336222261,0,0,1.4293384552001953,0,0,0.9937199950218201
1.337225858,0,0,1.3718775510787964,0,0,0.9172800183296204
1.338225011,0,0,1.3982137441635132,0,0,0.8408399820327759
1.339225238,0,0,1.4748282432556152,0,0,0.8408399820327759
1.3402246500000001,0,0,1.5466543436050415,0,0,0.7644000053405762
1.3412263580000001,0,0,1.5682021379470825,0,0,1.223039984703064
1.34222514,0,0,1.5107412338256836,0,0,0.611519992351532
1.343225034,0,0,1.6160861253738403,0,0,0.9172800183296204
1.344224668,0,0,1.5442601442337036,0,0,0.6879600286483765
1.345226228,0,0,1.3982137441635132,0,0,0.9172800183296204
1.346225103,0,0,1.4508862495422363,0,0,0.8408399820327759
1.3472251069999999,0,0,1.4293384552001953,0,0,0.611519992351532
1.348224964,0,0,1.482010841369629,0,0,0.6879600286483765
1.349224524,0,0,1.4389152526855469,0,0,0.9937199950218201
1.350222177,0,0,1.4987702369689941,0,0,0.6879600286483765
1.351222255,0,0,1.5873557329177856,0,0,0.7644000053405762
1.352222297,0,0,1.5322890281677246,0,0,0.8408399820327759
1.353236005,0,0,1.5394717454910278,0,0,0.8408399820327759
1.3542252129999999,0,0,1.7525556087493896,0,0,0.9172800183296204
1.355224644,0,0,1.5610195398330688,0,0,0.9172800183296204
1.356224685,0,0,1.4748282432556152,0,0,0.6879600286483765
1.357224931,0,0,1.45806884765625,0,0,0.9172800183296204
1.3582248049999999,0,0,1.400607943534851,0,0,1.070159912109375
1.359224329,0,0,1.2952631711959839,0,0,0.9172800183296204
1.360224648,0,0,1.3551181554794312,0,0,0.7644000053405762
1.361224764,0,0,1.6112977266311646,0,0,0.611519992351532
1.362224213,0,0,1.659181833267212,0,0,0.8408399820327759
1.363224662,0,0,1.5155296325683594,0,0,0.611519992351532
1.364224592,0,0,1.4173674583435059,0,0,1.070159912109375
1.365224504,0,0,1.6376339197158813,0,0,0.8408399820327759
1.366224675,0,0,1.4173674583435059,0,0,0.6879600286483765
1.367224698,0,0,1.3862427473068237,0,0,0.8408399820327759
1.368224666,0,0,1.460463047027588,0,0,0.7644000053405762
1.3692260410000001,0,0,1.482010841369629,0,0,0.8408399820327759
1.370224582,0,0,1.3982137441635132,0,0,0.8408399820327759
1.371224624,0,0,1.4221558570861816,0,0,0.8408399820327759
1.372224739,0,0,1.5514427423477173,0,0,0.6879600286483765
1.373225707,0,0,1.522712230682373,0,0,0.9937199950218201
1.374224748,0,0,1.4844050407409668,0,0,0.3822000026702881
1.375224623,0,0,1.4652514457702637,0,0,0.6879600286483765
1.376224554,0,0,1.6352397203445435,0,0,0.8408399820327759
1.377224577,0,0,1.482010841369629,0,0,0.9937199950218201
1.378222359,0,0,1.4891934394836426,0,0,0.8408399820327759
1.379222419,0,0,1.3766659498214722,0,0,1.070159912109375
1.380222405,0,0,1.3958195447921753,0,0,0.8408399820327759
1.3812256139999999,0,0,1.2761094570159912,0,0,0.8408399820327759
1.382224451,0,0,1.434126853942871,0,0,0.9172800183296204
1.38320379,0,0,1.5825673341751099,0,0,0.7644000053405762
1.384230683,0,0,1.5945383310317993,0,0,1.2994799613952637
1.385226909,0,0,1.6089035272598267,0,0,0.3822000026702881
1.386224803,0,0,1.659181833267212,0,0,0.8408399820327759
1.387224419,0,0,1.6831238269805908,0,0,0.8408399820327759
1.388224571,0,0,1.4652514457702637,0,0,0.611519992351532
1.389225724,0,0,1.4867992401123047,0,0,0.9937199950218201
1.39022458,0,0,1.3215993642807007,0,0,1.070159912109375
1.391224826,0,0,1.359906554222107,0,0,0.8408399820327759
1.39234331,0,0,1.335964560508728,0,0,1.1466000080108643
1.393227316,0,0,1.4939818382263184,0,0,0.8408399820327759
1.394224969,0,0,1.6352397203445435,0,0,0.9172800183296204
1.395224788,0,0,1.5729905366897583,0,0,1.2994799613952637
1.396224978,0,0,1.5298948287963867,0,0,0.611519992351532
1.397226001,0,0,1.6352397203445435,0,0,0.9172800183296204
1.398225043,0,0,1.6711528301239014,0,0,0.6879600286483765
1.399224917,0,0,1.41257905960083,0,0,0.8408399820327759
1.400224959,0,0,1.4389152526855469,0,0,1.070159912109375
1.401224482,0,0,1.4293384552001953,0,0,0.6879600286483765
1.402222468,0,0,1.3527239561080933,0,0,0.7644000053405762
1.403222065,0,0,1.3311761617660522,0,0,0.7644000053405762
1.404222181,0,0,1.400607943534851,0,0,0.9172800183296204
1.4052248889999999,0,0,1.6041151285171509,0,0,0.7644000053405762
1.4062247079999999,0,0,1.6400281190872192,0,0,0.8408399820327759
1.407224324,0,0,1.522712230682373,0,0,1.070159912109375
1.408224014,0,0,1.647210717201233,0,0,1.223039984703064
1.409225778,0,0,1.6112977266311646,0,0,0.8408399820327759
1.41022456,0,0,1.3527239561080933,0,0,1.070159912109375
1.411224361,0,0,1.4867992401123047,0,0,0.9937199950218201
1.412421714,0,0,1.3934253454208374,0,0,0.5350799560546875
1.4132237220000001,0,0,1.3646949529647827,0,0,0.611519992351532
1.414222393,0,0,1.436521053314209,0,0,0.9172800183296204
1.415222286,0,0,1.525106430053711,0,0,0.611519992351532
1.416221939,0,0,1.6112977266311646,0,0,0.6879600286483765
1.4172223879999999,0,0,1.644816517829895,0,0,0.9172800183296204
1.418222041,0,0,1.5418659448623657,0,0,0.9172800183296204
1.419222175,0,0,1.6496049165725708,0,0,1.223039984703064
1.420221939,0,0,1.6184803247451782,0,0,0.611519992351532
1.42122948,0,0,1.4437036514282227,0,0,0.6879600286483765
1.422223744,0,0,1.482010841369629,0,0,0.8408399820327759
1.423222082,0,0,1.4173674583435059,0,0,0.8408399820327759
1.424222216,0,0,1.381454348564148,0,0,0.6879600286483765
1.425225906,0,0,1.455674648284912,0,0,0.9172800183296204
1.426225244,0,0,1.4939818382263184,0,0,0.6879600286483765
1.427224878,0,0,1.6424223184585571,0,0,1.070159912109375
1.428224919,0,0,1.601720929145813,0,0,0.5350799560546875
1.4292247200000001,0,0,1.53707754611969,0,0,0.5350799560546875
1.430221799,0,0,1.7501614093780518,0,0,0.9172800183296204
1.431222303,0,0,1.4413094520568848,0,0,0.9172800183296204
1.432222086,0,0,1.4389152526855469,0,0,0.8408399820327759
1.437236738,0,0,1.4389152526855469,0,0,0.5350799560546875
1.437470864,0,0,1.525106430053711,0,0,0.5350799560546875
1.4376365469999999,0,0,1.525106430053711,0,0,0.2293200045824051
1.437801082,0,0,1.525106430053711,0,0,0.2293200045824051
1.437966005,0,0,1.525106430053711,0,0,1.1466000080108643
1.438229557,0,0,1.534683346748352,0,0,1.2994799613952637
1.439233025,0,0,1.50355863571167,0,0,0.3822000026702881
1.440228585,0,0,1.6089035272598267,0,0,0.7644000053405762
1.441870469,0,0,1.6089035272598267,0,0,0.9172800183296204
1.442244483,0,0,1.4053963422775269,0,0,0.7644000053405762
1.443230154,0,0,1.460463047027588,0,0,0.9937199950218201
1.444228936,0,0,1.4844050407409668,0,0,0.6879600286483765
1.445227496,0,0,1.4508862495422363,0,0,0.7644000053405762
1.4462235749999999,0,0,1.3958195447921753,0,0,1.1466000080108643
1.447229746,0,0,1.3934253454208374,0,0,0.6879600286483765
1.448224158,0,0,1.6065093278884888,0,0,0.9172800183296204
1.449225626,0,0,1.6400281190872192,0,0,1.070159912109375
1.4502284269999999,0,0,1.556231141090393,0,0,0.4586400091648102
1.451224357,0,0,1.599326729774475,0,0,0.611519992351532
1.452231899,0,0,1.680729627609253,0,0,0.9172800183296204
1.45322807,0,0,1.4437036514282227,0,0,0.9172800183296204
1.454228241,0,0,1.414973258972168,0,0,0.9172800183296204
1.455226468,0,0,1.3646949529647827,0,0,0.9937199950218201
1.45622438,0,0,1.3335703611373901,0,0,0.611519992351532
1.4572260510000001,0,0,1.338358759880066,0,0,0.7644000053405762
1.458224759,0,0,1.455674648284912,0,0,0.8408399820327759
1.4592248190000001,0,0,1.6424223184585571,0,0,0.611519992351532
1.460239675,0,0,1.659181833267212,0,0,1.1466000080108643
1.461228551,0,0,1.5873557329177856,0,0,0.5350799560546875
1.462224888,0,0,1.6543933153152466,0,0,0.9172800183296204
1.463224597,0,0,1.6615760326385498,0,0,0.9172800183296204
1.4642246380000001,0,0,1.4867992401123047,0,0,0.7644000053405762
1.465230587,0,0,1.534683346748352,0,0,1.070159912109375
1.466226888,0,0,1.434126853942871,0,0,0.8408399820327759
1.467224022,0,0,1.3766659498214722,0,0,0.5350799560546875
1.468224342,0,0,1.414973258972168,0,0,0.7644000053405762
1.469226328,0,0,1.5634137392044067,0,0,0.7644000053405762
1.470225295,0,0,1.580173134803772,0,0,1.070159912109375
1.471292595,0,0,1.5682021379470825,0,0,0.6879600286483765
1.472231341,0,0,1.5490485429763794,0,0,0.9172800183296204
1.473228309,0,0,1.7070658206939697,0,0,0.8408399820327759
1.47422748,0,0,1.5658079385757446,0,0,0.8408399820327759
1.475340909,0,0,1.4844050407409668,0,0,0.8408399820327759
1.476655039,0,0,1.4844050407409668,0,0,0.8408399820327759
1.477271845,0,0,1.414973258972168,0,0,0.9172800183296204
1.4782684050000001,0,0,1.4245500564575195,0,0,0.7644000053405762
1.4792656690000001,0,0,1.45806884765625,0,0,0.9172800183296204
1.480300099,0,0,1.558625340461731,0,0,0.5350799560546875
1.481294474,0,0,1.721431016921997,0,0,1.2994799613952637
1.482310793,0,0,1.6400281190872192,0,0,0.611519992351532
1.483247113,0,0,1.5825673341751099,0,0,0.9172800183296204
1.484265191,0,0,1.721431016921997,0,0,0.9172800183296204
1.485254992,0,0,1.525106430053711,0,0,0.4586400091648102
1.486244293,0,0,1.4269442558288574,0,0,0.6879600286483765
1.487287686,0,0,1.4293384552001953,0,0,0.9937199950218201
1.488239228,0,0,1.3934253454208374,0,0,0.7644000053405762
1.489249325,0,0,1.357512354850769,0,0,0.7644000053405762
1.490253367,0,0,1.3048399686813354,0,0,0.9937199950218201
1.491251705,0,0,1.4891934394836426,0,0,0.6879600286483765
1.492225413,0,0,1.5897499322891235,0,0,0.9172800183296204
1.493225974,0,0,1.580173134803772,0,0,0.152879998087883
1.494223849,0,0,1.6831238269805908,0,0,0.8408399820327759
1.495223409,0,0,1.6855180263519287,0,0,1.070159912109375
1.496223635,0,0,1.4844050407409668,0,0,0.6879600286483765
1.497224436,0,0,1.4628572463989258,0,0,0.9172800183296204
1.498223626,0,0,1.3958195447921753,0,0,1.223039984703064
1.499223482,0,0,1.3239935636520386,0,0,0.6879600286483765
1.500223394,0,0,1.3934253454208374,0,0,0.7644000053405762
1.501225158,0,0,1.4867992401123047,0,0,0.6879600286483765
1.502236014,0,0,1.558625340461731,0,0,0.8408399820327759
1.503224426,0,0,1.6831238269805908,0,0,0.9172800183296204
1.5042235609999999,0,0,1.6041151285171509,0,0,0.7644000053405762
1.5052237499999999,0,0,1.6927006244659424,0,0,0.9172800183296204
1.50622357,0,0,1.7477672100067139,0,0,0.8408399820327759
1.5072234820000001,0,0,1.4700398445129395,0,0,0.9172800183296204
1.508223412,0,0,1.5275006294250488,0,0,0.6879600286483765
1.5092285090000002,0,0,1.4772224426269531,0,0,1.1466000080108643
1.5102264399999998,0,0,1.4077905416488647,0,0,0.8408399820327759
1.511226389,0,0,1.3934253454208374,0,0,0.9937199950218201
1.512226356,0,0,1.479616641998291,0,0,0.6879600286483765
1.513224898,0,0,1.5897499322891235,0,0,0.6879600286483765
1.5142233840000001,0,0,1.6208745241165161,0,0,0.9937199950218201
1.515223444,0,0,1.5897499322891235,0,0,0.611519992351532
1.51622293,0,0,1.6304513216018677,0,0,0.8408399820327759
1.517226768,0,0,1.5658079385757446,0,0,0.9172800183296204
1.518225902,0,0,1.414973258972168,0,0,0.7644000053405762
1.519225906,0,0,1.4844050407409668,0,0,0.9937199950218201
1.520225948,0,0,1.4628572463989258,0,0,0.7644000053405762
1.5212276930000002,0,0,1.3407529592514038,0,0,1.070159912109375
1.5222257529999998,0,0,1.3958195447921753,0,0,0.7644000053405762
1.523225684,0,0,1.403002142906189,0,0,0.8408399820327759
1.524245262,0,0,1.556231141090393,0,0,0.6879600286483765
1.5252281189999999,0,0,1.6663644313812256,0,0,1.070159912109375
1.52622642,0,0,1.5059528350830078,0,0,0.6879600286483765
1.52722648,0,0,1.6352397203445435,0,0,1.070159912109375
1.528226299,0,0,1.534683346748352,0,0,0.7644000053405762
1.5292268409999998,0,0,1.3287819623947144,0,0,0.8408399820327759
1.5302264559999998,0,0,1.3982137441635132,0,0,0.9172800183296204
1.531226313,0,0,1.4389152526855469,0,0,0.9172800183296204
1.5322263729999999,0,0,1.4484920501708984,0,0,0.8408399820327759
1.5332248769999999,0,0,1.4508862495422363,0,0,0.6879600286483765
1.5342236040000001,0,0,1.4508862495422363,0,0,0.9172800183296204
1.5352234230000001,0,0,1.4748282432556152,0,0,0.611519992351532
1.536223576,0,0,1.5753847360610962,0,0,1.070159912109375
1.5372275069999999,0,0,1.5538369417190552,0,0,0.8408399820327759
1.5382260300000001,0,0,1.7190368175506592,0,0,1.223039984703064
1.539226293,0,0,1.6304513216018677,0,0,0.7644000053405762
1.540226168,0,0,1.414973258972168,0,0,0.8408399820327759
1.54122771,0,0,1.4317326545715332,0,0,1.070159912109375
1.5422263630000002,0,0,1.3862427473068237,0,0,0.7644000053405762
1.5432262190000001,0,0,1.3910311460494995,0,0,0.9172800183296204
1.54422639,0,0,1.37906014919281,0,0,0.7644000053405762
1.545227358,0,0,1.4724340438842773,0,0,0.6879600286483765
1.546226288,0,0,1.5825673341751099,0,0,0.8408399820327759
1.5472261440000001,0,0,1.6112977266311646,0,0,1.1466000080108643
1.548226112,0,0,1.5203180313110352,0,0,0.8408399820327759
1.549225913,0,0,1.7262194156646729,0,0,0.9937199950218201
1.550223473,0,0,1.5394717454910278,0,0,0.8408399820327759
1.551223552,0,0,1.3742717504501343,0,0,0.8408399820327759
1.552223667,0,0,1.434126853942871,0,0,1.2994799613952637
1.5532270609999999,0,0,1.41257905960083,0,0,0.9172800183296204
1.554226195,0,0,1.359906554222107,0,0,0.9172800183296204
1.5552257919999999,0,0,1.4915876388549805,0,0,1.452359914779663
1.5562254260000001,0,0,1.558625340461731,0,0,0.6879600286483765
1.557227282,0,0,1.6543933153152466,0,0,0.5350799560546875
1.558225972,0,0,1.647210717201233,0,0,0.0764399990439415
1.55922568,0,0,1.4987702369689941,0,0,0.7644000053405762
1.560226037,0,0,1.3623007535934448,0,0,0.7644000053405762
1.562800705,0,0,1.3623007535934448,0,0,0.5350799560546875
1.562970869,0,0,1.3623007535934448,0,0,0.9937199950218201
1.5636446,0,0,1.4437036514282227,0,0,1.070159912109375
1.564229277,0,0,1.434126853942871,0,0,0.7644000053405762
1.565227319,0,0,1.3527239561080933,0,0,0.9172800183296204
1.566226916,0,0,1.3766659498214722,0,0,0.8408399820327759
1.5672263279999998,0,0,1.501164436340332,0,0,0.3822000026702881
1.568226332,0,0,1.5753847360610962,0,0,0.9172800183296204
1.5692250589999999,0,0,1.6160861253738403,0,0,0.5350799560546875
1.570223675,0,0,1.659181833267212,0,0,1.070159912109375
1.571223402,0,0,1.6328455209732056,0,0,0.8408399820327759
1.572223665,0,0,1.4245500564575195,0,0,0.9172800183296204
1.573226837,0,0,1.4508862495422363,0,0,0.9172800183296204
1.5742261929999999,0,0,1.3431471586227417,0,0,0.9172800183296204
1.575225975,0,0,1.4269442558288574,0,0,0.7644000053405762
1.576226109,0,0,1.4245500564575195,0,0,0.611519992351532
1.577226244,0,0,1.5538369417190552,0,0,0.9937199950218201
1.578226044,0,0,1.5490485429763794,0,0,0.5350799560546875
1.579225697,0,0,1.5610195398330688,0,0,1.1466000080108643
1.5802258500000002,0,0,1.5059528350830078,0,0,0.611519992351532
1.5812277620000001,0,0,1.522712230682373,0,0,0.6879600286483765
1.582225174,0,0,1.6879122257232666,0,0,0.6879600286483765
1.5832259560000002,0,0,1.4173674583435059,0,0,0.611519992351532
1.584225683,0,0,1.460463047027588,0,0,0.7644000053405762
1.5852266689999999,0,0,1.4460978507995605,0,0,0.9937199950218201
1.586225821,0,0,1.4460978507995605,0,0,0.9937199950218201
1.5872258449999999,0,0,1.4269442558288574,0,0,0.611519992351532
1.5882423669999999,0,0,1.4532804489135742,0,0,0.7644000053405762
1.589227817,0,0,1.577778935432434,0,0,0.8408399820327759
1.5902259509999999,0,0,1.5729905366897583,0,0,1.223039984703064
1.591225826,0,0,1.5203180313110352,0,0,0.7644000053405762
1.592225793,0,0,1.7693150043487549,0,0,1.1466000080108643
1.593226909,0,0,1.5753847360610962,0,0,0.9172800183296204
1.594225969,0,0,1.381454348564148,0,0,0.8408399820327759
1.59522564,0,0,1.4987702369689941,0,0,0.6879600286483765
1.5962259589999999,0,0,1.4077905416488647,0,0,0.6879600286483765
1.597226927,0,0,1.3886369466781616,0,0,0.9172800183296204
1.5982256719999999,0,0,1.4508862495422363,0,0,0.7644000053405762
1.5992257319999998,0,0,1.501164436340332,0,0,0.7644000053405762
1.6002257370000001,0,0,1.6089035272598267,0,0,0.3822000026702881
1.6012267599999999,0,0,1.6687586307525635,0,0,0.9937199950218201
1.602225413,0,0,1.501164436340332,0,0,0.6879600286483765
1.603225121,0,0,1.6735470294952393,0,0,0.9172800183296204
1.604248755,0,0,1.6112977266311646,0,0,1.070159912109375
1.605225871,0,0,1.5322890281677246,0,0,0.6879600286483765
1.606223746,0,0,1.5083470344543457,0,0,1.223039984703064
1.607223158,0,0,1.3934253454208374,0,0,0.6879600286483765
1.608223403,0,0,1.3551181554794312,0,0,0.9937199950218201
1.6092242410000002,0,0,1.4269442558288574,0,0,0.9172800183296204
1.610223708,0,0,1.4532804489135742,0,0,0.5350799560546875
1.611223713,0,0,1.5873557329177856,0,0,0.611519992351532
1.612223643,0,0,1.623268723487854,0,0,0.305759996175766
1.613228314,0,0,1.5945383310317993,0,0,0.6879600286483765
1.61422393,0,0,1.7597382068634033,0,0,1.1466000080108643
1.6152233599999999,0,0,1.5275006294250488,0,0,0.8408399820327759
1.616223365,0,0,1.4389152526855469,0,0,0.7644000053405762
1.617224351,0,0,1.4987702369689941,0,0,1.070159912109375
1.618223633,0,0,1.414973258972168,0,0,1.070159912109375
1.6192233969999998,0,0,1.4508862495422363,0,0,0.8408399820327759
1.620223754,0,0,1.4389152526855469,0,0,1.1466000080108643
1.621229036,0,0,1.522712230682373,0,0,0.7644000053405762
1.622226226,0,0,1.6328455209732056,0,0,0.9172800183296204
1.6232263599999999,0,0,1.5490485429763794,0,0,0.2293200045824051
1.624225827,0,0,1.53707754611969,0,0,0.5350799560546875
1.625226165,0,0,1.699883222579956,0,0,0.9172800183296204
1.626226021,0,0,1.5107412338256836,0,0,0.8408399820327759
1.627225767,0,0,1.4317326545715332,0,0,0.9937199950218201
1.62822529,0,0,1.4437036514282227,0,0,0.6879600286483765
1.629227017,0,0,1.3766659498214722,0,0,0.9172800183296204
1.630226484,0,0,1.3646949529647827,0,0,0.6879600286483765
1.6312258769999999,0,0,1.4269442558288574,0,0,0.6879600286483765
1.632226067,0,0,1.5394717454910278,0,0,0.2293200045824051
1.633226868,0,0,1.601720929145813,0,0,0.8408399820327759
1.634226113,0,0,1.5442601442337036,0,0,0.611519992351532
1.635225951,0,0,1.580173134803772,0,0,0.9172800183296204
1.6362257709999999,0,0,1.7262194156646729,0,0,0.7644000053405762
1.637226997,0,0,1.4437036514282227,0,0,0.9937199950218201
1.638225909,0,0,1.4700398445129395,0,0,0.8408399820327759
1.6392260250000001,0,0,1.4963760375976563,0,0,0.7644000053405762
1.6402259,0,0,1.5298948287963867,0,0,0.6879600286483765
1.641226923,0,0,1.4484920501708984,0,0,0.6879600286483765
1.64222589,0,0,1.455674648284912,0,0,0.9172800183296204
1.64322621,0,0,1.5442601442337036,0,0,0.8408399820327759
1.64422577,0,0,1.644816517829895,0,0,1.375920057296753
1.6452272,0,0,1.5514427423477173,0,0,0.611519992351532
1.6462258159999998,0,0,1.6687586307525635,0,0,0.7644000053405762
1.647226024,0,0,1.5849615335464478,0,0,0.7644000053405762
1.6482258440000002,0,0,1.4389152526855469,0,0,0.8408399820327759
1.6492267919999999,0,0,1.4724340438842773,0,0,0.8408399820327759
1.650225649,0,0,1.3215993642807007,0,0,0.8408399820327759
1.6512258389999999,0,0,1.3934253454208374,0,0,0.9172800183296204
1.652238973,0,0,1.3192051649093628,0,0,0.9172800183296204
1.653228866,0,0,1.479616641998291,0,0,0.9172800183296204
1.654225908,0,0,1.6136919260025024,0,0,0.5350799560546875
1.6552260049999998,0,0,1.5298948287963867,0,0,1.223039984703064
1.65622575,0,0,1.4197616577148438,0,0,0.7644000053405762
1.657226977,0,0,1.7310078144073486,0,0,0.7644000053405762
1.6582258890000001,0,0,1.6136919260025024,0,0,0.9172800183296204
1.65922606,0,0,1.4700398445129395,0,0,0.9937199950218201
1.660225861,0,0,1.50355863571167,0,0,1.070159912109375
1.661227032,0,0,1.4748282432556152,0,0,0.9172800183296204
1.6622258890000001,0,0,1.3670891523361206,0,0,0.9172800183296204
1.663228393,0,0,1.359906554222107,0,0,0.9172800183296204
1.664225064,0,0,1.5179238319396973,0,0,0.6879600286483765
1.665227032,0,0,1.6112977266311646,0,0,0.611519992351532
1.666225833,0,0,1.525106430053711,0,0,1.1466000080108643
1.667225948,0,0,1.53707754611969,0,0,1.070159912109375
1.668225619,0,0,1.7262194156646729,0,0,0.9172800183296204
1.669226994,0,0,1.5275006294250488,0,0,0.7644000053405762
1.670225795,0,0,1.414973258972168,0,0,1.070159912109375
1.6712260030000001,0,0,1.4676456451416016,0,0,0.9172800183296204
1.67222536,0,0,1.3670891523361206,0,0,0.5350799560546875
1.6732333640000001,0,0,1.4221558570861816,0,0,0.9937199950218201
1.674226665,0,0,1.5203180313110352,0,0,0.8408399820327759
1.6752257990000001,0,0,1.4724340438842773,0,0,0.7644000053405762
1.676225989,0,0,1.5969325304031372,0,0,0.8408399820327759
1.677227086,0,0,1.601720929145813,0,0,0.3822000026702881
1.678226017,0,0,1.6328455209732056,0,0,0.9172800183296204
1.6792260030000001,0,0,1.7357962131500244,0,0,1.070159912109375
1.680225896,0,0,1.5059528350830078,0,0,0.7644000053405762
1.681225567,0,0,1.4652514457702637,0,0,0.7644000053405762
1.682225887,0,0,1.4245500564575195,0,0,1.070159912109375
1.683225965,0,0,1.4269442558288574,0,0,0.5350799560546875
1.684226211,0,0,1.4389152526855469,0,0,0.9172800183296204
1.685227104,0,0,1.53707754611969,0,0,0.9172800183296204
1.6862297750000002,0,0,1.6065093278884888,0,0,0.611519992351532
1.687224965,0,0,1.6687586307525635,0,0,0.9937199950218201
1.6882259880000001,0,0,1.577778935432434,0,0,0.4586400091648102
1.689226178,0,0,1.5155296325683594,0,0,0.8408399820327759
1.6902257010000001,0,0,1.6400281190872192,0,0,1.223039984703064
1.691226113,0,0,1.3862427473068237,0,0,0.7644000053405762
1.692225877,0,0,1.381454348564148,0,0,0.6879600286483765
1.693226085,0,0,1.4269442558288574,0,0,1.070159912109375
1.694226367,0,0,1.3455413579940796,0,0,0.6879600286483765
1.695226205,0,0,1.4101848602294922,0,0,0.611519992351532
1.696228376,0,0,1.5514427423477173,0,0,0.7644000053405762
1.697225177,0,0,1.6352397203445435,0,0,0.6879600286483765
1.6982234410000001,0,0,1.5897499322891235,0,0,0.9172800183296204
1.6992234640000001,0,0,1.556231141090393,0,0,0.3822000026702881
1.700223524,0,0,1.6160861253738403,0,0,0.7644000053405762
1.701227121,0,0,1.644816517829895,0,0,0.8408399820327759
1.702226089,0,0,1.4101848602294922,0,0,0.7644000053405762
1.703225982,0,0,1.400607943534851,0,0,0.8408399820327759
1.704226227,0,0,1.3982137441635132,0,0,1.070159912109375
1.705226213,0,0,1.314416766166687,0,0,0.611519992351532
1.706225847,0,0,1.3479355573654175,0,0,0.611519992351532
1.7072259079999998,0,0,1.4437036514282227,0,0,0.8408399820327759
1.7082260599999999,0,0,1.534683346748352,0,0,0.6879600286483765
1.709226954,0,0,1.53707754611969,0,0,1.070159912109375
1.710225477,0,0,1.525106430053711,0,0,0.611519992351532
1.711237944,0,0,1.7262194156646729,0,0,1.070159912109375
1.71222769,0,0,1.6543933153152466,0,0,0.9172800183296204
1.7132277500000002,0,0,1.4963760375976563,0,0,0.9172800183296204
1.714225976,0,0,1.5083470344543457,0,0,1.1466000080108643
1.7152257770000001,0,0,1.525106430053711,0,0,1.070159912109375
1.716235467,0,0,1.4437036514282227,0,0,0.6879600286483765
1.717225934,0,0,1.3742717504501343,0,0,0.8408399820327759
1.71822605,0,0,1.4676456451416016,0,0,0.9172800183296204
1.719225888,0,0,1.5155296325683594,0,0,0.9172800183296204
1.720226207,0,0,1.5682021379470825,0,0,1.375920057296753
1.7212266189999998,0,0,1.522712230682373,0,0,0.611519992351532
1.72222592,0,0,1.6112977266311646,0,0,0.8408399820327759
1.7232259989999998,0,0,1.5658079385757446,0,0,0.9172800183296204
1.72422604,0,0,1.455674648284912,0,0,0.9937199950218201
1.725227119,0,0,1.558625340461731,0,0,0.8408399820327759
1.726226086,0,0,1.4077905416488647,0,0,0.9172800183296204
1.727225998,0,0,1.314416766166687,0,0,0.6879600286483765
1.728225744,0,0,1.4269442558288574,0,0,0.8408399820327759
1.729226933,0,0,1.5203180313110352,0,0,0.9172800183296204
1.730225956,0,0,1.6304513216018677,0,0,0.8408399820327759
1.731225979,0,0,1.556231141090393,0,0,1.070159912109375
1.732225817,0,0,1.5083470344543457,0,0,0.8408399820327759
1.733226026,0,0,1.6328455209732056,0,0,0.8408399820327759
1.734226086,0,0,1.522712230682373,0,0,0.9937199950218201
1.735225942,0,0,1.455674648284912,0,0,0.7644000053405762
1.7362255389999999,0,0,1.4508862495422363,0,0,0.9937199950218201
1.737226859,0,0,1.5083470344543457,0,0,0.6879600286483765
1.738225919,0,0,1.4676456451416016,0,0,0.7644000053405762
1.739226016,0,0,1.4652514457702637,0,0,1.070159912109375
1.740225946,0,0,1.5921441316604614,0,0,0.5350799560546875
1.741226154,0,0,1.6759412288665771,0,0,0.6879600286483765
1.742225918,0,0,1.5921441316604614,0,0,0.5350799560546875
1.743226052,0,0,1.482010841369629,0,0,0.8408399820327759
1.744225872,0,0,1.6543933153152466,0,0,1.070159912109375
1.745227154,0,0,1.4676456451416016,0,0,0.9172800183296204
1.7462257879999998,0,0,1.4532804489135742,0,0,0.9172800183296204
1.747225941,0,0,1.460463047027588,0,0,1.1466000080108643
1.748225946,0,0,1.3335703611373901,0,0,0.8408399820327759
1.7492258760000001,0,0,1.3694833517074585,0,0,0.7644000053405762
1.750225862,0,0,1.4891934394836426,0,0,1.070159912109375
1.75122583,0,0,1.5825673341751099,0,0,0.6879600286483765
1.7522259820000001,0,0,1.7166426181793213,0,0,1.070159912109375
1.753227505,0,0,1.6280571222305298,0,0,0.5350799560546875
1.754225862,0,0,1.6041151285171509,0,0,0.9172800183296204
1.755225866,0,0,1.7477672100067139,0,0,0.9937199950218201
1.756225741,0,0,1.4389152526855469,0,0,0.9172800183296204
1.75722719,0,0,1.5298948287963867,0,0,0.9172800183296204
1.758225324,0,0,1.455674648284912,0,0,1.1466000080108643
1.759226181,0,0,1.403002142906189,0,0,0.9172800183296204
1.760225926,0,0,1.3958195447921753,0,0,0.8408399820327759
1.761227171,0,0,1.501164436340332,0,0,0.6879600286483765
1.7622260459999999,0,0,1.5275006294250488,0,0,0.6879600286483765
1.7632258840000001,0,0,1.6065093278884888,0,0,1.1466000080108643
1.764225963,0,0,1.6400281190872192,0,0,0.305759996175766
1.765227023,0,0,1.6424223184585571,0,0,0.6879600286483765
1.766225935,0,0,1.6352397203445435,0,0,0.9937199950218201
1.767225754,0,0,1.4532804489135742,0,0,0.9172800183296204
1.768226036,0,0,1.5275006294250488,0,0,0.9937199950218201
1.769226948,0,0,1.4987702369689941,0,0,1.070159912109375
1.7702261190000002,0,0,1.4101848602294922,0,0,0.5350799560546875
1.771226143,0,0,1.4676456451416016,0,0,0.8408399820327759
1.772225666,0,0,1.4460978507995605,0,0,0.611519992351532
1.77322704,0,0,1.4676456451416016,0,0,0.611519992351532
1.7742259150000002,0,0,1.6160861253738403,0,0,0.9172800183296204
1.7752260309999999,0,0,1.5538369417190552,0,0,0.3822000026702881
1.776225628,0,0,1.6400281190872192,0,0,0.8408399820327759
1.777227262,0,0,1.577778935432434,0,0,0.9172800183296204
1.778225841,0,0,1.4413094520568848,0,0,0.9172800183296204
1.7792254010000002,0,0,1.3934253454208374,0,0,0.5350799560546875
1.78023372,0,0,1.4173674583435059,0,0,0.9937199950218201
1.7812281140000001,0,0,1.2832920551300049,0,0,0.6879600286483765
1.782226026,0,0,1.479616641998291,0,0,1.070159912109375
1.783226086,0,0,1.6376339197158813,0,0,0.7644000053405762
1.7842257940000001,0,0,1.6543933153152466,0,0,0.611519992351532
1.785226965,0,0,1.6160861253738403,0,0,0.9172800183296204
1.7862258770000001,0,0,1.5322890281677246,0,0,0.8408399820327759
1.7872259929999998,0,0,1.6711528301239014,0,0,0.8408399820327759
1.788226034,0,0,1.4987702369689941,0,0,1.1466000080108643
1.7892268169999999,0,0,1.4269442558288574,0,0,0.8408399820327759
1.790225988,0,0,1.5418659448623657,0,0,0.7644000053405762
1.791225956,0,0,1.403002142906189,0,0,0.9937199950218201
1.7922259600000001,0,0,1.436521053314209,0,0,0.7644000053405762
1.7932269280000002,0,0,1.4939818382263184,0,0,0.9172800183296204
1.79422608,0,0,1.4748282432556152,0,0,0.4586400091648102
1.795227159,0,0,1.556231141090393,0,0,0.6879600286483765
1.7962261819999998,0,0,1.6065093278884888,0,0,0.9172800183296204
1.797227131,0,0,1.5418659448623657,0,0,0.7644000053405762
1.798225784,0,0,1.6519991159439087,0,0,0.9172800183296204
1.799225584,0,0,1.5729905366897583,0,0,0.7644000053405762
1.8002258850000001,0,0,1.4413094520568848,0,0,0.9937199950218201
1.801226519,0,0,1.4197616577148438,0,0,0.9937199950218201
1.802225931,0,0,1.4772224426269531,0,0,0.3822000026702881
1.803225973,0,0,1.400607943534851,0,0,0.9172800183296204
1.8042257,0,0,1.403002142906189,0,0,0.6879600286483765
1.805226889,0,0,1.5514427423477173,0,0,0.611519992351532
1.806225931,0,0,1.6543933153152466,0,0,0.5350799560546875
1.807225695,0,0,1.6160861253738403,0,0,0.4586400091648102
1.8082259029999999,0,0,1.5322890281677246,0,0,0.6879600286483765
1.8092270190000002,0,0,1.6615760326385498,0,0,0.9172800183296204
1.810225894,0,0,1.4724340438842773,0,0,0.7644000053405762
1.811225843,0,0,1.4844050407409668,0,0,0.9172800183296204
1.8122277919999998,0,0,1.501164436340332,0,0,0.7644000053405762
1.813226222,0,0,1.4437036514282227,0,0,0.5350799560546875
1.8142263010000002,0,0,1.41257905960083,0,0,0.6879600286483765
1.815226083,0,0,1.4101848602294922,0,0,0.9172800183296204
1.816226365,0,0,1.4652514457702637,0,0,0.8408399820327759
1.8172249809999999,0,0,1.53707754611969,0,0,0.8408399820327759
1.818223411,0,0,1.558625340461731,0,0,0
1.819223101,0,0,1.5634137392044067,0,0,0.8408399820327759
1.820223624,0,0,1.6519991159439087,0,0,0.8408399820327759
1.8212297579999999,0,0,1.4844050407409668,0,0,0.9172800183296204
1.822226226,0,0,1.4221558570861816,0,0,0.6879600286483765
1.8233769130000002,0,0,1.359906554222107,0,0,0.9172800183296204
1.8243786960000001,0,0,1.4437036514282227,0,0,0.6879600286483765
1.825377145,0,0,1.479616641998291,0,0,0.5350799560546875
1.826376668,0,0,1.4748282432556152,0,0,0.8408399820327759
1.827377858,0,0,1.522712230682373,0,0,0.611519992351532
1.828377158,0,0,1.644816517829895,0,0,1.070159912109375
1.829378348,0,0,1.5658079385757446,0,0,0.611519992351532
1.8303778899999998,0,0,1.5538369417190552,0,0,0.8408399820327759
1.831377598,0,0,1.702277421951294,0,0,0.7644000053405762
1.832377602,0,0,1.5059528350830078,0,0,0.9172800183296204
1.833379477,0,0,1.5514427423477173,0,0,0.611519992351532
1.8343778149999999,0,0,1.5825673341751099,0,0,1.223039984703064
1.8353779860000001,0,0,1.4413094520568848,0,0,0.9937199950218201
1.836377861,0,0,1.37906014919281,0,0,0.7644000053405762
1.837379699,0,0,1.4197616577148438,0,0,0.9172800183296204
1.8383771850000001,0,0,1.580173134803772,0,0,0.8408399820327759
1.8393775049999999,0,0,1.659181833267212,0,0,1.375920057296753
1.840377361,0,0,1.5634137392044067,0,0,0.3822000026702881
1.8413792359999999,0,0,1.5418659448623657,0,0,0.9172800183296204
1.843518113,0,0,1.5418659448623657,0,0,1.452359914779663
1.843836313,0,0,1.4437036514282227,0,0,0.8408399820327759
1.844393194,0,0,1.5131354331970215,0,0,0.8408399820327759
1.845384291,0,0,1.41257905960083,0,0,0.9937199950218201
1.846377851,0,0,1.3527239561080933,0,0,0.9172800183296204
1.847377134,0,0,1.4197616577148438,0,0,0.611519992351532
1.848378082,0,0,1.4532804489135742,0,0,0.9172800183296204
1.849378235,0,0,1.6376339197158813,0,0,0.7644000053405762
1.850378129,0,0,1.7286136150360107,0,0,1.1466000080108643
1.851377874,0,0,1.5490485429763794,0,0,0.7644000053405762
1.852378415,0,0,1.6328455209732056,0,0,0.9172800183296204
1.85337979,0,0,1.4460978507995605,0,0,0.8408399820327759
1.8552330609999999,0,0,1.4460978507995605,0,0,0.611519992351532
1.855534945,0,0,1.5394717454910278,0,0,0.9172800183296204
1.856377156,0,0,1.4245500564575195,0,0,0.7644000053405762
1.857374531,0,0,1.3670891523361206,0,0,1.1466000080108643
1.8583729610000002,0,0,1.4676456451416016,0,0,0.7644000053405762
1.859372836,0,0,1.5634137392044067,0,0,0.9172800183296204
1.860372396,0,0,1.6831238269805908,0,0,0.7644000053405762
1.861374179,0,0,1.5610195398330688,0,0,0.8408399820327759
1.862372813,0,0,1.522712230682373,0,0,0.8408399820327759
1.863372077,0,0,1.7166426181793213,0,0,1.223039984703064
1.864372544,0,0,1.4891934394836426,0,0,0.5350799560546875
1.865374826,0,0,1.434126853942871,0,0,0.8408399820327759
1.86637272,0,0,1.4652514457702637,0,0,0.9937199950218201
1.867372928,0,0,1.4508862495422363,0,0,0.7644000053405762
1.868372877,0,0,1.3646949529647827,0,0,0.7644000053405762
1.869379548,0,0,1.4891934394836426,0,0,0.7644000053405762
1.8703791079999998,0,0,1.6615760326385498,0,0,0.611519992351532
1.8713783720000001,0,0,1.7190368175506592,0,0,0.9172800183296204
1.872417561,0,0,1.6687586307525635,0,0,0.305759996175766
1.8733892330000002,0,0,1.6280571222305298,0,0,0.9172800183296204
1.874379349,0,0,1.745373010635376,0,0,0.9172800183296204
1.875378242,0,0,1.3910311460494995,0,0,0.7644000053405762
1.87637795,0,0,1.455674648284912,0,0,1.070159912109375
1.877641636,0,0,1.4772224426269531,0,0,0.9937199950218201
1.878409292,0,0,1.4772224426269531,0,0,0.611519992351532
1.8793828339999998,0,0,1.5179238319396973,0,0,0.9172800183296204
1.880378839,0,0,1.5107412338256836,0,0,0.8408399820327759
1.881381103,0,0,1.534683346748352,0,0,0.8408399820327759
1.8823732180000001,0,0,1.5873557329177856,0,0,0.9172800183296204
1.88337326,0,0,1.5107412338256836,0,0,0.305759996175766
1.884372339,0,0,1.6496049165725708,0,0,0.9172800183296204
1.885384954,0,0,1.7094600200653076,0,0,0.7644000053405762
1.886378699,0,0,1.4891934394836426,0,0,0.7644000053405762
1.887377445,0,0,1.5059528350830078,0,0,0.611519992351532
1.8883780049999999,0,0,1.4652514457702637,0,0,1.223039984703064
1.889379898,0,0,1.4460978507995605,0,0,0.7644000053405762
1.890376329,0,0,1.3527239561080933,0,0,0.6879600286483765
1.891377055,0,0,1.403002142906189,0,0,1.070159912109375
1.892377541,0,0,1.5849615335464478,0,0,0.611519992351532
1.8933786019999999,0,0,1.6160861253738403,0,0,1.1466000080108643
1.894376865,0,0,1.45806884765625,0,0,0.5350799560546875
1.895431332,0,0,1.601720929145813,0,0,0.8408399820327759
1.896390263,0,0,1.5897499322891235,0,0,0.9172800183296204
1.897925853,0,0,1.400607943534851,0,0,1.070159912109375
1.898381717,0,0,1.4748282432556152,0,0,0.6879600286483765
1.899378647,0,0,1.414973258972168,0,0,1.070159912109375
1.900378152,0,0,1.316810965538025,0,0,0.7644000053405762
1.901382027,0,0,1.4413094520568848,0,0,0.5350799560546875
1.902379568,0,0,1.522712230682373,0,0,1.070159912109375
1.903378628,0,0,1.6065093278884888,0,0,0.6879600286483765
1.904378503,0,0,1.5442601442337036,0,0,1.1466000080108643
1.905380841,0,0,1.4772224426269531,0,0,0.2293200045824051
1.906377531,0,0,1.6639702320098877,0,0,1.070159912109375
1.9073783500000001,0,0,1.5825673341751099,0,0,0.9937199950218201
1.9083967990000001,0,0,1.5059528350830078,0,0,0.9172800183296204
1.9093826,0,0,1.4867992401123047,0,0,0.8408399820327759
1.910378234,0,0,1.455674648284912,0,0,0.9937199950218201
1.911378443,0,0,1.3766659498214722,0,0,0.8408399820327759
1.9123771139999999,0,0,1.4053963422775269,0,0,0.8408399820327759
1.913380359,0,0,1.5155296325683594,0,0,0.7644000053405762
1.914378289,0,0,1.5442601442337036,0,0,0.6879600286483765
1.915378738,0,0,1.5514427423477173,0,0,1.070159912109375
1.916378317,0,0,1.4915876388549805,0,0,0.8408399820327759
1.917377748,0,0,1.6376339197158813,0,0,1.1466000080108643
1.9183732340000001,0,0,1.4963760375976563,0,0,0.9172800183296204
1.91937296,0,0,1.4628572463989258,0,0,0.611519992351532
1.920373298,0,0,1.45806884765625,0,0,1.223039984703064
1.921387673,0,0,1.4077905416488647,0,0,0.611519992351532
1.9223782699999998,0,0,1.381454348564148,0,0,0.6879600286483765
1.923387275,0,0,1.4484920501708984,0,0,-8.714159965515137
1.924413168,0,0,1.5753847360610962,0,0,0.5350799560546875
1.925414413,0,0,1.656787633895874,0,0,0.7644000053405762
1.926412158,0,0,1.6376339197158813,0,0,0.611519992351532
1.9274114409999998,0,0,1.5634137392044067,0,0,0.7644000053405762
1.928412593,0,0,1.6974890232086182,0,0,1.070159912109375
1.929414635,0,0,1.4628572463989258,0,0,0.8408399820327759
1.930412121,0,0,1.460463047027588,0,0,0.8408399820327759
1.9314122550000001,0,0,1.436521053314209,0,0,1.070159912109375
1.9324121669999998,0,0,1.400607943534851,0,0,0.9172800183296204
1.933414375,0,0,1.4532804489135742,0,0,0.6879600286483765
1.934411195,0,0,1.4437036514282227,0,0,0.9172800183296204
1.935412032,0,0,1.482010841369629,0,0,0.5350799560546875
1.936411667,0,0,1.5753847360610962,0,0,0.7644000053405762
1.93741443,0,0,1.580173134803772,0,0,0.2293200045824051
1.938412676,0,0,1.5705963373184204,0,0,0.8408399820327759
1.93941168,0,0,1.7477672100067139,0,0,0.8408399820327759
1.940412055,0,0,1.5466543436050415,0,0,0.9172800183296204
1.941414245,0,0,1.4748282432556152,0,0,0.5350799560546875
1.9424121570000001,0,0,1.3982137441635132,0,0,1.1466000080108643
1.943411717,0,0,1.3958195447921753,0,0,0.6879600286483765
1.944412129,0,0,1.3910311460494995,0,0,0.6879600286483765
1.9454143,0,0,1.53707754611969,0,0,0.6879600286483765
1.946411656,0,0,1.599326729774475,0,0,0.7644000053405762
1.9474121420000001,0,0,1.5514427423477173,0,0,1.070159912109375
1.948411906,0,0,1.455674648284912,0,0,0.3822000026702881
1.949413522,0,0,1.5945383310317993,0,0,0.6879600286483765
1.950412212,0,0,1.625662922859192,0,0,0.611519992351532
1.951412253,0,0,1.436521053314209,0,0,0.6879600286483765
1.9524120360000001,0,0,1.5466543436050415,0,0,0.6879600286483765
1.953414262,0,0,1.4532804489135742,0,0,0.9937199950218201
1.9544122480000001,0,0,1.3862427473068237,0,0,0.9937199950218201
1.9554117899999999,0,0,1.3311761617660522,0,0,0.8408399820327759
1.956411091,0,0,1.558625340461731,0,0,0.7644000053405762
1.957414688,0,0,1.5969325304031372,0,0,0.6879600286483765
1.958412322,0,0,1.5682021379470825,0,0,1.452359914779663
1.9594119380000001,0,0,1.5897499322891235,0,0,0.305759996175766
1.960411776,0,0,1.7310078144073486,0,0,0.9172800183296204
1.9614144470000001,0,0,1.5610195398330688,0,0,1.070159912109375
1.962412174,0,0,1.4460978507995605,0,0,0.7644000053405762
1.9634119,0,0,1.4460978507995605,0,0,0.8408399820327759
1.964411683,0,0,1.4269442558288574,0,0,1.1466000080108643
1.965414465,0,0,1.403002142906189,0,0,0.7644000053405762
1.966412506,0,0,1.3072341680526733,0,0,0.8408399820327759
1.967412159,0,0,1.5610195398330688,0,0,0.7644000053405762
1.968412516,0,0,1.6208745241165161,0,0,0.7644000053405762
1.969414057,0,0,1.6065093278884888,0,0,1.375920057296753
1.970411802,0,0,1.5418659448623657,0,0,0.9172800183296204
1.9714120849999999,0,0,1.7286136150360107,0,0,0.9937199950218201
1.972441033,0,0,1.53707754611969,0,0,0.9172800183296204
1.97341552,0,0,1.460463047027588,0,0,0.9172800183296204
1.97441208,0,0,1.4772224426269531,0,0,1.070159912109375
1.975411973,0,0,1.3646949529647827,0,0,1.070159912109375
1.976411422,0,0,1.3479355573654175,0,0,0.9937199950218201
1.977413742,0,0,1.4077905416488647,0,0,0.8408399820327759
1.978410987,0,0,1.5322890281677246,0,0,0.7644000053405762
1.97941214,0,0,1.4724340438842773,0,0,0.611519992351532
1.980411996,0,0,1.5179238319396973,0,0,0.9937199950218201
1.9814127780000002,0,0,1.5729905366897583,0,0,0.6879600286483765
1.9824104679999999,0,0,1.6831238269805908,0,0,0.8408399820327759
1.9834108609999999,0,0,1.4891934394836426,0,0,0.9937199950218201
1.984431384,0,0,1.460463047027588,0,0,0.8408399820327759
1.985416815,0,0,1.4077905416488647,0,0,0.6879600286483765
1.986413245,0,0,1.2976573705673218,0,0,0.611519992351532
1.987412972,0,0,1.381454348564148,0,0,0.7644000053405762
1.988413217,0,0,1.4915876388549805,0,0,0.6879600286483765
1.9894157959999998,0,0,1.558625340461731,0,0,0.5350799560546875
1.990413004,0,0,1.5825673341751099,0,0,0.611519992351532
1.991412638,0,0,1.5873557329177856,0,0,0.9172800183296204
1.9924117730000002,0,0,1.5682021379470825,0,0,1.070159912109375
1.99341511,0,0,1.6974890232086182,0,0,1.1466000080108643
1.994413041,0,0,1.4293384552001953,0,0,0.8408399820327759
1.9954130079999999,0,0,1.4652514457702637,0,0,1.070159912109375
1.996412402,0,0,1.436521053314209,0,0,0.9172800183296204
1.997415055,0,0,1.50355863571167,0,0,1.070159912109375
1.9984129670000002,0,0,1.4508862495422363,0,0,0.9937199950218201
1.99941173,0,0,1.4101848602294922,0,0,1.070159912109375
2.000413216,0,0,1.50355863571167,0,0,0.7644000053405762
2.001415536,0,0,1.5753847360610962,0,0,0.8408399820327759
2.002412725,0,0,1.5418659448623657,0,0,0.6879600286483765
2.003413156,0,0,1.6089035272598267,0,0,0.9937199950218201
2.00441292,0,0,1.6855180263519287,0,0,1.070159912109375
2.005414869,0,0,1.4389152526855469,0,0,0.9937199950218201
2.006413132,0,0,1.5155296325683594,0,0,0.6879600286483765
2.007412748,0,0,1.4484920501708984,0,0,0.9172800183296204
2.008413271,0,0,1.4460978507995605,0,0,0.7644000053405762
2.009415257,0,0,1.3646949529647827,0,0,0.9172800183296204
2.010413558,0,0,1.381454348564148,0,0,0.8408399820327759
2.011413414,0,0,1.5394717454910278,0,0,0.8408399820327759
2.012412975,0,0,1.6041151285171509,0,0,0.6879600286483765
2.01341659,0,0,1.6065093278884888,0,0,0.305759996175766
2.014411928,0,0,1.6089035272598267,0,0,1.070159912109375
2.015413173,0,0,1.5466543436050415,0,0,1.223039984703064
2.016412104,0,0,1.3766659498214722,0,0,1.1466000080108643
2.017410442,0,0,1.45806884765625,0,0,0.9172800183296204
2.018406835,0,0,1.3479355573654175,0,0,0.9172800183296204
2.019406451,0,0,1.3503297567367554,0,0,0.8408399820327759
2.020405455,0,0,1.316810965538025,0,0,0.7644000053405762
2.02141596,0,0,1.455674648284912,0,0,0.7644000053405762
2.022413594,0,0,1.5753847360610962,0,0,0.7644000053405762
2.023422747,0,0,1.659181833267212,0,0,1.1466000080108643
2.024457177,0,0,1.556231141090393,0,0,0.305759996175766
2.025455274,0,0,1.6927006244659424,0,0,0.9172800183296204
2.026456463,0,0,1.647210717201233,0,0,0.8408399820327759
2.027455894,0,0,1.3958195447921753,0,0,0.8408399820327759
2.028456547,0,0,1.4389152526855469,0,0,0.8408399820327759
2.029457181,0,0,1.4293384552001953,0,0,0.7644000053405762
2.030456111,0,0,1.357512354850769,0,0,0.9172800183296204
2.031456005,0,0,1.3670891523361206,0,0,0.9937199950218201
2.032456009,0,0,1.4652514457702637,0,0,0.5350799560546875
2.033458977,0,0,1.5059528350830078,0,0,0.5350799560546875
2.034456944,0,0,1.5825673341751099,0,0,1.223039984703064
2.035455041,0,0,1.5298948287963867,0,0,0.4586400091648102
2.036473527,0,0,1.580173134803772,0,0,0.8408399820327759
2.037460735,0,0,1.414973258972168,0,0,1.070159912109375
2.038456296,0,0,1.3431471586227417,0,0,0.8408399820327759
2.039456356,0,0,1.4867992401123047,0,0,0.7644000053405762
2.040456397,0,0,1.525106430053711,0,0,0.9172800183296204
2.041458939,0,0,1.4221558570861816,0,0,0.9172800183296204
2.042456499,0,0,1.50355863571167,0,0,0.9937199950218201
2.043454689,0,0,1.5514427423477173,0,0,0.9172800183296204
2.044456452,0,0,1.5466543436050415,0,0,0.8408399820327759
2.045459531,0,0,1.5418659448623657,0,0,1.1466000080108643
2.046457017,0,0,1.4867992401123047,0,0,0.611519992351532
2.047456244,0,0,1.6352397203445435,0,0,0.8408399820327759
2.048456137,0,0,1.400607943534851,0,0,0.8408399820327759
2.049682194,0,0,1.3862427473068237,0,0,0.7644000053405762
2.050457406,0,0,1.381454348564148,0,0,0.9937199950218201
2.051450484,0,0,1.3527239561080933,0,0,0.9937199950218201
2.052449563,0,0,1.3287819623947144,0,0,-8.714159965515137
2.053458216,0,0,1.4532804489135742,0,0,0.9172800183296204
2.054457239,0,0,1.5610195398330688,0,0,0.8408399820327759
2.055456614,0,0,1.5610195398330688,0,0,0.611519992351532
2.056456729,0,0,1.6208745241165161,0,0,0.9937199950218201
2.057458197,0,0,1.5969325304031372,0,0,0.9172800183296204
2.058456701,0,0,1.6304513216018677,0,0,0.7644000053405762
2.059456354,0,0,1.6424223184585571,0,0,0.9937199950218201
2.060456525,0,0,1.4437036514282227,0,0,0.9172800183296204
2.061458659,0,0,1.3958195447921753,0,0,0.8408399820327759
2.062456627,0,0,1.5083470344543457,0,0,0.6879600286483765
2.063456187,0,0,1.436521053314209,0,0,0.5350799560546875
2.064456451,0,0,1.3862427473068237,0,0,1.223039984703064
2.065458214,0,0,1.4389152526855469,0,0,0.9172800183296204
2.066457052,0,0,1.5155296325683594,0,0,0.611519992351532
2.067456872,0,0,1.623268723487854,0,0,0.4586400091648102
2.068456524,0,0,1.53707754611969,0,0,0.8408399820327759
