Time,AccelX1,AccelY1,AccelZ1,AccelX2,AccelY2,AccelZ2
0.00021548,0,0,1.4508862495422363,0,0,1.070159912109375
0.000554329,0,0,1.3742717504501343,0,0,0.0764399990439415
0.000759753,0,0,1.3742717504501343,0,0,1.8345600366592407
0.001092083,0,0,1.3742717504501343,0,0,1.452359914779663
0.001433636,0,0,1.2234370708465576,0,0,0.8408399820327759
0.001764152,0,0,1.2234370708465576,0,0,1.223039984703064
0.002091352,0,0,1.2234370708465576,0,0,0
0.002434646,0,0,1.2234370708465576,0,0,1.9109998941421509
0.002780624,0,0,1.2234370708465576,0,0,0.8408399820327759
0.003121344,0,0,1.2234370708465576,0,0,0.7644000053405762
0.003448896,0,0,1.2521674633026123,0,0,0.8408399820327759
0.003771171,0,0,1.2521674633026123,0,0,0.8408399820327759
0.004099928,0,0,1.2521674633026123,0,0,0.8408399820327759
0.004443073,0,0,1.2521674633026123,0,0,0.8408399820327759
0.004773218,0,0,1.2210428714752197,0,0,0.8408399820327759
0.005121845,0,0,1.2210428714752197,0,0,0.8408399820327759
0.005617693,0,0,1.2210428714752197,0,0,0.4586400091648102
0.005761451,0,0,1.2210428714752197,0,0,0.7644000053405762
0.006092133,0,0,1.2210428714752197,0,0,0.7644000053405762
0.006433778,0,0,1.2210428714752197,0,0,0.5350799560546875
0.006773961,0,0,1.2210428714752197,0,0,0.8408399820327759
0.00709205,0,0,1.2210428714752197,0,0,0.611519992351532
0.007428585,0,0,1.2210428714752197,0,0,0.611519992351532
0.007771508,0,0,1.2210428714752197,0,0,0.9172800183296204
0.008091671,0,0,1.2210428714752197,0,0,0.8408399820327759
0.008425502,0,0,1.2210428714752197,0,0,0.8408399820327759
0.008768277,0,0,1.3239935636520386,0,0,0.6879600286483765
0.009093015,0,0,1.3239935636520386,0,0,0.9172800183296204
0.009432364,0,0,1.3239935636520386,0,0,1.2994799613952637
0.009763731,0,0,1.3239935636520386,0,0,0.8408399820327759
0.010104432,0,0,1.3239935636520386,0,0,0.5350799560546875
0.010434837,0,0,1.3239935636520386,0,0,0.5350799560546875
0.010781815,0,0,1.3862427473068237,0,0,0.9172800183296204
0.011110312,0,0,1.3862427473068237,0,0,0.8408399820327759
0.011430958,0,0,1.3862427473068237,0,0,0.305759996175766
0.011770436,0,0,1.3862427473068237,0,0,0.9172800183296204
0.012223358,0,0,1.3862427473068237,0,0,0.9172800183296204
0.012425079,0,0,1.3862427473068237,0,0,0.4586400091648102
0.012760872,0,0,1.3862427473068237,0,0,0.8408399820327759
0.013101221,0,0,1.5322890281677246,0,0,1.375920057296753
0.013428459,0,0,1.5322890281677246,0,0,0.611519992351532
0.013764086,0,0,1.5322890281677246,0,0,1.6816799640655518
0.014109453,0,0,1.5322890281677246,0,0,8.867039680480957
0.014426599,0,0,1.5322890281677246,0,0,0.5350799560546875
0.014756837,0,0,1.5322890281677246,0,0,0.6879600286483765
0.015106963,0,0,1.5322890281677246,0,0,0.6879600286483765
0.015431664,0,0,1.50355863571167,0,0,0.7644000053405762
0.015760661,0,0,1.50355863571167,0,0,0.6879600286483765
0.016106307,0,0,1.50355863571167,0,0,0.6879600286483765
0.016429396,0,0,1.50355863571167,0,0,0.8408399820327759
0.016769468,0,0,1.50355863571167,0,0,0.7644000053405762
0.017111465,0,0,1.50355863571167,0,0,0.7644000053405762
0.017422555,0,0,1.50355863571167,0,0,0.5350799560546875
0.01775407,0,0,1.50355863571167,0,0,0.6879600286483765
0.018093401,0,0,1.50355863571167,0,0,0.6879600286483765
0.018436083,0,0,1.50355863571167,0,0,0.9937199950218201
0.018919597,0,0,1.50355863571167,0,0,0.5350799560546875
0.019089725,0,0,1.50355863571167,0,0,0.9937199950218201
0.019420889,0,0,1.50355863571167,0,0,0.8408399820327759
0.019757979,0,0,1.50355863571167,0,0,0.9937199950218201
0.020087347,0,0,1.558625340461731,0,0,0.611519992351532
0.020545509,0,0,1.558625340461731,0,0,0.9172800183296204
0.020771544,0,0,1.558625340461731,0,0,0.5350799560546875
0.021109727,0,0,1.558625340461731,0,0,0.9172800183296204
0.02211644,0,0,1.558625340461731,0,0,0.9172800183296204
0.022154847,0,0,1.558625340461731,0,0,0.9172800183296204
0.022184014,0,0,1.3239935636520386,0,0,0.9172800183296204
0.022436604,0,0,1.3239935636520386,0,0,0.7644000053405762
0.022754898,0,0,1.3239935636520386,0,0,0.611519992351532
0.023091432,0,0,1.3239935636520386,0,0,0.5350799560546875
0.023451818,0,0,1.3239935636520386,0,0,0.7644000053405762
0.024088553,0,0,1.3239935636520386,0,0,0.7644000053405762
0.024114738,0,0,1.3239935636520386,0,0,0.8408399820327759
0.024676807,0,0,1.3096283674240112,0,0,0.8408399820327759
0.024700214,0,0,1.3096283674240112,0,0,0.4586400091648102
0.025089322,0,0,1.3096283674240112,0,0,0.7644000053405762
0.025421745,0,0,1.3096283674240112,0,0,0
0.025756224,0,0,1.3096283674240112,0,0,0.305759996175766
0.02608811,0,0,1.3096283674240112,0,0,1.1466000080108643
0.026420329,0,0,1.3072341680526733,0,0,1.9874399900436401
0.026757771,0,0,1.3072341680526733,0,0,1.8345600366592407
0.027088935,0,0,1.3072341680526733,0,0,1.5288000106811523
0.027420636,0,0,1.3072341680526733,0,0,0.305759996175766
0.027758781,0,0,1.3072341680526733,0,0,0.9172800183296204
0.028090352,0,0,1.3072341680526733,0,0,0.7644000053405762
0.028420442,0,0,1.3072341680526733,0,0,0.6879600286483765
0.028754457,0,0,1.158793568611145,0,0,0.8408399820327759
0.029086992,0,0,1.158793568611145,0,0,0.9937199950218201
0.029422674,0,0,1.158793568611145,0,0,0.9937199950218201
0.029758727,0,0,1.158793568611145,0,0,0.6879600286483765
0.030092409,0,0,1.158793568611145,0,0,0.3822000026702881
0.030420554,0,0,1.158793568611145,0,0,0.611519992351532
0.030756422,0,0,1.158793568611145,0,0,0.6879600286483765
0.031093104,0,0,1.237802267074585,0,0,0.9172800183296204
0.031425231,0,0,1.237802267074585,0,0,0.305759996175766
0.031758191,0,0,1.237802267074585,0,0,0.8408399820327759
0.032091429,0,0,1.237802267074585,0,0,0.9172800183296204
0.032427204,0,0,1.237802267074585,0,0,0.9172800183296204
0.032757553,0,0,1.237802267074585,0,0,0.8408399820327759
0.03310318,0,0,1.237802267074585,0,0,0.6879600286483765
0.033423029,0,0,1.292868971824646,0,0,0.3822000026702881
0.033755544,0,0,1.292868971824646,0,0,0.3822000026702881
0.034090912,0,0,1.292868971824646,0,0,0.2293200045824051
0.034420946,0,0,1.292868971824646,0,0,1.223039984703064
0.034757869,0,0,1.292868971824646,0,0,1.452359914779663
0.035089496,0,0,1.292868971824646,0,0,0.7644000053405762
0.035420493,0,0,1.292868971824646,0,0,0.611519992351532
0.035758268,0,0,1.479616641998291,0,0,0.305759996175766
0.036088969,0,0,1.479616641998291,0,0,0.5350799560546875
0.036420466,0,0,1.479616641998291,0,0,1.1466000080108643
0.036757907,0,0,1.479616641998291,0,0,0.0764399990439415
0.037089071,0,0,1.479616641998291,0,0,0.9172800183296204
0.037424439,0,0,1.479616641998291,0,0,1.375920057296753
0.037759084,0,0,1.479616641998291,0,0,1.605239987373352
0.038092841,0,0,1.5107412338256836,0,0,1.2994799613952637
0.038422375,0,0,1.5107412338256836,0,0,0.5350799560546875
0.038759372,0,0,1.5107412338256836,0,0,9.402119636535645
0.039094221,0,0,1.5107412338256836,0,0,1.9874399900436401
0.039422274,0,0,1.5107412338256836,0,0,1.2994799613952637
0.039765993,0,0,1.5107412338256836,0,0,0.9172800183296204
0.040104675,0,0,1.5107412338256836,0,0,0.7644000053405762
0.040429246,0,0,1.460463047027588,0,0,0.5350799560546875
0.041472089,0,0,1.460463047027588,0,0,0.5350799560546875
0.041496404,0,0,1.460463047027588,0,0,0.5350799560546875
0.04153333,0,0,1.460463047027588,0,0,0.9937199950218201
0.041957567,0,0,1.460463047027588,0,0,0.6879600286483765
0.042097491,0,0,1.460463047027588,0,0,0.7644000053405762
0.042438822,0,0,1.460463047027588,0,0,0.7644000053405762
0.042759541,0,0,1.4317326545715332,0,0,1.070159912109375
0.043103853,0,0,1.4317326545715332,0,0,0.9937199950218201
0.043422128,0,0,1.4317326545715332,0,0,0.6879600286483765
0.043757959,0,0,1.4317326545715332,0,0,0.5350799560546875
0.044089919,0,0,1.4317326545715332,0,0,0.611519992351532
0.044421305,0,0,1.4317326545715332,0,0,0.6879600286483765
0.044753969,0,0,1.3694833517074585,0,0,0.8408399820327759
0.045088336,0,0,1.3694833517074585,0,0,1.070159912109375
0.045420963,0,0,1.3431471586227417,0,0,1.223039984703064
0.045757719,0,0,1.3431471586227417,0,0,0.7644000053405762
0.046088809,0,0,1.3431471586227417,0,0,0.9172800183296204
0.046420436,0,0,1.3431471586227417,0,0,0.4586400091648102
0.046758174,0,0,1.3431471586227417,0,0,1.2994799613952637
0.047088856,0,0,1.3431471586227417,0,0,0.611519992351532
0.047420483,0,0,1.3431471586227417,0,0,0.6879600286483765
0.047758221,0,0,1.278503656387329,0,0,0.9172800183296204
0.048089292,0,0,1.278503656387329,0,0,1.223039984703064
0.048420382,0,0,1.278503656387329,0,0,1.2994799613952637
0.048757897,0,0,1.278503656387329,0,0,0.6879600286483765
0.049091839,0,0,1.278503656387329,0,0,1.1466000080108643
0.049423077,0,0,1.278503656387329,0,0,0.611519992351532
0.04975913,0,0,1.3910311460494995,0,0,0
0.05009359,0,0,1.3910311460494995,0,0,0.2293200045824051
0.05042192,0,0,1.3910311460494995,0,0,1.2994799613952637
0.050759399,0,0,1.3910311460494995,0,0,1.2994799613952637
0.051093322,0,0,1.3910311460494995,0,0,-29.582279205322266
0.05142193,0,0,1.3910311460494995,0,0,1.9109998941421509
0.051762964,0,0,1.359906554222107,0,0,0.9172800183296204
0.052096665,0,0,1.359906554222107,0,0,0.611519992351532
0.052421977,0,0,1.359906554222107,0,0,0.7644000053405762
0.052755178,0,0,1.359906554222107,0,0,0.5350799560546875
0.053092119,0,0,1.359906554222107,0,0,0.611519992351532
0.053420802,0,0,1.359906554222107,0,0,0.9172800183296204
0.053756021,0,0,1.37906014919281,0,0,0.8408399820327759
0.05408737,0,0,1.37906014919281,0,0,0.7644000053405762
0.05442046,0,0,1.37906014919281,0,0,0.6879600286483765
0.054757513,0,0,1.37906014919281,0,0,0.8408399820327759
0.055089158,0,0,1.37906014919281,0,0,0.5350799560546875
0.05542047,0,0,1.37906014919281,0,0,0.9172800183296204
0.055757726,0,0,1.37906014919281,0,0,0.8408399820327759
0.056088668,0,0,1.4245500564575195,0,0,0.9937199950218201
0.05642061,0,0,1.4245500564575195,0,0,0.7644000053405762
0.056757829,0,0,1.4245500564575195,0,0,0.5350799560546875
0.057088845,0,0,1.4245500564575195,0,0,0.4586400091648102
0.057422249,0,0,1.4245500564575195,0,0,0.6879600286483765
0.057755728,0,0,1.4245500564575195,0,0,0.8408399820327759
0.058088984,0,0,1.4245500564575195,0,0,0.305759996175766
0.058421796,0,0,1.5083470344543457,0,0,0.6879600286483765
0.058758571,0,0,1.5083470344543457,0,0,0.611519992351532
0.059092938,0,0,1.5083470344543457,0,0,0.305759996175766
0.059421899,0,0,1.5083470344543457,0,0,0.8408399820327759
0.059758933,0,0,1.5083470344543457,0,0,0.305759996175766
0.060092541,0,0,1.5083470344543457,0,0,1.2994799613952637
0.060421742,0,0,1.5083470344543457,0,0,0
0.060759054,0,0,1.4867992401123047,0,0,0.305759996175766
0.061092458,0,0,1.4867992401123047,0,0,0.2293200045824051
0.061422141,0,0,1.4867992401123047,0,0,0.8408399820327759
0.061758971,0,0,1.4867992401123047,0,0,1.605239987373352
0.062097153,0,0,1.4867992401123047,0,0,0
0.062422114,0,0,1.4867992401123047,0,0,0.152879998087883
0.062759463,0,0,1.4867992401123047,0,0,0.152879998087883
0.063093015,0,0,1.3527239561080933,0,0,1.758120059967041
0.063421605,0,0,1.3527239561080933,0,0,9.478560447692871
0.063759121,0,0,1.3527239561080933,0,0,1.5288000106811523
0.064092581,0,0,1.3527239561080933,0,0,0.8408399820327759
0.064422263,0,0,1.3527239561080933,0,0,0.7644000053405762
0.064755038,0,0,1.3527239561080933,0,0,0.8408399820327759
0.065092146,0,0,1.3527239561080933,0,0,0.9172800183296204
0.065422699,0,0,1.3623007535934448,0,0,0.6879600286483765
0.065757752,0,0,1.3623007535934448,0,0,0.8408399820327759
0.06609149,0,0,1.3623007535934448,0,0,0.3822000026702881
0.066421746,0,0,1.3623007535934448,0,0,0.4586400091648102
0.066759151,0,0,1.3623007535934448,0,0,0.9172800183296204
0.067092388,0,0,1.3623007535934448,0,0,0.8408399820327759
0.067421719,0,0,1.3623007535934448,0,0,0.9937199950218201
0.067759253,0,0,1.3192051649093628,0,0,0.8408399820327759
0.068092732,0,0,1.3192051649093628,0,0,0.9937199950218201
0.068421581,0,0,1.3192051649093628,0,0,0.8408399820327759
0.068759356,0,0,1.3192051649093628,0,0,0.611519992351532
0.069102594,0,0,1.3192051649093628,0,0,0.3822000026702881
0.069422017,0,0,1.3192051649093628,0,0,0.7644000053405762
0.069759477,0,0,1.3192051649093628,0,0,0.9172800183296204
0.070093215,0,0,1.2282254695892334,0,0,0.4586400091648102
0.070421767,0,0,1.2282254695892334,0,0,1.070159912109375
0.070759283,0,0,1.2282254695892334,0,0,0.5350799560546875
0.071094428,0,0,1.2282254695892334,0,0,0.8408399820327759
0.071421796,0,0,1.2282254695892334,0,0,0.2293200045824051
0.071759052,0,0,1.2282254695892334,0,0,0.3822000026702881
0.072092586,0,0,1.2282254695892334,0,0,0.5350799560546875
0.072424361,0,0,1.314416766166687,0,0,1.1466000080108643
0.072758673,0,0,1.314416766166687,0,0,1.452359914779663
0.073092726,0,0,1.314416766166687,0,0,0
0.073421501,0,0,1.314416766166687,0,0,0.0764399990439415
0.073758998,0,0,1.314416766166687,0,0,0.3822000026702881
0.074092866,0,0,1.314416766166687,0,0,1.8345600366592407
0.07442177,0,0,1.314416766166687,0,0,0.0764399990439415
0.074758767,0,0,1.2425906658172607,0,0,1.375920057296753
0.07509282,0,0,1.2425906658172607,0,0,0.9937199950218201
0.075421873,0,0,1.2425906658172607,0,0,2.2932000160217285
0.075759185,0,0,1.2425906658172607,0,0,2.14031982421875
0.076093071,0,0,1.2425906658172607,0,0,0.9937199950218201
0.076421549,0,0,1.2425906658172607,0,0,0.9172800183296204
0.07675888,0,0,1.2425906658172607,0,0,0.7644000053405762
0.077092673,0,0,1.3096283674240112,0,0,0.7644000053405762
0.077421689,0,0,1.3096283674240112,0,0,0.9937199950218201
0.077759093,0,0,1.3096283674240112,0,0,0.7644000053405762
0.078092498,0,0,1.3096283674240112,0,0,0.4586400091648102
0.078421921,0,0,1.3096283674240112,0,0,0.8408399820327759
0.078758826,0,0,1.3096283674240112,0,0,0.7644000053405762
0.079092471,0,0,1.3096283674240112,0,0,0.9937199950218201
0.079421653,0,0,1.4197616577148438,0,0,0.9172800183296204
0.079759076,0,0,1.4197616577148438,0,0,0.305759996175766
0.080099407,0,0,1.4197616577148438,0,0,0.152879998087883
0.080421756,0,0,1.4197616577148438,0,0,0.6879600286483765
0.080754883,0,0,1.4197616577148438,0,0,1.070159912109375
0.081093343,0,0,1.4197616577148438,0,0,0.6879600286483765
0.081421655,0,0,1.4197616577148438,0,0,0.7644000053405762
0.081759115,0,0,1.479616641998291,0,0,0.5350799560546875
0.082092742,0,0,1.479616641998291,0,0,1.223039984703064
0.082421794,0,0,1.479616641998291,0,0,0.3822000026702881
0.082761606,0,0,1.479616641998291,0,0,0.8408399820327759
0.083095177,0,0,1.479616641998291,0,0,1.223039984703064
0.083422415,0,0,1.479616641998291,0,0,0.6879600286483765
0.08375482,0,0,1.479616641998291,0,0,1.1466000080108643
0.084093187,0,0,1.4915876388549805,0,0,0.7644000053405762
0.084421925,0,0,1.4915876388549805,0,0,0.5350799560546875
0.084757497,0,0,1.4915876388549805,0,0,0.9937199950218201
0.085091142,0,0,1.4915876388549805,0,0,0.6879600286483765
0.085421583,0,0,1.4915876388549805,0,0,0.2293200045824051
0.085778062,0,0,1.4915876388549805,0,0,1.1466000080108643
0.086092244,0,0,1.4915876388549805,0,0,0.0764399990439415
0.086426149,0,0,1.5107412338256836,0,0,0.5350799560546875
0.086754979,0,0,1.3623007535934448,0,0,0.305759996175766
0.087092199,0,0,1.3623007535934448,0,0,0.305759996175766
0.087425696,0,0,1.3623007535934448,0,0,1.6816799640655518
0.087755008,0,0,1.3623007535934448,0,0,9.325679779052734
0.088092042,0,0,1.3623007535934448,0,0,1.5288000106811523
0.088425447,0,0,1.4867992401123047,0,0,0.9937199950218201
0.088755277,0,0,1.4867992401123047,0,0,0.6879600286483765
0.089092496,0,0,1.4867992401123047,0,0,0.5350799560546875
0.089426605,0,0,1.4867992401123047,0,0,0.6879600286483765
0.089755009,0,0,1.4867992401123047,0,0,0.8408399820327759
0.090092155,0,0,1.4867992401123047,0,0,0.6879600286483765
0.090425818,0,0,1.4867992401123047,0,0,0.5350799560546875
0.090755501,0,0,1.37906014919281,0,0,0.5350799560546875
0.091091813,0,0,1.37906014919281,0,0,0.9172800183296204
0.091425051,0,0,1.37906014919281,0,0,0.611519992351532
0.091754937,0,0,1.37906014919281,0,0,0.9172800183296204
0.092092026,0,0,1.37906014919281,0,0,0.5350799560546875
0.092425505,0,0,1.37906014919281,0,0,0.7644000053405762
0.092755076,0,0,1.37906014919281,0,0,0.305759996175766
0.093094314,0,0,1.2856862545013428,0,0,0.3822000026702881
0.09343057,0,0,1.2856862545013428,0,0,0.7644000053405762
0.093754994,0,0,1.2856862545013428,0,0,0.8408399820327759
0.094088343,0,0,1.2856862545013428,0,0,1.1466000080108643
0.094425617,0,0,1.2856862545013428,0,0,0.5350799560546875
0.094755355,0,0,1.2856862545013428,0,0,0.7644000053405762
0.095092741,0,0,1.2856862545013428,0,0,0.5350799560546875
0.095426442,0,0,1.3000515699386597,0,0,0.6879600286483765
0.095754884,0,0,1.3000515699386597,0,0,0.305759996175766
0.096092437,0,0,1.3000515699386597,0,0,0.305759996175766
0.096426045,0,0,1.3000515699386597,0,0,0.7644000053405762
0.096754986,0,0,1.3000515699386597,0,0,1.452359914779663
0.097092687,0,0,1.3000515699386597,0,0,1.452359914779663
0.09742674,0,0,1.3000515699386597,0,0,0.0764399990439415
0.097754996,0,0,1.216254472732544,0,0,0.5350799560546875
0.098092845,0,0,1.216254472732544,0,0,0.6879600286483765
0.098426065,0,0,1.216254472732544,0,0,1.2994799613952637
0.098755062,0,0,1.216254472732544,0,0,0
0.099092059,0,0,1.216254472732544,0,0,1.375920057296753
0.099426389,0,0,1.216254472732544,0,0,0.152879998087883
0.099755053,0,0,1.216254472732544,0,0,1.6816799640655518
0.100092013,0,0,1.237802267074585,0,0,1.758120059967041
0.100426436,0,0,1.237802267074585,0,0,0.305759996175766
0.100754952,0,0,1.237802267074585,0,0,0.9172800183296204
0.101092246,0,0,1.237802267074585,0,0,0.4586400091648102
0.101426687,0,0,1.237802267074585,0,0,0.6879600286483765
0.101754981,0,0,1.237802267074585,0,0,0.9937199950218201
0.102092441,0,0,1.237802267074585,0,0,0.9172800183296204
0.102426197,0,0,1.2761094570159912,0,0,0.611519992351532
0.102754954,0,0,1.2761094570159912,0,0,0.9937199950218201
0.10309208,0,0,1.2761094570159912,0,0,0.6879600286483765
0.103428466,0,0,1.2761094570159912,0,0,0.5350799560546875
0.103755056,0,0,1.2761094570159912,0,0,0.305759996175766
0.104092072,0,0,1.2761094570159912,0,0,0.9172800183296204
0.104426087,0,0,1.2761094570159912,0,0,0.9172800183296204
0.104754955,0,0,1.3910311460494995,0,0,0.8408399820327759
0.105092008,0,0,1.3910311460494995,0,0,1.1466000080108643
0.10542756,0,0,1.3910311460494995,0,0,0.5350799560546875
0.105754632,0,0,1.3910311460494995,0,0,0.611519992351532
0.10609224,0,0,1.3910311460494995,0,0,0.7644000053405762
0.1064272,0,0,1.3910311460494995,0,0,1.223039984703064
0.106754586,0,0,1.3910311460494995,0,0,0.5350799560546875
0.107092139,0,0,1.4724340438842773,0,0,0.8408399820327759
0.107428784,0,0,1.4724340438842773,0,0,0.8408399820327759
0.108367257,0,0,1.4724340438842773,0,0,0.8408399820327759
0.108390831,0,0,1.4724340438842773,0,0,0.8408399820327759
0.108413627,0,0,1.4724340438842773,0,0,0.7644000053405762
0.109397341,0,0,1.4724340438842773,0,0,0.7644000053405762
0.109420674,0,0,1.4724340438842773,0,0,0.7644000053405762
0.109443841,0,0,1.4652514457702637,0,0,0
0.109780005,0,0,1.4652514457702637,0,0,0.6879600286483765
0.110156353,0,0,1.4652514457702637,0,0,1.8345600366592407
0.11042511,0,0,1.4652514457702637,0,0,0
0.110756144,0,0,1.4652514457702637,0,0,1.1466000080108643
0.111090401,0,0,1.4652514457702637,0,0,0.9172800183296204
0.111422027,0,0,1.4652514457702637,0,0,0.611519992351532
0.111758173,0,0,1.3455413579940796,0,0,0.611519992351532
0.112356186,0,0,1.3455413579940796,0,0,0.611519992351532
0.112481518,0,0,1.3455413579940796,0,0,0.9937199950218201
0.112788034,0,0,1.3455413579940796,0,0,0.8408399820327759
0.113091754,0,0,1.3455413579940796,0,0,0.6879600286483765
0.113423677,0,0,1.3455413579940796,0,0,0.9172800183296204
0.11376723,0,0,1.3455413579940796,0,0,0.7644000053405762
0.114103893,0,0,1.400607943534851,0,0,0.8408399820327759
0.114433076,0,0,1.400607943534851,0,0,0.9172800183296204
0.114756906,0,0,1.400607943534851,0,0,1.1466000080108643
0.117031461,0,0,1.400607943534851,0,0,1.1466000080108643
0.117055498,0,0,1.400607943534851,0,0,1.1466000080108643
0.117078627,0,0,1.400607943534851,0,0,1.1466000080108643
0.117101497,0,0,1.400607943534851,0,0,1.1466000080108643
0.117124497,0,0,1.213860273361206,0,0,1.1466000080108643
0.117147645,0,0,1.213860273361206,0,0,1.1466000080108643
0.11717133,0,0,1.213860273361206,0,0,0.4586400091648102
0.117447143,0,0,1.213860273361206,0,0,0.305759996175766
0.117763621,0,0,1.213860273361206,0,0,0.6879600286483765
0.118091526,0,0,1.213860273361206,0,0,0.8408399820327759
0.118424412,0,0,1.213860273361206,0,0,0.7644000053405762
0.118755705,0,0,1.2210428714752197,0,0,1.1466000080108643
0.119089443,0,0,1.2210428714752197,0,0,0.9172800183296204
0.119426681,0,0,1.2210428714752197,0,0,1.070159912109375
0.119754993,0,0,1.2210428714752197,0,0,0.611519992351532
0.120088046,0,0,1.2210428714752197,0,0,0.2293200045824051
0.120420895,0,0,1.2210428714752197,0,0,0.5350799560546875
0.120761262,0,0,1.2210428714752197,0,0,0.9172800183296204
0.121091148,0,0,1.3000515699386597,0,0,0.4586400091648102
0.121454127,0,0,1.3000515699386597,0,0,0.6879600286483765
0.121838883,0,0,1.3000515699386597,0,0,0
0.12209151,0,0,1.3000515699386597,0,0,0.9172800183296204
0.122435896,0,0,1.3000515699386597,0,0,0.6879600286483765
0.122754412,0,0,1.3000515699386597,0,0,-29.582279205322266
0.123087168,0,0,1.3000515699386597,0,0,1.223039984703064
0.123420536,0,0,1.1659762859344482,0,0,1.452359914779663
0.123753996,0,0,1.1659762859344482,0,0,1.375920057296753
0.124093475,0,0,1.1659762859344482,0,0,1.605239987373352
0.12442149,0,0,1.1659762859344482,0,0,2.06387996673584
0.124753654,0,0,1.1659762859344482,0,0,0.305759996175766
0.125087225,0,0,1.1659762859344482,0,0,0.5350799560546875
0.125421222,0,0,1.1659762859344482,0,0,0.6879600286483765
0.125753683,0,0,1.2713210582733154,0,0,0.8408399820327759
0.126087143,0,0,1.2713210582733154,0,0,1.070159912109375
0.126420788,0,0,1.2713210582733154,0,0,0.9937199950218201
0.12675373,0,0,1.2713210582733154,0,0,0.611519992351532
0.127087134,0,0,1.2713210582733154,0,0,0.4586400091648102
0.127420742,0,0,1.2713210582733154,0,0,0.9172800183296204
0.127753684,0,0,1.2713210582733154,0,0,0.5350799560546875
0.12808707,0,0,1.3000515699386597,0,0,0.2293200045824051
0.128420882,0,0,1.3000515699386597,0,0,0.3822000026702881
0.128753712,0,0,1.3000515699386597,0,0,0.9937199950218201
0.12908708,0,0,1.3000515699386597,0,0,0.9172800183296204
0.129420984,0,0,1.3000515699386597,0,0,0.9172800183296204
0.12975363,0,0,1.3000515699386597,0,0,0.8408399820327759
0.130087034,0,0,1.3000515699386597,0,0,0.7644000053405762
0.13042068,0,0,1.4676456451416016,0,0,0.6879600286483765
0.130754177,0,0,1.4676456451416016,0,0,0.305759996175766
0.131086896,0,0,1.4676456451416016,0,0,0.5350799560546875
0.131420486,0,0,1.4676456451416016,0,0,1.2994799613952637
0.131754187,0,0,1.4676456451416016,0,0,1.5288000106811523
0.132087258,0,0,1.4676456451416016,0,0,1.1466000080108643
0.132420311,0,0,1.4676456451416016,0,0,0.7644000053405762
0.132754382,0,0,1.460463047027588,0,0,0.5350799560546875
0.133087212,0,0,1.460463047027588,0,0,0.611519992351532
0.133420561,0,0,1.460463047027588,0,0,0
0.133754207,0,0,1.460463047027588,0,0,0
0.134087019,0,0,1.460463047027588,0,0,1.070159912109375
0.134422423,0,0,1.460463047027588,0,0,1.1466000080108643
0.134761957,0,0,1.460463047027588,0,0,0.7644000053405762
0.135089084,0,0,1.4245500564575195,0,0,0.9937199950218201
0.135420803,0,0,1.4245500564575195,0,0,0.0764399990439415
0.135754727,0,0,1.4245500564575195,0,0,0.152879998087883
0.136087094,0,0,1.4245500564575195,0,0,9.631440162658691
0.136420276,0,0,1.4245500564575195,0,0,0
0.136753718,0,0,1.4245500564575195,0,0,1.758120059967041
0.137087123,0,0,1.4245500564575195,0,0,0.0764399990439415
0.137420509,0,0,1.4077905416488647,0,0,0.9172800183296204
0.137753709,0,0,1.4077905416488647,0,0,0.8408399820327759
0.138087484,0,0,1.4077905416488647,0,0,0.9937199950218201
0.138420426,0,0,1.4077905416488647,0,0,0.9937199950218201
0.138753868,0,0,1.4077905416488647,0,0,0.6879600286483765
0.139087513,0,0,1.4077905416488647,0,0,0.611519992351532
0.139420436,0,0,1.4077905416488647,0,0,0.8408399820327759
0.1397536,0,0,1.53707754611969,0,0,0.7644000053405762
0.140087578,0,0,1.53707754611969,0,0,0.611519992351532
0.140420446,0,0,1.53707754611969,0,0,0.9172800183296204
0.140753813,0,0,1.53707754611969,0,0,0.9172800183296204
0.14108757,0,0,1.53707754611969,0,0,0.6879600286483765
0.141420215,0,0,1.53707754611969,0,0,0.5350799560546875
0.141753916,0,0,1.53707754611969,0,0,0.6879600286483765
0.14208758,0,0,1.2497732639312744,0,0,0.5350799560546875
0.142420466,0,0,1.2497732639312744,0,0,1.1466000080108643
0.142753852,0,0,1.2497732639312744,0,0,0.9172800183296204
0.143087571,0,0,1.2497732639312744,0,0,1.070159912109375
0.143420494,0,0,1.2497732639312744,0,0,0.6879600286483765
0.143761751,0,0,1.2497732639312744,0,0,0.7644000053405762
0.1440876,0,0,1.2497732639312744,0,0,0.7644000053405762
0.144420541,0,0,1.2856862545013428,0,0,0
0.144756464,0,0,1.2856862545013428,0,0,0.4586400091648102
0.145087295,0,0,1.2856862545013428,0,0,1.1466000080108643
0.145420866,0,0,1.2856862545013428,0,0,1.223039984703064
0.145752474,0,0,1.2856862545013428,0,0,1.1466000080108643
0.146085934,0,0,1.2856862545013428,0,0,0.2293200045824051
0.146419654,0,0,1.2856862545013428,0,0,0.0764399990439415
0.146752521,0,0,1.2521674633026123,0,0,-29.582279205322266
0.147085704,0,0,1.2521674633026123,0,0,0
0.147419553,0,0,1.2521674633026123,0,0,0.152879998087883
0.14775242,0,0,1.2521674633026123,0,0,1.5288000106811523
0.148085843,0,0,1.2521674633026123,0,0,1.2994799613952637
0.148419655,0,0,1.2521674633026123,0,0,1.6816799640655518
0.148752504,0,0,1.2521674633026123,0,0,1.6816799640655518
0.149085705,0,0,1.2066776752471924,0,0,0.3822000026702881
0.149421332,0,0,1.2066776752471924,0,0,0.5350799560546875
0.149753847,0,0,1.2066776752471924,0,0,0.9172800183296204
0.150086919,0,0,1.2066776752471924,0,0,0.9937199950218201
0.150420694,0,0,1.2066776752471924,0,0,0.9172800183296204
0.150753654,0,0,1.2066776752471924,0,0,0.9937199950218201
0.151086818,0,0,1.2066776752471924,0,0,0.5350799560546875
0.151420185,0,0,1.3431471586227417,0,0,0.9937199950218201
0.151753997,0,0,1.3431471586227417,0,0,1.070159912109375
0.152088068,0,0,1.3431471586227417,0,0,0.611519992351532
0.152420473,0,0,1.3431471586227417,0,0,0.7644000053405762
0.152754229,0,0,1.3431471586227417,0,0,0.8408399820327759
0.153086856,0,0,1.3431471586227417,0,0,0.9172800183296204
0.153420557,0,0,1.3431471586227417,0,0,0.5350799560546875
0.153754258,0,0,1.357512354850769,0,0,0.6879600286483765
0.154087088,0,0,1.357512354850769,0,0,1.1466000080108643
0.154420326,0,0,1.357512354850769,0,0,1.070159912109375
0.154754101,0,0,1.357512354850769,0,0,0.5350799560546875
0.155089524,0,0,1.357512354850769,0,0,0.5350799560546875
0.155420429,0,0,1.357512354850769,0,0,0.4586400091648102
0.155754111,0,0,1.357512354850769,0,0,0.611519992351532
0.156086886,0,0,1.403002142906189,0,0,0.9937199950218201
0.156420346,0,0,1.403002142906189,0,0,0.9172800183296204
0.156754047,0,0,1.403002142906189,0,0,1.070159912109375
0.157086988,0,0,1.403002142906189,0,0,0.9172800183296204
0.157420504,0,0,1.403002142906189,0,0,0.5350799560546875
0.157753909,0,0,1.403002142906189,0,0,0.611519992351532
0.15808698,0,0,1.403002142906189,0,0,0.2293200045824051
0.158420292,0,0,1.4460978507995605,0,0,0.305759996175766
0.158753622,0,0,1.4460978507995605,0,0,1.452359914779663
0.159086971,0,0,1.4460978507995605,0,0,1.223039984703064
0.159420172,0,0,1.4460978507995605,0,0,1.1466000080108643
0.159753669,0,0,1.4460978507995605,0,0,0.305759996175766
0.160087574,0,0,1.4460978507995605,0,0,0.152879998087883
0.160420367,0,0,1.4460978507995605,0,0,0.5350799560546875
0.160753735,0,0,1.3215993642807007,0,0,8.561279296875
0.161087269,0,0,1.3215993642807007,0,0,9.478560447692871
0.161420155,0,0,1.3215993642807007,0,0,1.070159912109375
0.161753652,0,0,1.3215993642807007,0,0,0.9937199950218201
0.162337036,0,0,1.3215993642807007,0,0,0.9937199950218201
0.162360795,0,0,1.3215993642807007,0,0,0.6879600286483765
0.162772254,0,0,1.3215993642807007,0,0,0.7644000053405762
0.163099992,0,0,1.3910311460494995,0,0,0.9172800183296204
0.163429193,0,0,1.3910311460494995,0,0,0.305759996175766
0.163765116,0,0,1.3910311460494995,0,0,0.8408399820327759
0.164088447,0,0,1.3910311460494995,0,0,0.7644000053405762
0.164429833,0,0,1.3910311460494995,0,0,0.611519992351532
0.164784163,0,0,1.3910311460494995,0,0,0.6879600286483765
0.165107197,0,0,1.3910311460494995,0,0,0.5350799560546875
0.165437269,0,0,1.5083470344543457,0,0,0.9937199950218201
0.165770155,0,0,1.5083470344543457,0,0,0.7644000053405762
0.166088689,0,0,1.5083470344543457,0,0,0.6879600286483765
0.166427186,0,0,1.5083470344543457,0,0,0.3822000026702881
0.166760276,0,0,1.5083470344543457,0,0,0.8408399820327759
0.167090773,0,0,1.5083470344543457,0,0,0.611519992351532
0.167441881,0,0,1.5083470344543457,0,0,0.7644000053405762
0.16778336,0,0,1.3192051649093628,0,0,0.611519992351532
0.168100857,0,0,1.3192051649093628,0,0,0.9937199950218201
0.168438299,0,0,1.3192051649093628,0,0,0.305759996175766
0.16875687,0,0,1.3192051649093628,0,0,0.4586400091648102
0.1690887,0,0,1.3192051649093628,0,0,0.8408399820327759
0.169429364,0,0,1.3192051649093628,0,0,1.9109998941421509
0.169760491,0,0,1.3192051649093628,0,0,0.6879600286483765
0.170098544,0,0,1.2880805730819702,0,0,0.6879600286483765
0.170438318,0,0,1.2880805730819702,0,0,0.0764399990439415
0.170758075,0,0,1.2880805730819702,0,0,0.9172800183296204
0.17113409,0,0,1.2880805730819702,0,0,1.223039984703064
0.171433754,0,0,1.2880805730819702,0,0,1.5288000106811523
0.171773326,0,0,1.2880805730819702,0,0,1.452359914779663
0.17209249,0,0,1.2880805730819702,0,0,0.611519992351532
0.172424357,0,0,1.1827356815338135,0,0,0.305759996175766
0.17276791,0,0,1.1827356815338135,0,0,0
0.173092166,0,0,1.1827356815338135,0,0,1.2994799613952637
0.1734352,0,0,1.1827356815338135,0,0,0.8408399820327759
0.173765234,0,0,1.1827356815338135,0,0,0.305759996175766
0.174126139,0,0,1.1827356815338135,0,0,0.7644000053405762
0.174428044,0,0,1.1827356815338135,0,0,1.1466000080108643
0.174757763,0,0,1.113303780555725,0,0,0.7644000053405762
0.175105427,0,0,1.113303780555725,0,0,0.7644000053405762
0.17542398,0,0,1.113303780555725,0,0,0.9172800183296204
0.17577081,0,0,1.113303780555725,0,0,0.9937199950218201
0.176109455,0,0,1.113303780555725,0,0,0.9172800183296204
0.176424249,0,0,1.113303780555725,0,0,0.5350799560546875
0.176757653,0,0,1.113303780555725,0,0,0.6879600286483765
0.177099743,0,0,1.1875240802764893,0,0,0.611519992351532
0.177427759,0,0,1.1875240802764893,0,0,0.7644000053405762
0.177762219,0,0,1.1875240802764893,0,0,0.7644000053405762
0.178100679,0,0,1.1875240802764893,0,0,0.9172800183296204
0.178424861,0,0,1.1875240802764893,0,0,0.9937199950218201
0.178763562,0,0,1.1875240802764893,0,0,0.8408399820327759
0.179102615,0,0,1.1875240802764893,0,0,0.7644000053405762
0.179424834,0,0,1.256955862045288,0,0,0.4586400091648102
0.179763202,0,0,1.256955862045288,0,0,0.5350799560546875
0.180102143,0,0,1.256955862045288,0,0,1.1466000080108643
0.180430529,0,0,1.256955862045288,0,0,0.9937199950218201
0.180767156,0,0,1.256955862045288,0,0,0.0764399990439415
0.18111356,0,0,1.256955862045288,0,0,0.7644000053405762
0.182391827,0,0,1.256955862045288,0,0,0.7644000053405762
0.182416105,0,0,1.434126853942871,0,0,0.7644000053405762
0.182439345,0,0,1.434126853942871,0,0,0.7644000053405762
0.182462438,0,0,1.434126853942871,0,0,1.758120059967041
0.182771491,0,0,1.434126853942871,0,0,0.7644000053405762
0.183098155,0,0,1.434126853942871,0,0,-29.582279205322266
0.183442966,0,0,1.434126853942871,0,0,1.6816799640655518
0.183758612,0,0,1.434126853942871,0,0,1.2994799613952637
0.184092146,0,0,1.4221558570861816,0,0,1.9109998941421509
0.18442881,0,0,1.4221558570861816,0,0,1.223039984703064
0.184771307,0,0,1.4221558570861816,0,0,0.8408399820327759
0.185090841,0,0,1.4221558570861816,0,0,0.305759996175766
0.185427579,0,0,1.4221558570861816,0,0,0.8408399820327759
0.185765002,0,0,1.4221558570861816,0,0,0.7644000053405762
0.186114518,0,0,1.4221558570861816,0,0,0.9937199950218201
0.18643783,0,0,1.2665326595306396,0,0,0.7644000053405762
0.186767901,0,0,1.2665326595306396,0,0,0.7644000053405762
0.187111583,0,0,1.2665326595306396,0,0,0.611519992351532
0.187440766,0,0,1.2665326595306396,0,0,0.6879600286483765
0.187770744,0,0,1.2665326595306396,0,0,0.7644000053405762
0.188108223,0,0,1.2665326595306396,0,0,0.9172800183296204
0.188446387,0,0,1.2665326595306396,0,0,0.6879600286483765
0.188774439,0,0,1.5059528350830078,0,0,0.5350799560546875
0.189109566,0,0,1.5059528350830078,0,0,0.7644000053405762
0.189441859,0,0,1.5059528350830078,0,0,0.611519992351532
0.189788634,0,0,1.5059528350830078,0,0,0.611519992351532
0.190112409,0,0,1.5059528350830078,0,0,0.5350799560546875
0.190447129,0,0,1.5059528350830078,0,0,0.6879600286483765
0.190769052,0,0,1.4652514457702637,0,0,0.7644000053405762
0.191107882,0,0,1.4652514457702637,0,0,1.1466000080108643
0.191425009,0,0,1.4652514457702637,0,0,0.611519992351532
0.191760414,0,0,1.4652514457702637,0,0,0.2293200045824051
0.192095466,0,0,1.4652514457702637,0,0,0.6879600286483765
0.192434926,0,0,1.4652514457702637,0,0,0.6879600286483765
0.192757313,0,0,1.4652514457702637,0,0,0.5350799560546875
0.193090291,0,0,1.256955862045288,0,0,0.6879600286483765
0.193438733,0,0,1.256955862045288,0,0,1.605239987373352
0.193757341,0,0,1.256955862045288,0,0,0.6879600286483765
0.194088523,0,0,1.256955862045288,0,0,1.223039984703064
0.19443252,0,0,1.256955862045288,0,0,1.758120059967041
0.194756407,0,0,1.256955862045288,0,0,1.223039984703064
0.195096496,0,0,1.256955862045288,0,0,0.8408399820327759
0.195442697,0,0,1.3096283674240112,0,0,0
0.195755528,0,0,1.3096283674240112,0,0,0.5350799560546875
0.196088747,0,0,1.3096283674240112,0,0,0.3822000026702881
0.196442077,0,0,1.3096283674240112,0,0,0.611519992351532
0.196755667,0,0,1.3096283674240112,0,0,0.9172800183296204
0.197089035,0,0,1.3096283674240112,0,0,2.2167599201202393
0.197447087,0,0,1.3096283674240112,0,0,0.8408399820327759
0.197766659,0,0,1.1994950771331787,0,0,0.7644000053405762
0.198089841,0,0,1.1994950771331787,0,0,0.5350799560546875
0.198433412,0,0,1.1994950771331787,0,0,0.611519992351532
0.198755206,0,0,1.1994950771331787,0,0,0.6879600286483765
0.199095166,0,0,1.1994950771331787,0,0,0.7644000053405762
0.199442496,0,0,1.1994950771331787,0,0,0.7644000053405762
0.199755549,0,0,1.1994950771331787,0,0,0.6879600286483765
0.200088565,0,0,1.3048399686813354,0,0,0.6879600286483765
0.200430839,0,0,1.3048399686813354,0,0,0.611519992351532
0.200755337,0,0,1.3048399686813354,0,0,0.611519992351532
0.20108913,0,0,1.3048399686813354,0,0,0.9172800183296204
0.201433053,0,0,1.3048399686813354,0,0,1.1466000080108643
0.201755161,0,0,1.3048399686813354,0,0,0.5350799560546875
0.202088381,0,0,1.3048399686813354,0,0,0.611519992351532
0.202427711,0,0,1.357512354850769,0,0,0.5350799560546875
0.20275519,0,0,1.357512354850769,0,0,0.9172800183296204
0.203092594,0,0,1.357512354850769,0,0,0.4586400091648102
0.203426518,0,0,1.357512354850769,0,0,0.611519992351532
0.203755404,0,0,1.357512354850769,0,0,0.9172800183296204
0.204092419,0,0,1.357512354850769,0,0,0.4586400091648102
0.204426527,0,0,1.357512354850769,0,0,0.7644000053405762
0.204755265,0,0,1.3263877630233765,0,0,1.1466000080108643
0.205093207,0,0,1.3263877630233765,0,0,0.7644000053405762
0.20542813,0,0,1.3263877630233765,0,0,0.6879600286483765
0.205755201,0,0,1.3263877630233765,0,0,1.070159912109375
0.206092606,0,0,1.3263877630233765,0,0,0.5350799560546875
0.20642677,0,0,1.3263877630233765,0,0,1.070159912109375
0.206760433,0,0,1.3263877630233765,0,0,0.4586400091648102
0.207092671,0,0,1.5155296325683594,0,0,0.305759996175766
0.207426761,0,0,1.5155296325683594,0,0,0.2293200045824051
0.207755073,0,0,1.5155296325683594,0,0,1.6816799640655518
0.208092459,0,0,1.5155296325683594,0,0,1.758120059967041
0.208426475,0,0,1.5155296325683594,0,0,0.2293200045824051
0.208755435,0,0,1.5155296325683594,0,0,0
0.209092284,0,0,1.5155296325683594,0,0,0
0.209428707,0,0,1.45806884765625,0,0,1.1466000080108643
0.209755167,0,0,1.45806884765625,0,0,0
0.210092738,0,0,1.45806884765625,0,0,0.6879600286483765
0.210426569,0,0,1.45806884765625,0,0,0.611519992351532
0.21075527,0,0,1.45806884765625,0,0,0.8408399820327759
0.211119322,0,0,1.45806884765625,0,0,0.8408399820327759
0.211426671,0,0,1.45806884765625,0,0,0.9172800183296204
0.211760835,0,0,1.3766659498214722,0,0,0.7644000053405762
0.212088443,0,0,1.3766659498214722,0,0,0.9937199950218201
0.212425755,0,0,1.3766659498214722,0,0,0.9172800183296204
0.212759938,0,0,1.3766659498214722,0,0,0.4586400091648102
0.213088268,0,0,1.3766659498214722,0,0,0.6879600286483765
0.213422987,0,0,1.3766659498214722,0,0,0.611519992351532
0.21376817,0,0,1.3766659498214722,0,0,0.8408399820327759
0.214088797,0,0,1.4532804489135742,0,0,0.305759996175766
0.214421701,0,0,1.4532804489135742,0,0,0.5350799560546875
0.214768494,0,0,1.4532804489135742,0,0,0.611519992351532
0.215088418,0,0,1.4532804489135742,0,0,0.7644000053405762
0.215421619,0,0,1.4532804489135742,0,0,0.7644000053405762
0.215761542,0,0,1.4532804489135742,0,0,0.5350799560546875
0.216088502,0,0,1.4532804489135742,0,0,0.7644000053405762
0.216425851,0,0,1.3503297567367554,0,0,1.070159912109375
0.216759274,0,0,1.3503297567367554,0,0,0.611519992351532
0.21709116,0,0,1.3503297567367554,0,0,0.611519992351532
0.217422379,0,0,1.3503297567367554,0,0,0.2293200045824051
0.21776495,0,0,1.3503297567367554,0,0,1.2994799613952637
0.218088355,0,0,1.3503297567367554,0,0,0.9172800183296204
0.218422222,0,0,1.3503297567367554,0,0,0.7644000053405762
0.218760553,0,0,1.2545616626739502,0,0,0.2293200045824051
0.21908868,0,0,1.2545616626739502,0,0,0.9172800183296204
0.21942601,0,0,1.2545616626739502,0,0,0.2293200045824051
0.219759489,0,0,1.2545616626739502,0,0,1.605239987373352
0.220088338,0,0,1.2545616626739502,0,0,9.402119636535645
0.220425872,0,0,1.2545616626739502,0,0,0.2293200045824051
0.220759573,0,0,1.2545616626739502,0,0,0.3822000026702881
0.22108844,0,0,1.2665326595306396,0,0,0.9172800183296204
0.221422567,0,0,1.2665326595306396,0,0,2.06387996673584
0.221764194,0,0,1.2665326595306396,0,0,0.152879998087883
0.22208845,0,0,1.2665326595306396,0,0,0.2293200045824051
0.222421799,0,0,1.2665326595306396,0,0,0.7644000053405762
0.222760611,0,0,1.2665326595306396,0,0,1.223039984703064
0.223089053,0,0,1.2665326595306396,0,0,0.611519992351532
0.223425643,0,0,1.1779472827911377,0,0,0.6879600286483765
0.223759362,0,0,1.1779472827911377,0,0,0.611519992351532
0.224088341,0,0,1.1779472827911377,0,0,0.9937199950218201
0.224425856,0,0,1.1779472827911377,0,0,1.223039984703064
0.224759464,0,0,1.1779472827911377,0,0,0.9937199950218201
0.225088351,0,0,1.1779472827911377,0,0,0.7644000053405762
0.225422181,0,0,1.1779472827911377,0,0,0.611519992351532
0.225764511,0,0,1.3263877630233765,0,0,0.5350799560546875
0.226088472,0,0,1.3263877630233765,0,0,0.8408399820327759
0.226421895,0,0,1.3263877630233765,0,0,0.7644000053405762
0.226760021,0,0,1.3263877630233765,0,0,0.611519992351532
0.227088593,0,0,1.3263877630233765,0,0,0.8408399820327759
0.22742846,0,0,1.3263877630233765,0,0,0.5350799560546875
0.227762105,0,0,1.3263877630233765,0,0,0.9937199950218201
0.228088621,0,0,1.3479355573654175,0,0,0.4586400091648102
0.228421766,0,0,1.3479355573654175,0,0,0.611519992351532
0.228758541,0,0,1.3479355573654175,0,0,0.9172800183296204
0.229088502,0,0,1.3479355573654175,0,0,0.6879600286483765
0.229424017,0,0,1.3479355573654175,0,0,0.611519992351532
0.229757422,0,0,1.3479355573654175,0,0,0.8408399820327759
0.2300884,0,0,1.3479355573654175,0,0,0.305759996175766
0.230425897,0,0,1.3742717504501343,0,0,0.305759996175766
0.230759709,0,0,1.3742717504501343,0,0,1.375920057296753
0.231088633,0,0,1.3742717504501343,0,0,0.5350799560546875
0.231425685,0,0,1.3742717504501343,0,0,0.9172800183296204
0.231761238,0,0,1.3742717504501343,0,0,0.5350799560546875
0.232088624,0,0,1.3742717504501343,0,0,1.6816799640655518
0.232426084,0,0,1.3742717504501343,0,0,1.1466000080108643
0.232759933,0,0,1.558625340461731,0,0,1.1466000080108643
0.233088486,0,0,1.558625340461731,0,0,0.305759996175766
0.233421946,0,0,1.558625340461731,0,0,9.325679779052734
0.233760239,0,0,1.558625340461731,0,0,2.6754000186920166
0.234088477,0,0,1.558625340461731,0,0,1.605239987373352
0.234425863,0,0,1.558625340461731,0,0,0.611519992351532
0.23475999,0,0,1.558625340461731,0,0,0.8408399820327759
0.235089191,0,0,1.4676456451416016,0,0,0.8408399820327759
0.235426021,0,0,1.4676456451416016,0,0,0.6879600286483765
0.235760093,0,0,1.4676456451416016,0,0,0.4586400091648102
0.236088701,0,0,1.4676456451416016,0,0,0.6879600286483765
0.236426124,0,0,1.4676456451416016,0,0,0.9937199950218201
0.236760121,0,0,1.4676456451416016,0,0,1.070159912109375
0.237088359,0,0,1.4676456451416016,0,0,1.070159912109375
0.237422338,0,0,1.4221558570861816,0,0,1.070159912109375
0.237767483,0,0,1.4221558570861816,0,0,0.9172800183296204
0.238088739,0,0,1.4221558570861816,0,0,0.6879600286483765
0.238421625,0,0,1.4221558570861816,0,0,0.6879600286483765
0.238759585,0,0,1.4221558570861816,0,0,1.070159912109375
0.239088527,0,0,1.4221558570861816,0,0,0.6879600286483765
0.239425709,0,0,1.4221558570861816,0,0,0.7644000053405762
0.23975954,0,0,1.4891934394836426,0,0,0.6879600286483765
0.240088518,0,0,1.4891934394836426,0,0,0.611519992351532
0.240425941,0,0,1.2832920551300049,0,0,1.070159912109375
0.240760624,0,0,1.2832920551300049,0,0,0.6879600286483765
0.241088473,0,0,1.2832920551300049,0,0,0.7644000053405762
0.2414226,0,0,1.2617442607879639,0,0,0.5350799560546875
0.241764615,0,0,1.2617442607879639,0,0,0.152879998087883
0.242088594,0,0,1.2617442607879639,0,0,0.305759996175766
0.24242185,0,0,1.2401964664459229,0,0,0.9172800183296204
0.242758866,0,0,1.2401964664459229,0,0,0.152879998087883
0.243088622,0,0,1.2401964664459229,0,0,1.223039984703064
0.243425712,0,0,1.2401964664459229,0,0,0.305759996175766
0.243759524,0,0,1.2401964664459229,0,0,0.8408399820327759
0.244088484,0,0,1.2401964664459229,0,0,0.7644000053405762
0.244425685,0,0,1.2401964664459229,0,0,0
0.244759515,0,0,1.259350061416626,0,0,0.305759996175766
0.245088902,0,0,1.259350061416626,0,0,0.7644000053405762
0.245422121,0,0,1.259350061416626,0,0,0.7644000053405762
0.245764211,0,0,1.259350061416626,0,0,1.452359914779663
0.246088467,0,0,1.259350061416626,0,0,1.5288000106811523
0.246422094,0,0,1.259350061416626,0,0,0.4586400091648102
0.246758943,0,0,1.259350061416626,0,0,0.8408399820327759
0.247088347,0,0,1.280897855758667,0,0,0.7644000053405762
0.247422474,0,0,1.280897855758667,0,0,0.7644000053405762
0.247759582,0,0,1.280897855758667,0,0,0.6879600286483765
0.248091117,0,0,1.280897855758667,0,0,0.8408399820327759
0.248426021,0,0,1.280897855758667,0,0,0.7644000053405762
0.248759629,0,0,1.280897855758667,0,0,0.5350799560546875
0.249088367,0,0,1.280897855758667,0,0,0.6879600286483765
0.249422198,0,0,1.316810965538025,0,0,1.070159912109375
0.249764473,0,0,1.316810965538025,0,0,0.9172800183296204
0.250098525,0,0,1.316810965538025,0,0,0.5350799560546875
0.250421763,0,0,1.316810965538025,0,0,0.8408399820327759
0.250758816,0,0,1.316810965538025,0,0,0.6879600286483765
0.251088387,0,0,1.316810965538025,0,0,0.9937199950218201
0.251426181,0,0,1.4963760375976563,0,0,0.9172800183296204
0.251759233,0,0,1.4963760375976563,0,0,0.9937199950218201
0.25208849,0,0,1.4963760375976563,0,0,0.4586400091648102
0.252426209,0,0,1.4963760375976563,0,0,0.5350799560546875
0.252759873,0,0,1.4963760375976563,0,0,1.070159912109375
0.253088315,0,0,1.436521053314209,0,0,1.1466000080108643
0.253422127,0,0,1.436521053314209,0,0,1.1466000080108643
0.253763457,0,0,1.4724340438842773,0,0,0.8408399820327759
0.254088695,0,0,1.4724340438842773,0,0,0.7644000053405762
0.254421692,0,0,1.4724340438842773,0,0,0.611519992351532
0.254759059,0,0,1.4724340438842773,0,0,1.452359914779663
0.255088797,0,0,1.4724340438842773,0,0,0.6879600286483765
0.255425832,0,0,1.400607943534851,0,0,0.7644000053405762
0.255760236,0,0,1.400607943534851,0,0,0.6879600286483765
0.25608853,0,0,1.400607943534851,0,0,0.9172800183296204
0.256425804,0,0,1.400607943534851,0,0,1.5288000106811523
0.256760042,0,0,1.400607943534851,0,0,0.3822000026702881
0.257088484,0,0,1.400607943534851,0,0,0.5350799560546875
0.257422166,0,0,1.400607943534851,0,0,0.2293200045824051
0.257764793,0,0,1.1516109704971313,0,0,9.096360206604004
0.25808855,0,0,1.1516109704971313,0,0,-29.888038635253906
0.258423973,0,0,1.1516109704971313,0,0,1.5288000106811523
0.258761303,0,0,1.1516109704971313,0,0,0.7644000053405762
0.259088689,0,0,1.1516109704971313,0,0,0.8408399820327759
0.259425779,0,0,1.1516109704971313,0,0,0.7644000053405762
0.259759276,0,0,1.1516109704971313,0,0,0.8408399820327759
0.260088606,0,0,1.2976573705673218,0,0,0.9937199950218201
0.260425511,0,0,1.2976573705673218,0,0,0.9172800183296204
0.260758823,0,0,1.2976573705673218,0,0,0.611519992351532
0.261088505,0,0,1.2976573705673218,0,0,0.5350799560546875
0.261421984,0,0,1.2976573705673218,0,0,0.6879600286483765
0.261764277,0,0,1.2976573705673218,0,0,0.8408399820327759
0.262088589,0,0,1.2976573705673218,0,0,0.8408399820327759
0.262421938,0,0,1.2425906658172607,0,0,0.7644000053405762
0.262760269,0,0,1.2425906658172607,0,0,0.9172800183296204
0.263088562,0,0,1.2425906658172607,0,0,0.5350799560546875
0.2634258,0,0,1.2425906658172607,0,0,0.6879600286483765
0.263759186,0,0,1.2425906658172607,0,0,0.5350799560546875
0.264088572,0,0,1.2425906658172607,0,0,0.7644000053405762
0.264425625,0,0,1.2473790645599365,0,0,1.070159912109375
0.264759029,0,0,1.2473790645599365,0,0,0.4586400091648102
0.265088416,0,0,1.2473790645599365,0,0,0.8408399820327759
0.265422209,0,0,1.2473790645599365,0,0,0.5350799560546875
0.265764447,0,0,1.2473790645599365,0,0,0.5350799560546875
0.266088925,0,0,1.2473790645599365,0,0,0.2293200045824051
0.266421534,0,0,1.2473790645599365,0,0,0.9172800183296204
0.266758586,0,0,1.2713210582733154,0,0,0.152879998087883
0.267088676,0,0,1.2713210582733154,0,0,1.2994799613952637
0.267425599,0,0,1.2713210582733154,0,0,1.375920057296753
0.267765726,0,0,1.2713210582733154,0,0,1.1466000080108643
0.268088519,0,0,1.2713210582733154,0,0,0.611519992351532
0.268425665,0,0,1.2713210582733154,0,0,0
0.268761866,0,0,1.2713210582733154,0,0,1.375920057296753
0.269088659,0,0,1.2521674633026123,0,0,1.452359914779663
0.269422175,0,0,1.2521674633026123,0,0,1.452359914779663
0.269764375,0,0,1.2521674633026123,0,0,1.8345600366592407
0.27008841,0,0,1.2521674633026123,0,0,1.5288000106811523
0.270421759,0,0,1.2521674633026123,0,0,0.7644000053405762
0.270759515,0,0,1.2521674633026123,0,0,1.758120059967041
0.271088697,0,0,1.2521674633026123,0,0,0.9172800183296204
0.27143188,0,0,1.4245500564575195,0,0,0.9172800183296204
0.271765858,0,0,1.4245500564575195,0,0,0.4586400091648102
0.272088485,0,0,1.4245500564575195,0,0,0.9937199950218201
0.27242226,0,0,1.4245500564575195,0,0,0.9172800183296204
0.272760183,0,0,1.4245500564575195,0,0,0.5350799560546875
0.273088403,0,0,1.4245500564575195,0,0,0.611519992351532
0.273422955,0,0,1.4245500564575195,0,0,0.7644000053405762
0.273765675,0,0,1.4460978507995605,0,0,0.6879600286483765
0.274088394,0,0,1.4460978507995605,0,0,0.7644000053405762
0.274421595,0,0,1.4460978507995605,0,0,0.8408399820327759
0.274760073,0,0,1.4460978507995605,0,0,0.7644000053405762
0.275088515,0,0,1.4460978507995605,0,0,0.7644000053405762
0.275425827,0,0,1.4460978507995605,0,0,0.7644000053405762
0.275759769,0,0,1.4460978507995605,0,0,0.6879600286483765
0.276088729,0,0,1.3239935636520386,0,0,0.611519992351532
0.276421781,0,0,1.3239935636520386,0,0,1.070159912109375
0.27676026,0,0,1.3239935636520386,0,0,1.223039984703064
0.277088387,0,0,1.3239935636520386,0,0,0.5350799560546875
0.277422162,0,0,1.3239935636520386,0,0,0.5350799560546875
0.277765585,0,0,1.3239935636520386,0,0,0.611519992351532
0.278088397,0,0,1.3239935636520386,0,0,1.2994799613952637
0.27842169,0,0,1.3239935636520386,0,0,0.611519992351532
0.278760206,0,0,1.4077905416488647,0,0,0.9172800183296204
0.279090833,0,0,1.4077905416488647,0,0,0.305759996175766
0.27942583,0,0,1.4077905416488647,0,0,0.2293200045824051
0.279760123,0,0,1.4077905416488647,0,0,0.8408399820327759
0.280088602,0,0,1.4077905416488647,0,0,1.5288000106811523
0.280426155,0,0,1.4077905416488647,0,0,0.7644000053405762
0.280759911,0,0,1.4077905416488647,0,0,0
0.281088593,0,0,1.3718775510787964,0,0,1.2994799613952637
0.281422146,0,0,1.3718775510787964,0,0,0.2293200045824051
0.281764291,0,0,1.3718775510787964,0,0,0
0.282088529,0,0,1.3718775510787964,0,0,0.0764399990439415
0.282422008,0,0,1.3718775510787964,0,0,0
0.282759042,0,0,1.3718775510787964,0,0,-29.888038635253906
0.283088391,0,0,1.3718775510787964,0,0,2.06387996673584
0.283425425,0,0,1.2617442607879639,0,0,0.9172800183296204
0.283759311,0,0,1.2617442607879639,0,0,0.6879600286483765
0.284088475,0,0,1.2617442607879639,0,0,0.6879600286483765
0.284425694,0,0,1.2617442607879639,0,0,0.7644000053405762
0.284761247,0,0,1.2617442607879639,0,0,0.9172800183296204
0.285088578,0,0,1.2617442607879639,0,0,0.9937199950218201
0.28542226,0,0,1.2617442607879639,0,0,0.9172800183296204
0.285764461,0,0,1.3048399686813354,0,0,0.7644000053405762
0.286088606,0,0,1.3048399686813354,0,0,0.9172800183296204
0.286421844,0,0,1.3048399686813354,0,0,0.9937199950218201
0.286759656,0,0,1.3048399686813354,0,0,0.9172800183296204
0.287088635,0,0,1.3048399686813354,0,0,0.7644000053405762
0.287426039,0,0,1.3048399686813354,0,0,0.6879600286483765
0.287759981,0,0,1.3048399686813354,0,0,0.7644000053405762
0.288088774,0,0,1.2306196689605713,0,0,0.7644000053405762
0.288425568,0,0,1.2306196689605713,0,0,0.8408399820327759
0.288759102,0,0,1.2306196689605713,0,0,0.6879600286483765
0.289088729,0,0,1.2306196689605713,0,0,0.611519992351532
0.289424466,0,0,1.2306196689605713,0,0,0.4586400091648102
0.289763982,0,0,1.2306196689605713,0,0,0.2293200045824051
0.290096313,0,0,1.2306196689605713,0,0,1.375920057296753
0.290425532,0,0,1.235408067703247,0,0,0.7644000053405762
0.290778807,0,0,1.235408067703247,0,0,1.452359914779663
0.291098804,0,0,1.235408067703247,0,0,1.070159912109375
0.291430671,0,0,1.235408067703247,0,0,0.6879600286483765
0.291778076,0,0,1.235408067703247,0,0,1.452359914779663
0.292095481,0,0,1.235408067703247,0,0,0
0.292421663,0,0,1.235408067703247,0,0,0.4586400091648102
0.292783104,0,0,1.2713210582733154,0,0,0.6879600286483765
0.293089102,0,0,1.2713210582733154,0,0,0.0764399990439415
0.293422117,0,0,1.2713210582733154,0,0,1.223039984703064
0.293769151,0,0,1.2713210582733154,0,0,9.631440162658691
0.294088945,0,0,1.2713210582733154,0,0,0.9937199950218201
0.294422201,0,0,1.2713210582733154,0,0,1.375920057296753
0.294764476,0,0,1.2713210582733154,0,0,0.4586400091648102
0.295088492,0,0,1.2713210582733154,0,0,1.1466000080108643
0.295422119,0,0,1.259350061416626,0,0,0.8408399820327759
0.295760931,0,0,1.259350061416626,0,0,1.1466000080108643
0.296088428,0,0,1.259350061416626,0,0,0.9172800183296204
0.296425795,0,0,1.259350061416626,0,0,0.6879600286483765
0.296759385,0,0,1.259350061416626,0,0,0.305759996175766
0.297088382,0,0,1.259350061416626,0,0,0.6879600286483765
0.297423139,0,0,1.259350061416626,0,0,0.611519992351532
0.297758025,0,0,1.4652514457702637,0,0,0.611519992351532
0.298093948,0,0,1.4652514457702637,0,0,1.1466000080108643
0.298421649,0,0,1.4652514457702637,0,0,1.223039984703064
0.298759238,0,0,1.4652514457702637,0,0,0.6879600286483765
0.299092828,0,0,1.4652514457702637,0,0,0.2293200045824051
0.299421603,0,0,1.4652514457702637,0,0,0.611519992351532
0.299764822,0,0,1.4652514457702637,0,0,1.1466000080108643
0.300098819,0,0,1.4700398445129395,0,0,0.4586400091648102
0.30042178,0,0,1.4700398445129395,0,0,0.5350799560546875
0.300755147,0,0,1.4700398445129395,0,0,0.5350799560546875
0.301092941,0,0,1.4700398445129395,0,0,1.070159912109375
0.301421771,0,0,1.4700398445129395,0,0,0.3822000026702881
0.301760027,0,0,1.4700398445129395,0,0,0.8408399820327759
0.302093395,0,0,1.4700398445129395,0,0,0.6879600286483765
0.302422133,0,0,1.400607943534851,0,0,1.375920057296753
0.302759686,0,0,1.400607943534851,0,0,0.7644000053405762
0.303093516,0,0,1.400607943534851,0,0,0.7644000053405762
0.303421735,0,0,1.400607943534851,0,0,0.305759996175766
0.30375901,0,0,1.400607943534851,0,0,0.305759996175766
0.304092563,0,0,1.400607943534851,0,0,0.5350799560546875
0.304421764,0,0,1.400607943534851,0,0,1.223039984703064
0.304758798,0,0,1.4724340438842773,0,0,0.9172800183296204
0.305093054,0,0,1.4724340438842773,0,0,0.305759996175766
0.305421811,0,0,1.4724340438842773,0,0,1.223039984703064
0.305759234,0,0,1.4724340438842773,0,0,0.2293200045824051
0.306093416,0,0,1.4724340438842773,0,0,0.9172800183296204
0.306421691,0,0,1.4724340438842773,0,0,0.0764399990439415
0.306759225,0,0,1.4724340438842773,0,0,0
0.307094167,0,0,1.3479355573654175,0,0,0.152879998087883
0.307421812,0,0,1.3479355573654175,0,0,2.06387996673584
0.307759272,0,0,1.3479355573654175,0,0,0.8408399820327759
0.308093177,0,0,1.3479355573654175,0,0,0.6879600286483765
0.308421952,0,0,1.3479355573654175,0,0,0.5350799560546875
0.308758893,0,0,1.3479355573654175,0,0,0.7644000053405762
0.309092965,0,0,1.3479355573654175,0,0,0.6879600286483765
0.309421758,0,0,1.2042834758758545,0,0,0.6879600286483765
0.309759144,0,0,1.2042834758758545,0,0,0.7644000053405762
0.310094864,0,0,1.2042834758758545,0,0,0.9172800183296204
0.310421916,0,0,1.2042834758758545,0,0,0.9172800183296204
0.310758987,0,0,1.2042834758758545,0,0,0.7644000053405762
0.311092485,0,0,1.2042834758758545,0,0,0.9172800183296204
0.311421889,0,0,1.2042834758758545,0,0,1.070159912109375
0.311759183,0,0,1.2617442607879639,0,0,0.6879600286483765
0.312093069,0,0,1.2617442607879639,0,0,0.8408399820327759
0.312421751,0,0,1.2617442607879639,0,0,1.070159912109375
0.312759063,0,0,1.2617442607879639,0,0,0.9172800183296204
0.313092745,0,0,1.2617442607879639,0,0,0.6879600286483765
0.313421761,0,0,1.2617442607879639,0,0,0.6879600286483765
0.31375898,0,0,1.2617442607879639,0,0,0.305759996175766
0.314099885,0,0,1.2617442607879639,0,0,0.9172800183296204
0.314421826,0,0,1.237802267074585,0,0,0.6879600286483765
0.314758916,0,0,1.237802267074585,0,0,0.5350799560546875
0.315092247,0,0,1.237802267074585,0,0,0.6879600286483765
0.315421744,0,0,1.237802267074585,0,0,1.070159912109375
0.315758871,0,0,1.237802267074585,0,0,1.452359914779663
0.316093627,0,0,1.237802267074585,0,0,0.2293200045824051
0.316422254,0,0,1.237802267074585,0,0,0.2293200045824051
0.316758862,0,0,1.2689268589019775,0,0,0.5350799560546875
0.317092433,0,0,1.2689268589019775,0,0,1.452359914779663
0.317421875,0,0,1.2689268589019775,0,0,0.305759996175766
0.317758965,0,0,1.2689268589019775,0,0,1.375920057296753
0.318092591,0,0,1.2689268589019775,0,0,0.611519992351532
0.318421718,0,0,1.2689268589019775,0,0,1.070159912109375
0.318759049,0,0,1.2689268589019775,0,0,1.375920057296753
0.319092675,0,0,1.259350061416626,0,0,1.223039984703064
0.31942171,0,0,1.259350061416626,0,0,0.3822000026702881
0.319758855,0,0,1.259350061416626,0,0,0.9937199950218201
0.320092259,0,0,1.259350061416626,0,0,0.611519992351532
0.320424034,0,0,1.259350061416626,0,0,0.305759996175766
0.320759291,0,0,1.259350061416626,0,0,0.611519992351532
0.321092714,0,0,1.259350061416626,0,0,0.8408399820327759
0.321422304,0,0,1.3431471586227417,0,0,0.7644000053405762
0.321755023,0,0,1.3431471586227417,0,0,0.6879600286483765
0.32209202,0,0,1.3431471586227417,0,0,1.223039984703064
0.322421739,0,0,1.3431471586227417,0,0,0.6879600286483765
0.322756237,0,0,1.3431471586227417,0,0,0.8408399820327759
0.323089623,0,0,1.3431471586227417,0,0,0.611519992351532
0.323421638,0,0,1.3431471586227417,0,0,1.070159912109375
0.323757932,0,0,1.455674648284912,0,0,0.9172800183296204
0.324091336,0,0,1.455674648284912,0,0,0.6879600286483765
0.324421852,0,0,1.455674648284912,0,0,0.8408399820327759
0.324759701,0,0,1.455674648284912,0,0,0.9172800183296204
0.325093365,0,0,1.455674648284912,0,0,1.070159912109375
0.325421621,0,0,1.455674648284912,0,0,0.6879600286483765
0.325759063,0,0,1.455674648284912,0,0,0.5350799560546875
0.326093264,0,0,1.4532804489135742,0,0,0.6879600286483765
0.32642189,0,0,1.4532804489135742,0,0,1.2994799613952637
0.326758943,0,0,1.4532804489135742,0,0,1.223039984703064
0.327093218,0,0,1.4532804489135742,0,0,0.305759996175766
0.327421845,0,0,1.4532804489135742,0,0,0.6879600286483765
0.327759046,0,0,1.4532804489135742,0,0,0.5350799560546875
0.328093098,0,0,1.4532804489135742,0,0,1.223039984703064
0.32842167,0,0,1.3838485479354858,0,0,0.611519992351532
0.328758944,0,0,1.3838485479354858,0,0,1.223039984703064
0.329094997,0,0,1.3838485479354858,0,0,0.2293200045824051
0.329421624,0,0,1.3838485479354858,0,0,1.223039984703064
0.329754806,0,0,1.3838485479354858,0,0,1.1466000080108643
0.330092414,0,0,1.3838485479354858,0,0,2.06387996673584
0.330421856,0,0,1.3838485479354858,0,0,0.9172800183296204
0.330758501,0,0,1.4317326545715332,0,0,0.305759996175766
0.331092461,0,0,1.4317326545715332,0,0,0.2293200045824051
0.331421736,0,0,1.4317326545715332,0,0,1.1466000080108643
0.331758845,0,0,1.4317326545715332,0,0,0.6879600286483765
0.332092416,0,0,1.4317326545715332,0,0,0.6879600286483765
0.332421654,0,0,1.4317326545715332,0,0,0.6879600286483765
0.332758781,0,0,1.4317326545715332,0,0,0.9172800183296204
0.333092204,0,0,1.4317326545715332,0,0,0.6879600286483765
0.333421756,0,0,1.3000515699386597,0,0,0.8408399820327759
0.333759235,0,0,1.3000515699386597,0,0,0.8408399820327759
0.334092547,0,0,1.3000515699386597,0,0,0.611519992351532
0.334421711,0,0,1.3000515699386597,0,0,0.7644000053405762
0.334758763,0,0,1.3000515699386597,0,0,0.8408399820327759
0.335092335,0,0,1.3000515699386597,0,0,0.8408399820327759
0.335428647,0,0,1.3000515699386597,0,0,0.6879600286483765
0.335758792,0,0,1.1851298809051514,0,0,0.7644000053405762
0.336092122,0,0,1.1851298809051514,0,0,0.6879600286483765
0.336421805,0,0,1.1851298809051514,0,0,0.5350799560546875
0.336758802,0,0,1.1851298809051514,0,0,1.1466000080108643
0.337092447,0,0,1.1851298809051514,0,0,0.7644000053405762
0.337421648,0,0,1.1851298809051514,0,0,0.8408399820327759
0.337758978,0,0,1.1851298809051514,0,0,0.4586400091648102
0.338099531,0,0,1.316810965538025,0,0,0.5350799560546875
0.338422121,0,0,1.316810965538025,0,0,0.7644000053405762
0.338754859,0,0,1.316810965538025,0,0,0.305759996175766
0.339093041,0,0,1.316810965538025,0,0,0.3822000026702881
0.339421779,0,0,1.316810965538025,0,0,0.9172800183296204
0.339758795,0,0,1.316810965538025,0,0,0.6879600286483765
0.34009231,0,0,1.316810965538025,0,0,0
0.340421733,0,0,1.2066776752471924,0,0,0.8408399820327759
0.340758971,0,0,1.2066776752471924,0,0,0.4586400091648102
0.341095043,0,0,1.2066776752471924,0,0,1.758120059967041
0.341425355,0,0,1.2066776752471924,0,0,0.9937199950218201
0.341854758,0,0,1.2066776752471924,0,0,-29.582279205322266
0.342092164,0,0,1.2066776752471924,0,0,9.325679779052734
0.342421939,0,0,1.2066776752471924,0,0,0.9937199950218201
0.342761769,0,0,1.2761094570159912,0,0,0.6879600286483765
0.343088618,0,0,1.2761094570159912,0,0,1.375920057296753
0.343425782,0,0,1.2761094570159912,0,0,0.152879998087883
0.343759372,0,0,1.2761094570159912,0,0,2.2932000160217285
0.344088184,0,0,1.2761094570159912,0,0,0.9172800183296204
0.344425347,0,0,1.2761094570159912,0,0,0.6879600286483765
0.344759048,0,0,1.2761094570159912,0,0,0.8408399820327759
0.345088212,0,0,1.2761094570159912,0,0,0.6879600286483765
0.345422191,0,0,1.2761094570159912,0,0,0.7644000053405762
0.345765466,0,0,1.2761094570159912,0,0,0.8408399820327759
0.346088055,0,0,1.2761094570159912,0,0,0.7644000053405762
0.346421386,0,0,1.2761094570159912,0,0,0.8408399820327759
0.346759216,0,0,1.2761094570159912,0,0,0.6879600286483765
0.347088325,0,0,1.2761094570159912,0,0,0.5350799560546875
0.347425655,0,0,1.2761094570159912,0,0,0.8408399820327759
0.347758634,0,0,1.3503297567367554,0,0,0.7644000053405762
0.348088001,0,0,1.3503297567367554,0,0,0.8408399820327759
0.348425313,0,0,1.3503297567367554,0,0,0.5350799560546875
0.348758644,0,0,1.3503297567367554,0,0,0.5350799560546875
0.349088159,0,0,1.3503297567367554,0,0,0.6879600286483765
0.349421971,0,0,1.3503297567367554,0,0,0.9937199950218201
0.349764079,0,0,1.3503297567367554,0,0,0.8408399820327759
0.350088114,0,0,1.4269442558288574,0,0,0.9937199950218201
0.350421426,0,0,1.4269442558288574,0,0,0.7644000053405762
0.350759386,0,0,1.4269442558288574,0,0,0.152879998087883
0.351088161,0,0,1.4269442558288574,0,0,0.9937199950218201
0.351429361,0,0,1.4269442558288574,0,0,0.6879600286483765
0.351762544,0,0,1.4269442558288574,0,0,0.4586400091648102
0.352088208,0,0,1.4269442558288574,0,0,0.3822000026702881
0.352421594,0,0,1.3646949529647827,0,0,0.3822000026702881
0.35275785,0,0,1.3646949529647827,0,0,0.5350799560546875
0.353088107,0,0,1.3646949529647827,0,0,1.1466000080108643
0.353423196,0,0,1.3646949529647827,0,0,0.9172800183296204
0.353756193,0,0,1.3646949529647827,0,0,1.5288000106811523
0.354088079,0,0,1.3646949529647827,0,0,1.1466000080108643
0.354424947,0,0,1.3646949529647827,0,0,0.611519992351532
0.35475837,0,0,1.4245500564575195,0,0,1.6816799640655518
0.355088126,0,0,1.4245500564575195,0,0,0.2293200045824051
0.355425383,0,0,1.4245500564575195,0,0,0
0.355760435,0,0,1.4245500564575195,0,0,0.305759996175766
0.356088488,0,0,1.4245500564575195,0,0,1.5288000106811523
0.356425782,0,0,1.4245500564575195,0,0,0.611519992351532
0.356759205,0,0,1.4245500564575195,0,0,0.7644000053405762
0.357088072,0,0,1.580173134803772,0,0,0.7644000053405762
0.357422162,0,0,1.580173134803772,0,0,0.8408399820327759
0.357763955,0,0,1.580173134803772,0,0,0.7644000053405762
0.358088193,0,0,1.580173134803772,0,0,0.7644000053405762
0.358421561,0,0,1.580173134803772,0,0,0.9937199950218201
0.358758188,0,0,1.580173134803772,0,0,0.611519992351532
0.359088203,0,0,1.580173134803772,0,0,0.4586400091648102
0.359425849,0,0,1.3048399686813354,0,0,0.6879600286483765
0.359759049,0,0,1.3048399686813354,0,0,0.9937199950218201
0.360088176,0,0,1.3048399686813354,0,0,0.6879600286483765
0.360426099,0,0,1.3048399686813354,0,0,0.9172800183296204
0.36075967,0,0,1.3048399686813354,0,0,1.1466000080108643
0.361088297,0,0,1.3048399686813354,0,0,0.6879600286483765
0.361422035,0,0,1.3048399686813354,0,0,0.9172800183296204
0.361766217,0,0,1.2713210582733154,0,0,0.8408399820327759
0.362091733,0,0,1.2713210582733154,0,0,0.8408399820327759
0.362421749,0,0,1.2713210582733154,0,0,0.611519992351532
0.362760764,0,0,1.2713210582733154,0,0,1.1466000080108643
0.363088039,0,0,1.2713210582733154,0,0,0.305759996175766
0.363425814,0,0,1.2713210582733154,0,0,0.305759996175766
0.363759626,0,0,1.2713210582733154,0,0,0.3822000026702881
0.364088123,0,0,1.213860273361206,0,0,0.6879600286483765
0.364425232,0,0,1.213860273361206,0,0,1.223039984703064
0.364760988,0,0,1.213860273361206,0,0,0.3822000026702881
0.365088282,0,0,1.213860273361206,0,0,0.5350799560546875
0.365422316,0,0,1.213860273361206,0,0,0.3822000026702881
0.365765961,0,0,1.213860273361206,0,0,0.7644000053405762
0.366087847,0,0,1.213860273361206,0,0,0.152879998087883
0.366421455,0,0,1.1635819673538208,0,0,1.375920057296753
0.366759601,0,0,1.1635819673538208,0,0,0.3822000026702881
0.367088172,0,0,1.1635819673538208,0,0,1.223039984703064
0.367425243,0,0,1.1635819673538208,0,0,1.375920057296753
0.367758759,0,0,1.1635819673538208,0,0,1.2994799613952637
0.368088145,0,0,1.1635819673538208,0,0,0.7644000053405762
0.368425327,0,0,1.1635819673538208,0,0,0.7644000053405762
0.368758509,0,0,1.2856862545013428,0,0,0.6879600286483765
0.369088303,0,0,1.2856862545013428,0,0,0.9937199950218201
0.369421004,0,0,1.2856862545013428,0,0,0.9172800183296204
0.369762686,0,0,1.2856862545013428,0,0,0.9172800183296204
0.370086979,0,0,1.2856862545013428,0,0,0.8408399820327759
0.370424328,0,0,1.2856862545013428,0,0,0.6879600286483765
0.370755214,0,0,1.2856862545013428,0,0,0.6879600286483765
0.371086952,0,0,1.3910311460494995,0,0,0.5350799560546875
0.371423912,0,0,1.3910311460494995,0,0,0.5350799560546875
0.371755002,0,0,1.3910311460494995,0,0,0.611519992351532
0.37209011,0,0,1.3910311460494995,0,0,0.8408399820327759
0.372424626,0,0,1.3910311460494995,0,0,0.9172800183296204
0.372755901,0,0,1.3910311460494995,0,0,0.7644000053405762
0.373086954,0,0,1.482010841369629,0,0,0.611519992351532
0.373422988,0,0,1.482010841369629,0,0,0.8408399820327759
0.373758504,0,0,1.482010841369629,0,0,1.070159912109375
0.374088686,0,0,1.482010841369629,0,0,0
0.374425276,0,0,1.482010841369629,0,0,0.3822000026702881
0.374758791,0,0,1.482010841369629,0,0,0.611519992351532
0.375088103,0,0,1.482010841369629,0,0,0.9937199950218201
0.37542536,0,0,1.482010841369629,0,0,1.2994799613952637
0.375758838,0,0,1.4508862495422363,0,0,0.7644000053405762
0.376088132,0,0,1.4508862495422363,0,0,0.611519992351532
0.376425351,0,0,1.4508862495422363,0,0,0.9172800183296204
0.376758793,0,0,1.4508862495422363,0,0,1.375920057296753
0.377088179,0,0,1.4508862495422363,0,0,0.3822000026702881
0.377421732,0,0,1.4508862495422363,0,0,1.223039984703064
0.377759451,0,0,1.3670891523361206,0,0,0.4586400091648102
0.378088411,0,0,1.3670891523361206,0,0,1.8345600366592407
0.378425723,0,0,1.3670891523361206,0,0,1.5288000106811523
0.378759016,0,0,1.3670891523361206,0,0,1.605239987373352
0.379088162,0,0,1.3670891523361206,0,0,0.6879600286483765
0.379425344,0,0,1.3670891523361206,0,0,-29.582279205322266
0.379758378,0,0,1.3670891523361206,0,0,9.325679779052734
0.380088209,0,0,1.4077905416488647,0,0,1.605239987373352
0.380425539,0,0,1.4077905416488647,0,0,0.9172800183296204
0.380758796,0,0,1.4077905416488647,0,0,0.6879600286483765
0.381088015,0,0,1.4077905416488647,0,0,0.611519992351532
0.381435512,0,0,1.4077905416488647,0,0,1.070159912109375
0.381767213,0,0,1.4077905416488647,0,0,0.8408399820327759
0.382088173,0,0,1.4077905416488647,0,0,0.6879600286483765
0.382424022,0,0,1.4077905416488647,0,0,0.611519992351532
0.382762223,0,0,1.4077905416488647,0,0,0.8408399820327759
0.383088294,0,0,1.4077905416488647,0,0,0.611519992351532
0.383421421,0,0,1.4077905416488647,0,0,0.6879600286483765
0.383758122,0,0,1.4077905416488647,0,0,0.9937199950218201
0.384088323,0,0,1.4077905416488647,0,0,0.9172800183296204
0.384422505,0,0,1.4077905416488647,0,0,0.6879600286483765
0.384756132,0,0,1.235408067703247,0,0,0.611519992351532
0.385088166,0,0,1.235408067703247,0,0,0.5350799560546875
0.385422311,0,0,1.235408067703247,0,0,0.9937199950218201
0.385760864,0,0,1.235408067703247,0,0,1.070159912109375
0.386088342,0,0,1.235408067703247,0,0,0.7644000053405762
0.386425969,0,0,1.235408067703247,0,0,0.8408399820327759
0.386761522,0,0,1.235408067703247,0,0,0.611519992351532
0.387088389,0,0,1.2689268589019775,0,0,0.7644000053405762
0.387425942,0,0,1.2689268589019775,0,0,0.5350799560546875
0.387759754,0,0,1.2689268589019775,0,0,0.9937199950218201
0.388088214,0,0,1.2689268589019775,0,0,0.5350799560546875
0.388425508,0,0,1.2689268589019775,0,0,0.9937199950218201
0.388759468,0,0,1.2689268589019775,0,0,0.152879998087883
0.389088354,0,0,1.2689268589019775,0,0,1.070159912109375
0.389422166,0,0,1.2713210582733154,0,0,0.611519992351532
0.389764144,0,0,1.2713210582733154,0,0,0.2293200045824051
0.390088382,0,0,1.2713210582733154,0,0,0
0.390421583,0,0,1.2713210582733154,0,0,0
0.390758228,0,0,1.2713210582733154,0,0,0.7644000053405762
0.391088411,0,0,1.2713210582733154,0,0,1.5288000106811523
0.391425649,0,0,1.2713210582733154,0,0,0.9172800183296204
0.391759201,0,0,1.1563993692398071,0,0,9.325679779052734
0.392088254,0,0,1.1563993692398071,0,0,1.6816799640655518
0.392425473,0,0,1.1563993692398071,0,0,0.152879998087883
0.392761378,0,0,1.1563993692398071,0,0,0.7644000053405762
0.393088431,0,0,1.1563993692398071,0,0,0.5350799560546875
0.393422372,0,0,1.1563993692398071,0,0,0.5350799560546875
0.393764499,0,0,1.1563993692398071,0,0,0.9172800183296204
0.394088218,0,0,1.2689268589019775,0,0,1.070159912109375
0.394421641,0,0,1.2689268589019775,0,0,0.8408399820327759
0.39475962,0,0,1.2689268589019775,0,0,1.1466000080108643
0.395088321,0,0,1.2689268589019775,0,0,0.8408399820327759
0.395425577,0,0,1.2689268589019775,0,0,0.4586400091648102
0.395760167,0,0,1.2689268589019775,0,0,0.4586400091648102
0.396088924,0,0,1.2689268589019775,0,0,0.6879600286483765
0.396425661,0,0,1.2976573705673218,0,0,0.9172800183296204
0.396759307,0,0,1.2976573705673218,0,0,0.305759996175766
0.397088304,0,0,1.2976573705673218,0,0,0.9937199950218201
0.39742232,0,0,1.2976573705673218,0,0,0.8408399820327759
0.397764354,0,0,1.2976573705673218,0,0,0.9937199950218201
0.398088351,0,0,1.2976573705673218,0,0,0.6879600286483765
0.398421589,0,0,1.2976573705673218,0,0,0.7644000053405762
0.398758623,0,0,1.4508862495422363,0,0,0.8408399820327759
0.399088157,0,0,1.4508862495422363,0,0,0.9937199950218201
0.399425376,0,0,1.4508862495422363,0,0,0.9937199950218201
0.399758966,0,0,1.4508862495422363,0,0,0.611519992351532
0.400088797,0,0,1.4508862495422363,0,0,0.9937199950218201
0.400421442,0,0,1.4508862495422363,0,0,0.8408399820327759
0.400759439,0,0,1.4508862495422363,0,0,1.452359914779663
0.401088251,0,0,1.4939818382263184,0,0,0.0764399990439415
0.401420933,0,0,1.4939818382263184,0,0,1.223039984703064
0.401761042,0,0,1.4939818382263184,0,0,1.5288000106811523
0.402086909,0,0,1.4939818382263184,0,0,1.223039984703064
0.402424203,0,0,1.4939818382263184,0,0,0.5350799560546875
0.402754978,0,0,1.4939818382263184,0,0,1.375920057296753
0.403088993,0,0,1.4939818382263184,0,0,0.5350799560546875
0.403424935,0,0,1.3694833517074585,0,0,1.9874399900436401
0.403756376,0,0,1.3694833517074585,0,0,0.7644000053405762
0.404086818,0,0,1.5083470344543457,0,0,1.9874399900436401
0.404420593,0,0,1.5083470344543457,0,0,1.1466000080108643
0.404754812,0,0,1.5083470344543457,0,0,1.452359914779663
0.405087032,0,0,1.5083470344543457,0,0,0.4586400091648102
0.406718647,0,0,1.4101848602294922,0,0,0.4586400091648102
0.406742462,0,0,1.4101848602294922,0,0,0.4586400091648102
0.406765258,0,0,1.4101848602294922,0,0,0.4586400091648102
0.406788221,0,0,1.4101848602294922,0,0,0.4586400091648102
0.406815517,0,0,1.4101848602294922,0,0,0.5350799560546875
0.4070882,0,0,1.4101848602294922,0,0,0.9172800183296204
0.40743103,0,0,1.4101848602294922,0,0,0.9172800183296204
0.407754898,0,0,1.3407529592514038,0,0,0.9172800183296204
0.40808771,0,0,1.3407529592514038,0,0,0.9172800183296204
0.408425929,0,0,1.3407529592514038,0,0,0.9937199950218201
0.408754685,0,0,1.3407529592514038,0,0,0.9172800183296204
0.409092034,0,0,1.3407529592514038,0,0,0.611519992351532
0.409426624,0,0,1.3407529592514038,0,0,1.070159912109375
0.409754584,0,0,1.3407529592514038,0,0,0.9937199950218201
0.410091748,0,0,1.3239935636520386,0,0,0.9172800183296204
0.410426967,0,0,1.3239935636520386,0,0,0.5350799560546875
0.410754687,0,0,1.3239935636520386,0,0,0.8408399820327759
0.411091962,0,0,1.3239935636520386,0,0,0.7644000053405762
0.411425403,0,0,1.3239935636520386,0,0,0.9937199950218201
0.411754567,0,0,1.3239935636520386,0,0,0.0764399990439415
0.412091824,0,0,1.3239935636520386,0,0,0.4586400091648102
0.412425691,0,0,1.2713210582733154,0,0,0.611519992351532
0.412754466,0,0,1.2713210582733154,0,0,1.1466000080108643
0.413091834,0,0,1.2713210582733154,0,0,1.2994799613952637
0.413428979,0,0,1.2713210582733154,0,0,0.305759996175766
0.41375468,0,0,1.2713210582733154,0,0,0.3822000026702881
0.414091843,0,0,1.2713210582733154,0,0,0.6879600286483765
0.414425267,0,0,1.3239935636520386,0,0,1.223039984703064
0.414754782,0,0,1.3239935636520386,0,0,9.478560447692871
0.415092298,0,0,1.3239935636520386,0,0,0.611519992351532
0.415425665,0,0,1.3239935636520386,0,0,0.4586400091648102
0.415754422,0,0,1.3239935636520386,0,0,0.8408399820327759
0.416092086,0,0,1.3239935636520386,0,0,1.8345600366592407
0.416425564,0,0,1.278503656387329,0,0,1.8345600366592407
0.416754784,0,0,1.278503656387329,0,0,0.5350799560546875
0.417092059,0,0,1.278503656387329,0,0,0.6879600286483765
0.417425982,0,0,1.278503656387329,0,0,0.8408399820327759
0.417754608,0,0,1.278503656387329,0,0,0.611519992351532
0.418092346,0,0,1.278503656387329,0,0,0.9172800183296204
0.418426029,0,0,1.3646949529647827,0,0,0.6879600286483765
0.4187546,0,0,1.3646949529647827,0,0,0.9937199950218201
0.419092282,0,0,1.3646949529647827,0,0,0.6879600286483765
0.419426187,0,0,1.3646949529647827,0,0,1.070159912109375
0.419754813,0,0,1.3646949529647827,0,0,0.9937199950218201
0.420091774,0,0,1.3646949529647827,0,0,0.7644000053405762
0.420425363,0,0,1.4724340438842773,0,0,0.611519992351532
0.420754805,0,0,1.4724340438842773,0,0,0.7644000053405762
0.421091672,0,0,1.4724340438842773,0,0,1.070159912109375
0.421429855,0,0,1.4724340438842773,0,0,0.9172800183296204
0.42175513,0,0,1.4724340438842773,0,0,1.070159912109375
0.422092553,0,0,1.4724340438842773,0,0,0.611519992351532
0.422426568,0,0,1.4724340438842773,0,0,0.5350799560546875
0.422754529,0,0,1.5298948287963867,0,0,0.5350799560546875
0.423091915,0,0,1.5298948287963867,0,0,0.6879600286483765
0.423428375,0,0,1.5298948287963867,0,0,0.8408399820327759
0.42375765,0,0,1.5298948287963867,0,0,0.7644000053405762
0.42408811,0,0,1.5298948287963867,0,0,1.1466000080108643
0.424425125,0,0,1.5298948287963867,0,0,1.375920057296753
0.424754604,0,0,1.436521053314209,0,0,0.3822000026702881
0.425089194,0,0,1.436521053314209,0,0,0.8408399820327759
0.425424024,0,0,1.436521053314209,0,0,0.4586400091648102
0.425754595,0,0,1.436521053314209,0,0,0.4586400091648102
0.426091315,0,0,1.436521053314209,0,0,0.9937199950218201
0.426424479,0,0,1.436521053314209,0,0,0.0764399990439415
0.426754587,0,0,1.436521053314209,0,0,1.452359914779663
0.427091547,0,0,1.4867992401123047,0,0,1.605239987373352
0.427425026,0,0,1.4867992401123047,0,0,1.6816799640655518
0.427754523,0,0,1.4867992401123047,0,0,0.8408399820327759
0.42809215,0,0,1.4867992401123047,0,0,9.402119636535645
0.428425461,0,0,1.4867992401123047,0,0,0.4586400091648102
0.428754588,0,0,1.4867992401123047,0,0,1.758120059967041
0.429091734,0,0,1.4867992401123047,0,0,0.8408399820327759
0.429425953,0,0,1.314416766166687,0,0,0.6879600286483765
0.429754765,0,0,1.314416766166687,0,0,1.1466000080108643
0.430092058,0,0,1.314416766166687,0,0,0.9937199950218201
0.430425648,0,0,1.314416766166687,0,0,0.9937199950218201
0.430754645,0,0,1.314416766166687,0,0,0.7644000053405762
0.431092068,0,0,1.314416766166687,0,0,0.5350799560546875
0.43142551,0,0,1.314416766166687,0,0,0.6879600286483765
0.431755026,0,0,1.3048399686813354,0,0,0.5350799560546875
0.432091726,0,0,1.3048399686813354,0,0,0.9172800183296204
0.432426705,0,0,1.3048399686813354,0,0,0.7644000053405762
0.432754776,0,0,1.3048399686813354,0,0,0.9937199950218201
0.433092144,0,0,1.3048399686813354,0,0,0.6879600286483765
0.433426419,0,0,1.3048399686813354,0,0,1.070159912109375
0.433754768,0,0,1.3048399686813354,0,0,0.7644000053405762
0.434094246,0,0,1.2952631711959839,0,0,0.9172800183296204
0.434427836,0,0,1.2952631711959839,0,0,0.9172800183296204
0.434754815,0,0,1.2952631711959839,0,0,0.6879600286483765
0.43508783,0,0,1.2952631711959839,0,0,1.1466000080108643
0.435424494,0,0,1.2952631711959839,0,0,0.9172800183296204
0.435754732,0,0,1.2952631711959839,0,0,1.223039984703064
0.436089581,0,0,1.2952631711959839,0,0,0.7644000053405762
0.436422912,0,0,1.2401964664459229,0,0,0.5350799560546875
0.436754835,0,0,1.2401964664459229,0,0,0.2293200045824051
0.437091795,0,0,1.2401964664459229,0,0,0.7644000053405762
0.437426588,0,0,1.2401964664459229,0,0,0.7644000053405762
0.437754585,0,0,1.2401964664459229,0,0,1.070159912109375
0.438092286,0,0,1.2401964664459229,0,0,0.9172800183296204
0.438438283,0,0,1.2401964664459229,0,0,1.2994799613952637
0.438755021,0,0,1.3287819623947144,0,0,0.305759996175766
0.439092463,0,0,1.3287819623947144,0,0,9.402119636535645
0.439426219,0,0,1.3287819623947144,0,0,0.2293200045824051
0.439754476,0,0,1.3287819623947144,0,0,1.605239987373352
0.440092454,0,0,1.3287819623947144,0,0,0.8408399820327759
0.440426303,0,0,1.3287819623947144,0,0,8.867039680480957
0.440754689,0,0,1.3287819623947144,0,0,1.6816799640655518
0.441092001,0,0,1.3646949529647827,0,0,0.7644000053405762
0.441428387,0,0,1.3646949529647827,0,0,0.8408399820327759
0.441754884,0,0,1.3646949529647827,0,0,0.611519992351532
0.442092011,0,0,1.3646949529647827,0,0,0.611519992351532
0.442426027,0,0,1.3646949529647827,0,0,0.6879600286483765
0.442754765,0,0,1.3646949529647827,0,0,0.7644000053405762
0.443091854,0,0,1.3646949529647827,0,0,1.223039984703064
0.443425852,0,0,1.434126853942871,0,0,0.9172800183296204
0.443754738,0,0,1.434126853942871,0,0,0.5350799560546875
0.444091698,0,0,1.434126853942871,0,0,0.3822000026702881
0.44442838,0,0,1.434126853942871,0,0,0.8408399820327759
0.44475484,0,0,1.434126853942871,0,0,1.070159912109375
0.445092078,0,0,1.434126853942871,0,0,0.9172800183296204
0.445426649,0,0,1.434126853942871,0,0,0.5350799560546875
0.445754739,0,0,1.5179238319396973,0,0,0.8408399820327759
0.446087755,0,0,1.5179238319396973,0,0,1.070159912109375
0.446425418,0,0,1.5179238319396973,0,0,1.223039984703064
0.446754601,0,0,1.5179238319396973,0,0,0.4586400091648102
0.44708895,0,0,1.5179238319396973,0,0,0.3822000026702881
0.447422262,0,0,1.5179238319396973,0,0,0.5350799560546875
0.447754703,0,0,1.5179238319396973,0,0,0.9172800183296204
0.448091701,0,0,1.3958195447921753,0,0,0.7644000053405762
0.448425124,0,0,1.3958195447921753,0,0,0.6879600286483765
0.448754713,0,0,1.3958195447921753,0,0,0.6879600286483765
0.44909184,0,0,1.3958195447921753,0,0,0.6879600286483765
0.449426671,0,0,1.3958195447921753,0,0,0.9172800183296204
0.449754557,0,0,1.3958195447921753,0,0,0
0.450092183,0,0,1.3958195447921753,0,0,0.611519992351532
0.450425495,0,0,1.400607943534851,0,0,0.9172800183296204
0.450754659,0,0,1.400607943534851,0,0,1.070159912109375
0.451091786,0,0,1.400607943534851,0,0,1.5288000106811523
0.451425283,0,0,1.400607943534851,0,0,1.2994799613952637
0.451754725,0,0,1.400607943534851,0,0,0.4586400091648102
0.452091777,0,0,1.400607943534851,0,0,0.5350799560546875
0.452425478,0,0,1.400607943534851,0,0,1.2994799613952637
0.452754531,0,0,1.5179238319396973,0,0,9.325679779052734
0.453091787,0,0,1.5179238319396973,0,0,1.375920057296753
0.453426544,0,0,1.5179238319396973,0,0,0.6879600286483765
0.453755115,0,0,1.5179238319396973,0,0,0.9172800183296204
0.454092038,0,0,1.5179238319396973,0,0,0.9172800183296204
0.454427257,0,0,1.5179238319396973,0,0,0.6879600286483765
0.454756884,0,0,1.5179238319396973,0,0,0.7644000053405762
0.45509227,0,0,1.3311761617660522,0,0,0.8408399820327759
0.455425693,0,0,1.3311761617660522,0,0,0.9172800183296204
0.45575445,0,0,1.3311761617660522,0,0,0.8408399820327759
0.456091854,0,0,1.3311761617660522,0,0,0.6879600286483765
0.456425537,0,0,1.3311761617660522,0,0,0.4586400091648102
0.456754886,0,0,1.3311761617660522,0,0,0.8408399820327759
0.457091901,0,0,1.3311761617660522,0,0,0.611519992351532
0.457426509,0,0,1.2449848651885986,0,0,0.6879600286483765
0.457754544,0,0,1.2449848651885986,0,0,0.5350799560546875
0.458091948,0,0,1.2449848651885986,0,0,0.611519992351532
0.458425445,0,0,1.2449848651885986,0,0,0.611519992351532
0.458754591,0,0,1.2449848651885986,0,0,0.8408399820327759
0.459091995,0,0,1.2449848651885986,0,0,0.8408399820327759
0.459425752,0,0,1.2449848651885986,0,0,0.7644000053405762
0.459754564,0,0,1.3479355573654175,0,0,0.8408399820327759
0.460092264,0,0,1.3479355573654175,0,0,0.611519992351532
0.460425706,0,0,1.3479355573654175,0,0,1.1466000080108643
0.460754833,0,0,1.3479355573654175,0,0,0.152879998087883
0.461092385,0,0,1.3479355573654175,0,0,0.9172800183296204
0.461426716,0,0,1.3479355573654175,0,0,0.4586400091648102
0.461754584,0,0,1.3479355573654175,0,0,1.2994799613952637
0.462092007,0,0,1.2186486721038818,0,0,1.1466000080108643
0.462425633,0,0,1.2186486721038818,0,0,1.2994799613952637
0.462754649,0,0,1.2186486721038818,0,0,0.7644000053405762
0.463091794,0,0,1.2186486721038818,0,0,0.2293200045824051
0.463433032,0,0,1.2186486721038818,0,0,0.0764399990439415
0.463754659,0,0,1.2186486721038818,0,0,1.452359914779663
0.464087952,0,0,1.2186486721038818,0,0,1.452359914779663
0.464426116,0,0,1.357512354850769,0,0,-29.582279205322266
0.464754558,0,0,1.357512354850769,0,0,1.6816799640655518
0.465094481,0,0,1.357512354850769,0,0,1.9109998941421509
0.465429089,0,0,1.357512354850769,0,0,1.070159912109375
0.465754475,0,0,1.357512354850769,0,0,0.9172800183296204
0.46608775,0,0,1.357512354850769,0,0,0.9172800183296204
0.466424932,0,0,1.357512354850769,0,0,0.8408399820327759
0.466754633,0,0,1.357512354850769,0,0,0.7644000053405762
0.467089871,0,0,1.357512354850769,0,0,0.8408399820327759
0.467423868,0,0,1.357512354850769,0,0,0.7644000053405762
0.467754884,0,0,1.357512354850769,0,0,0.9937199950218201
0.46809177,0,0,1.357512354850769,0,0,0.6879600286483765
0.468425304,0,0,1.357512354850769,0,0,0.8408399820327759
0.468754579,0,0,1.357512354850769,0,0,0.5350799560546875
0.469091521,0,0,1.4532804489135742,0,0,0.3822000026702881
0.469425814,0,0,1.4532804489135742,0,0,0.611519992351532
0.46975533,0,0,1.4532804489135742,0,0,0.8408399820327759
0.470091957,0,0,1.4532804489135742,0,0,1.070159912109375
0.470425565,0,0,1.4532804489135742,0,0,1.223039984703064
0.470754692,0,0,1.4532804489135742,0,0,0.4586400091648102
0.471092115,0,0,1.4532804489135742,0,0,0.3822000026702881
0.471425853,0,0,1.5610195398330688,0,0,0.8408399820327759
0.47175472,0,0,1.5610195398330688,0,0,0.5350799560546875
0.472091939,0,0,1.5610195398330688,0,0,0.611519992351532
0.472427011,0,0,1.5610195398330688,0,0,0.6879600286483765
0.472754841,0,0,1.5610195398330688,0,0,1.375920057296753
0.473091931,0,0,1.5610195398330688,0,0,1.070159912109375
0.473426317,0,0,1.5610195398330688,0,0,1.2994799613952637
0.473754777,0,0,1.4077905416488647,0,0,0.6879600286483765
0.474092052,0,0,1.4077905416488647,0,0,0.152879998087883
0.47442566,0,0,1.4077905416488647,0,0,0.305759996175766
0.474755139,0,0,1.4077905416488647,0,0,0.152879998087883
0.475091766,0,0,1.4077905416488647,0,0,0.9937199950218201
0.475427392,0,0,1.4077905416488647,0,0,0.4586400091648102
0.475754741,0,0,1.4077905416488647,0,0,1.6816799640655518
0.47609185,0,0,1.359906554222107,0,0,0.152879998087883
0.476425106,0,0,1.359906554222107,0,0,1.758120059967041
0.476754659,0,0,1.359906554222107,0,0,0.0764399990439415
0.477092193,0,0,1.359906554222107,0,0,-29.582279205322266
0.477426783,0,0,1.359906554222107,0,0,0.305759996175766
0.477754502,0,0,1.359906554222107,0,0,1.6816799640655518
0.478091925,0,0,1.359906554222107,0,0,0.611519992351532
0.478425385,0,0,1.400607943534851,0,0,0.8408399820327759
0.47875466,0,0,1.400607943534851,0,0,0.7644000053405762
0.479091917,0,0,1.400607943534851,0,0,0.6879600286483765
0.479425525,0,0,1.400607943534851,0,0,0.6879600286483765
0.479754726,0,0,1.400607943534851,0,0,0.4586400091648102
0.480092001,0,0,1.400607943534851,0,0,0.6879600286483765
0.480425553,0,0,1.400607943534851,0,0,1.070159912109375
0.480754606,0,0,1.2737152576446533,0,0,0.9937199950218201
0.481092807,0,0,1.2737152576446533,0,0,1.070159912109375
0.481426971,0,0,1.2737152576446533,0,0,0.5350799560546875
0.481755079,0,0,1.2737152576446533,0,0,0.611519992351532
0.482088391,0,0,1.2737152576446533,0,0,0.8408399820327759
0.482425092,0,0,1.2737152576446533,0,0,0.6879600286483765
0.482754756,0,0,1.2737152576446533,0,0,0.9172800183296204
0.48309016,0,0,1.3263877630233765,0,0,0.5350799560546875
0.483423787,0,0,1.3263877630233765,0,0,0.9172800183296204
0.483754654,0,0,1.3263877630233765,0,0,1.1466000080108643
0.484091763,0,0,1.3263877630233765,0,0,0.8408399820327759
0.484425815,0,0,1.3263877630233765,0,0,1.452359914779663
0.48476109,0,0,1.3263877630233765,0,0,0.5350799560546875
0.485091995,0,0,1.3263877630233765,0,0,0.4586400091648102
0.485428566,0,0,1.3000515699386597,0,0,1.5288000106811523
0.485756915,0,0,1.3000515699386597,0,0,0.9172800183296204
0.48609232,0,0,1.3000515699386597,0,0,1.452359914779663
0.486426095,0,0,1.3000515699386597,0,0,0.6879600286483765
0.486754777,0,0,1.3000515699386597,0,0,0.3822000026702881
0.487091755,0,0,1.3000515699386597,0,0,0.3822000026702881
0.487425642,0,0,1.3000515699386597,0,0,1.452359914779663
0.487754861,0,0,1.3096283674240112,0,0,0.152879998087883
0.488091802,0,0,1.3096283674240112,0,0,1.223039984703064
0.488425448,0,0,1.3096283674240112,0,0,0.611519992351532
0.488754538,0,0,1.3096283674240112,0,0,1.8345600366592407
0.489091831,0,0,1.3096283674240112,0,0,1.452359914779663
0.48942631,0,0,1.3096283674240112,0,0,1.452359914779663
0.489754622,0,0,1.3096283674240112,0,0,0.7644000053405762
0.490092026,0,0,1.3527239561080933,0,0,0.5350799560546875
0.490425208,0,0,1.3527239561080933,0,0,0.611519992351532
0.490754706,0,0,1.3527239561080933,0,0,0.8408399820327759
0.491091795,0,0,1.3527239561080933,0,0,0.611519992351532
0.491425237,0,0,1.3527239561080933,0,0,0.611519992351532
0.491754827,0,0,1.3527239561080933,0,0,0.7644000053405762
0.492091694,0,0,1.3527239561080933,0,0,0.611519992351532
0.49242508,0,0,1.3263877630233765,0,0,0.611519992351532
0.492754781,0,0,1.3263877630233765,0,0,0.5350799560546875
0.493092037,0,0,1.3263877630233765,0,0,0.5350799560546875
0.493426016,0,0,1.3263877630233765,0,0,0.6879600286483765
0.493754458,0,0,1.3263877630233765,0,0,1.070159912109375
0.494091881,0,0,1.3263877630233765,0,0,1.1466000080108643
0.494427007,0,0,1.3263877630233765,0,0,0.611519992351532
0.49475469,0,0,1.3766659498214722,0,0,0.6879600286483765
0.495097854,0,0,1.3766659498214722,0,0,0.9937199950218201
0.495430851,0,0,1.3766659498214722,0,0,0.611519992351532
0.495754589,0,0,1.3766659498214722,0,0,1.070159912109375
0.496090178,0,0,1.3766659498214722,0,0,0.7644000053405762
0.496427324,0,0,1.3766659498214722,0,0,0.3822000026702881
0.496755099,0,0,1.3766659498214722,0,0,1.1466000080108643
0.497092318,0,0,1.45806884765625,0,0,1.375920057296753
0.497426111,0,0,1.45806884765625,0,0,1.070159912109375
0.497754646,0,0,1.45806884765625,0,0,0.152879998087883
0.49809205,0,0,1.45806884765625,0,0,0.152879998087883
0.498425621,0,0,1.45806884765625,0,0,1.2994799613952637
0.498754841,0,0,1.45806884765625,0,0,1.375920057296753
0.499092023,0,0,1.45806884765625,0,0,0.8408399820327759
0.499425502,0,0,1.414973258972168,0,0,0.4586400091648102
0.499754684,0,0,1.414973258972168,0,0,1.2994799613952637
0.500091977,0,0,1.414973258972168,0,0,0.4586400091648102
0.506126592,0,0,1.414973258972168,0,0,0.6879600286483765
0.506181944,0,0,1.414973258972168,0,0,0.6879600286483765
0.506214814,0,0,1.414973258972168,0,0,0.6879600286483765
0.506238221,0,0,1.414973258972168,0,0,0.6879600286483765
0.506261702,0,0,1.6208745241165161,0,0,0.6879600286483765
0.506285221,0,0,1.6208745241165161,0,0,0.6879600286483765
0.50690166,0,0,1.6208745241165161,0,0,0.9937199950218201
0.506940826,0,0,1.6208745241165161,0,0,0.9937199950218201
0.506964382,0,0,1.6208745241165161,0,0,0
0.506987881,0,0,1.6208745241165161,0,0,0
0.507010937,0,0,1.6208745241165161,0,0,0
0.507034103,0,0,1.3982137441635132,0,0,0
0.507073399,0,0,1.3982137441635132,0,0,0
0.507097621,0,0,1.3982137441635132,0,0,0
0.507121084,0,0,1.3982137441635132,0,0,0
0.507144399,0,0,1.3982137441635132,0,0,0
0.507167658,0,0,1.3982137441635132,0,0,0
0.507190917,0,0,1.3982137441635132,0,0,0
0.507220916,0,0,1.2761094570159912,0,0,0
0.507245305,0,0,1.2761094570159912,0,0,0
0.507268805,0,0,1.2761094570159912,0,0,1.223039984703064
0.5074446,0,0,1.2761094570159912,0,0,0.8408399820327759
0.507763208,0,0,1.2761094570159912,0,0,0.6879600286483765
0.508394906,0,0,1.2761094570159912,0,0,0.6879600286483765
0.508418591,0,0,1.2761094570159912,0,0,0.305759996175766
0.508768737,0,0,1.3910311460494995,0,0,0.3822000026702881
0.509101493,0,0,1.3910311460494995,0,0,0.611519992351532
0.509421694,0,0,1.3910311460494995,0,0,0.6879600286483765
0.509753376,0,0,1.3910311460494995,0,0,0.9172800183296204
0.510093503,0,0,1.3910311460494995,0,0,0.152879998087883
0.510420037,0,0,1.3910311460494995,0,0,0.611519992351532
0.51075696,0,0,1.3910311460494995,0,0,0.8408399820327759
0.511088439,0,0,1.2282254695892334,0,0,0.305759996175766
0.511419973,0,0,1.2282254695892334,0,0,0.152879998087883
0.511757452,0,0,1.2282254695892334,0,0,1.070159912109375
0.512088338,0,0,1.2282254695892334,0,0,1.070159912109375
0.512419983,0,0,1.2282254695892334,0,0,1.6816799640655518
0.512757017,0,0,1.2282254695892334,0,0,0.8408399820327759
0.513091644,0,0,1.2282254695892334,0,0,1.452359914779663
0.513420474,0,0,1.2473790645599365,0,0,0.5350799560546875
0.513756972,0,0,1.2473790645599365,0,0,8.867039680480957
0.514087635,0,0,1.2473790645599365,0,0,-29.582279205322266
0.51442004,0,0,1.2473790645599365,0,0,0.611519992351532
0.514757167,0,0,1.2473790645599365,0,0,0.7644000053405762
0.515087868,0,0,1.2473790645599365,0,0,0.7644000053405762
0.515420513,0,0,1.2473790645599365,0,0,0.9172800183296204
0.515757177,0,0,1.290474772453308,0,0,1.070159912109375
0.516087878,0,0,1.290474772453308,0,0,1.070159912109375
0.516420041,0,0,1.290474772453308,0,0,0.7644000053405762
0.516762242,0,0,1.290474772453308,0,0,0.8408399820327759
0.517093591,0,0,1.290474772453308,0,0,0.8408399820327759
0.517420607,0,0,1.290474772453308,0,0,0.9937199950218201
0.517757493,0,0,1.290474772453308,0,0,0.9937199950218201
0.518088138,0,0,1.434126853942871,0,0,0.8408399820327759
0.518420024,0,0,1.434126853942871,0,0,0.7644000053405762
0.518757781,0,0,1.434126853942871,0,0,0.9937199950218201
0.519088852,0,0,1.434126853942871,0,0,0.6879600286483765
0.519420053,0,0,1.434126853942871,0,0,0.5350799560546875
0.519757161,0,0,1.434126853942871,0,0,0.8408399820327759
0.520088084,0,0,1.434126853942871,0,0,0.8408399820327759
0.520420044,0,0,1.5131354331970215,0,0,0.8408399820327759
0.520757523,0,0,1.5131354331970215,0,0,0.5350799560546875
0.521088909,0,0,1.5131354331970215,0,0,1.1466000080108643
0.521423184,0,0,1.5131354331970215,0,0,0.305759996175766
0.52175457,0,0,1.5131354331970215,0,0,0.5350799560546875
0.522099548,0,0,1.5131354331970215,0,0,0.6879600286483765
0.522420231,0,0,1.5131354331970215,0,0,0.9937199950218201
0.522754006,0,0,1.3742717504501343,0,0,1.375920057296753
0.523088207,0,0,1.3742717504501343,0,0,0.9172800183296204
0.523419926,0,0,1.3742717504501343,0,0,0.3822000026702881
0.523757442,0,0,1.3742717504501343,0,0,0.6879600286483765
0.524089735,0,0,1.3742717504501343,0,0,0.7644000053405762
0.524419954,0,0,1.3742717504501343,0,0,9.631440162658691
0.524754063,0,0,1.3742717504501343,0,0,1.070159912109375
0.525087356,0,0,1.4652514457702637,0,0,1.1466000080108643
0.52542052,0,0,1.4652514457702637,0,0,1.070159912109375
0.525773035,0,0,1.4652514457702637,0,0,2.446079969406128
0.526109903,0,0,1.4652514457702637,0,0,0.5350799560546875
0.526419771,0,0,1.4652514457702637,0,0,0.4586400091648102
0.52675312,0,0,1.4652514457702637,0,0,0.9172800183296204
0.52709895,0,0,1.4652514457702637,0,0,0.7644000053405762
0.527420003,0,0,1.3838485479354858,0,0,0.611519992351532
0.527756963,0,0,1.3838485479354858,0,0,0.6879600286483765
0.528087867,0,0,1.3838485479354858,0,0,0.8408399820327759
0.528419902,0,0,1.3838485479354858,0,0,0.9937199950218201
0.528757195,0,0,1.3838485479354858,0,0,0.8408399820327759
0.529088137,0,0,1.3838485479354858,0,0,0.8408399820327759
0.529421226,0,0,1.3838485479354858,0,0,0.9172800183296204
0.529757946,0,0,1.280897855758667,0,0,0.8408399820327759
0.530089647,0,0,1.280897855758667,0,0,0.7644000053405762
0.530419977,0,0,1.280897855758667,0,0,1.1466000080108643
0.530755363,0,0,1.280897855758667,0,0,1.070159912109375
0.531087508,0,0,1.280897855758667,0,0,0.8408399820327759
0.531419765,0,0,1.280897855758667,0,0,0.4586400091648102
0.531756466,0,0,1.2880805730819702,0,0,0.7644000053405762
0.532086778,0,0,1.2880805730819702,0,0,0.5350799560546875
0.532419793,0,0,1.2880805730819702,0,0,0.611519992351532
0.532757161,0,0,1.2880805730819702,0,0,0.7644000053405762
0.533087769,0,0,1.2880805730819702,0,0,0.9172800183296204
0.533420396,0,0,1.2880805730819702,0,0,1.1466000080108643
0.53375706,0,0,1.2880805730819702,0,0,0.611519992351532
0.534088001,0,0,1.2713210582733154,0,0,1.070159912109375
0.534420221,0,0,1.2713210582733154,0,0,0.5350799560546875
0.534757366,0,0,1.2713210582733154,0,0,0.611519992351532
0.5350909,0,0,1.2713210582733154,0,0,1.223039984703064
0.535420212,0,0,1.2713210582733154,0,0,0.9937199950218201
0.535755598,0,0,1.2713210582733154,0,0,0
0.536088003,0,0,1.2713210582733154,0,0,1.070159912109375
0.536420389,0,0,1.2521674633026123,0,0,1.375920057296753
0.536756812,0,0,1.2521674633026123,0,0,0.8408399820327759
0.537087383,0,0,1.2521674633026123,0,0,0.0764399990439415
0.53742401,0,0,1.2521674633026123,0,0,0.2293200045824051
0.537758877,0,0,1.2521674633026123,0,0,0
0.538093004,0,0,1.2521674633026123,0,0,2.2932000160217285
0.538421149,0,0,1.2521674633026123,0,0,1.223039984703064
0.538758609,0,0,1.314416766166687,0,0,0.6879600286483765
0.539092218,0,0,1.314416766166687,0,0,0.611519992351532
0.5394214,0,0,1.314416766166687,0,0,0.7644000053405762
0.539758768,0,0,1.314416766166687,0,0,0.9172800183296204
0.540092191,0,0,1.314416766166687,0,0,1.1466000080108643
0.540420891,0,0,1.314416766166687,0,0,0.611519992351532
0.541399939,0,0,1.314416766166687,0,0,0.611519992351532
0.541423864,0,0,1.3335703611373901,0,0,0.611519992351532
0.541446864,0,0,1.3335703611373901,0,0,0.6879600286483765
0.542145229,0,0,1.3335703611373901,0,0,0.6879600286483765
0.542169062,0,0,1.3335703611373901,0,0,0.9172800183296204
0.542432374,0,0,1.3335703611373901,0,0,0.5350799560546875
0.542762964,0,0,1.3335703611373901,0,0,0.8408399820327759
0.543106017,0,0,1.3335703611373901,0,0,0.8408399820327759
0.543421588,0,0,1.4317326545715332,0,0,0.4586400091648102
0.543754511,0,0,1.4317326545715332,0,0,0.8408399820327759
0.544093953,0,0,1.4317326545715332,0,0,0.4586400091648102
0.544421542,0,0,1.4317326545715332,0,0,0.611519992351532
0.544760151,0,0,1.4317326545715332,0,0,0.6879600286483765
0.545100759,0,0,1.4317326545715332,0,0,0.9937199950218201
0.545422163,0,0,1.4317326545715332,0,0,0.8408399820327759
0.545760031,0,0,1.53707754611969,0,0,0.8408399820327759
0.546093491,0,0,1.53707754611969,0,0,0.9937199950218201
0.546421322,0,0,1.53707754611969,0,0,0.2293200045824051
0.546759967,0,0,1.53707754611969,0,0,0.6879600286483765
0.547110501,0,0,1.53707754611969,0,0,0.611519992351532
0.547421628,0,0,1.53707754611969,0,0,1.223039984703064
0.547765143,0,0,1.53707754611969,0,0,0.9937199950218201
0.548098622,0,0,1.4460978507995605,0,0,0.611519992351532
0.548421564,0,0,1.4460978507995605,0,0,0
0.548759727,0,0,1.4460978507995605,0,0,0.7644000053405762
0.549095465,0,0,1.4460978507995605,0,0,1.6816799640655518
0.54942124,0,0,1.4460978507995605,0,0,1.1466000080108643
0.549757608,0,0,1.4460978507995605,0,0,2.14031982421875
0.550089883,0,0,1.4460978507995605,0,0,2.06387996673584
0.550421232,0,0,1.4437036514282227,0,0,0.152879998087883
0.550758173,0,0,1.4437036514282227,0,0,0.4586400091648102
0.551091652,0,0,1.4437036514282227,0,0,0.9172800183296204
0.551421279,0,0,1.4437036514282227,0,0,0.4586400091648102
0.551760239,0,0,1.4437036514282227,0,0,0.7644000053405762
0.552099625,0,0,1.4437036514282227,0,0,0.9172800183296204
0.552421474,0,0,1.4437036514282227,0,0,0.9172800183296204
0.552760064,0,0,1.4101848602294922,0,0,0.6879600286483765
0.553093468,0,0,1.4101848602294922,0,0,0.6879600286483765
0.55342128,0,0,1.4101848602294922,0,0,0.7644000053405762
0.553756425,0,0,1.4101848602294922,0,0,0.4586400091648102
0.554088386,0,0,1.4101848602294922,0,0,0.5350799560546875
0.554421049,0,0,1.4101848602294922,0,0,0.8408399820327759
0.55475675,0,0,1.4101848602294922,0,0,0.4586400091648102
0.55508971,0,0,1.335964560508728,0,0,0.8408399820327759
0.555421467,0,0,1.335964560508728,0,0,0.9172800183296204
0.555757871,0,0,1.335964560508728,0,0,0.7644000053405762
0.556091294,0,0,1.335964560508728,0,0,1.1466000080108643
0.55642144,0,0,1.335964560508728,0,0,0.7644000053405762
0.556759826,0,0,1.335964560508728,0,0,0.4586400091648102
0.557093286,0,0,1.335964560508728,0,0,0.8408399820327759
0.557420968,0,0,1.3215993642807007,0,0,0.8408399820327759
0.558534718,0,0,1.3215993642807007,0,0,0.3822000026702881
0.558624958,0,0,1.3215993642807007,0,0,0.3822000026702881
0.558652106,0,0,1.3215993642807007,0,0,0.3822000026702881
0.558758364,0,0,1.3215993642807007,0,0,1.1466000080108643
0.559087435,0,0,1.3215993642807007,0,0,0.305759996175766
0.559420229,0,0,1.3215993642807007,0,0,0.3822000026702881
0.559753522,0,0,1.192312479019165,0,0,0.9937199950218201
0.560086742,0,0,1.192312479019165,0,0,1.758120059967041
0.560420128,0,0,1.192312479019165,0,0,1.605239987373352
0.560753866,0,0,1.192312479019165,0,0,0.6879600286483765
0.561086659,0,0,1.192312479019165,0,0,0.6879600286483765
0.56158734,0,0,1.192312479019165,0,0,0.6879600286483765
0.561755635,0,0,1.192312479019165,0,0,0.5350799560546875
0.562085873,0,0,1.216254472732544,0,0,1.5288000106811523
0.562418907,0,0,1.216254472732544,0,0,1.8345600366592407
0.562752922,0,0,1.216254472732544,0,0,2.14031982421875
0.56308542,0,0,1.216254472732544,0,0,0.7644000053405762
0.563418861,0,0,1.216254472732544,0,0,0.6879600286483765
0.563752507,0,0,1.216254472732544,0,0,0.611519992351532
0.564085467,0,0,1.216254472732544,0,0,0.5350799560546875
0.564418927,0,0,1.3000515699386597,0,0,0.8408399820327759
0.564752516,0,0,1.3000515699386597,0,0,0.9172800183296204
0.565085458,0,0,1.3000515699386597,0,0,0.9937199950218201
0.565419807,0,0,1.3000515699386597,0,0,0.611519992351532
0.565753267,0,0,1.3000515699386597,0,0,0.8408399820327759
0.566085709,0,0,1.3000515699386597,0,0,0.6879600286483765
0.56641891,0,0,1.3000515699386597,0,0,0.611519992351532
0.566752518,0,0,1.3311761617660522,0,0,0.611519992351532
0.567085663,0,0,1.3311761617660522,0,0,0.7644000053405762
0.567418938,0,0,1.3311761617660522,0,0,0.9937199950218201
0.567752232,0,0,1.3311761617660522,0,0,0.8408399820327759
0.568086358,0,0,1.3311761617660522,0,0,0.8408399820327759
0.568435855,0,0,1.3311761617660522,0,0,0.6879600286483765
0.568752982,0,0,1.3311761617660522,0,0,0.4586400091648102
0.569086202,0,0,1.400607943534851,0,0,0.5350799560546875
0.56941931,0,0,1.400607943534851,0,0,0.6879600286483765
0.5697524,0,0,1.400607943534851,0,0,0.5350799560546875
0.570086026,0,0,1.400607943534851,0,0,0.7644000053405762
0.570419098,0,0,1.400607943534851,0,0,1.070159912109375
0.570752206,0,0,1.400607943534851,0,0,1.2994799613952637
0.571086166,0,0,1.400607943534851,0,0,1.1466000080108643
0.571418941,0,0,1.3958195447921753,0,0,0.5350799560546875
0.57175216,0,0,1.3958195447921753,0,0,0.6879600286483765
0.572086028,0,0,1.3958195447921753,0,0,0.0764399990439415
0.572419043,0,0,1.3958195447921753,0,0,0.305759996175766
0.572752281,0,0,1.3958195447921753,0,0,1.070159912109375
0.573085982,0,0,1.3958195447921753,0,0,0.6879600286483765
0.573419257,0,0,1.3958195447921753,0,0,1.758120059967041
0.573752162,0,0,1.3862427473068237,0,0,1.375920057296753
0.574085381,0,0,1.3862427473068237,0,0,0
0.574419137,0,0,1.3862427473068237,0,0,0
0.57475219,0,0,1.3862427473068237,0,0,9.019920349121094
0.575085243,0,0,1.3862427473068237,0,0,0
0.575419296,0,0,1.3862427473068237,0,0,0.9172800183296204
0.575751848,0,0,1.3862427473068237,0,0,0.4586400091648102
0.576085382,0,0,1.4700398445129395,0,0,0.5350799560546875
0.576419268,0,0,1.4700398445129395,0,0,0.7644000053405762
0.576752154,0,0,1.4700398445129395,0,0,0.611519992351532
0.577085485,0,0,1.4700398445129395,0,0,0.7644000053405762
0.577419297,0,0,1.4700398445129395,0,0,1.070159912109375
0.577752276,0,0,1.4700398445129395,0,0,0.9172800183296204
0.578085569,0,0,1.4700398445129395,0,0,0.6879600286483765
0.578419436,0,0,1.4245500564575195,0,0,0.8408399820327759
0.578754323,0,0,1.4245500564575195,0,0,0.6879600286483765
0.579085672,0,0,1.4245500564575195,0,0,0.9172800183296204
0.57941928,0,0,1.4245500564575195,0,0,0.9172800183296204
0.579752147,0,0,1.4245500564575195,0,0,0.8408399820327759
0.580085478,0,0,1.4245500564575195,0,0,0.6879600286483765
0.580419253,0,0,1.4245500564575195,0,0,0.611519992351532
0.580752046,0,0,1.2641384601593018,0,0,0.9172800183296204
0.581085506,0,0,1.2641384601593018,0,0,0.9172800183296204
0.58142117,0,0,1.2641384601593018,0,0,0.8408399820327759
0.581753945,0,0,1.2641384601593018,0,0,0.6879600286483765
0.582087016,0,0,1.2641384601593018,0,0,1.070159912109375
0.582420032,0,0,1.2641384601593018,0,0,0.611519992351532
0.582754251,0,0,1.2641384601593018,0,0,0.6879600286483765
0.583086748,0,0,1.2521674633026123,0,0,0.611519992351532
0.583420005,0,0,1.2521674633026123,0,0,0.8408399820327759
0.583753743,0,0,1.2521674633026123,0,0,0.4586400091648102
0.584086832,0,0,1.2521674633026123,0,0,0.6879600286483765
0.584420052,0,0,1.2521674633026123,0,0,1.452359914779663
0.584753864,0,0,1.2521674633026123,0,0,1.223039984703064
0.585086842,0,0,1.2521674633026123,0,0,0.2293200045824051
0.585419914,0,0,1.316810965538025,0,0,0.8408399820327759
0.585753837,0,0,1.316810965538025,0,0,0
0.586086538,0,0,1.316810965538025,0,0,0
0.586419905,0,0,1.316810965538025,0,0,1.452359914779663
0.586753643,0,0,1.316810965538025,0,0,1.375920057296753
0.587086436,0,0,1.316810965538025,0,0,2.06387996673584
0.587419878,0,0,1.316810965538025,0,0,0.3822000026702881
0.587753116,0,0,1.3479355573654175,0,0,0.9172800183296204
0.588086483,0,0,1.3479355573654175,0,0,1.070159912109375
0.588419795,0,0,1.3479355573654175,0,0,0.9172800183296204
0.588753237,0,0,1.3479355573654175,0,0,0.611519992351532
0.589098271,0,0,1.3479355573654175,0,0,0.8408399820327759
0.589403342,0,0,1.3479355573654175,0,0,0.6879600286483765
0.589743154,0,0,1.3479355573654175,0,0,0.9172800183296204
0.590091225,0,0,1.3527239561080933,0,0,1.070159912109375
0.590421149,0,0,1.3527239561080933,0,0,0.7644000053405762
0.590753479,0,0,1.3527239561080933,0,0,0.5350799560546875
0.591087328,0,0,1.3527239561080933,0,0,0.8408399820327759
0.591419844,0,0,1.3527239561080933,0,0,0.7644000053405762
0.591753304,0,0,1.3527239561080933,0,0,0.9172800183296204
0.592087079,0,0,1.3527239561080933,0,0,0.8408399820327759
0.592420076,0,0,1.357512354850769,0,0,0.5350799560546875
0.593013515,0,0,1.357512354850769,0,0,0.5350799560546875
0.593148884,0,0,1.357512354850769,0,0,0.6879600286483765
0.59343353,0,0,1.357512354850769,0,0,0.9172800183296204
0.593767842,0,0,1.357512354850769,0,0,0.8408399820327759
0.594087895,0,0,1.357512354850769,0,0,1.070159912109375
0.594426596,0,0,1.357512354850769,0,0,0.4586400091648102
0.594760426,0,0,1.41257905960083,0,0,0.611519992351532
0.59508772,0,0,1.41257905960083,0,0,1.5288000106811523
0.595426495,0,0,1.41257905960083,0,0,0.7644000053405762
0.595761103,0,0,1.41257905960083,0,0,0
0.596198469,0,0,1.41257905960083,0,0,0.611519992351532
0.596427838,0,0,1.41257905960083,0,0,0.4586400091648102
0.596760742,0,0,1.41257905960083,0,0,1.5288000106811523
0.597087906,0,0,1.4245500564575195,0,0,1.375920057296753
0.597423052,0,0,1.4245500564575195,0,0,0.611519992351532
0.597758956,0,0,1.4245500564575195,0,0,0
0.598087842,0,0,1.4245500564575195,0,0,1.070159912109375
0.598426376,0,0,1.4245500564575195,0,0,0.8408399820327759
0.598759355,0,0,1.4245500564575195,0,0,1.2994799613952637
0.599088056,0,0,1.4245500564575195,0,0,0.152879998087883
0.599431368,0,0,1.3192051649093628,0,0,0.152879998087883
0.599764161,0,0,1.3192051649093628,0,0,0.9172800183296204
0.600087788,0,0,1.3192051649093628,0,0,0.5350799560546875
0.600424785,0,0,1.3192051649093628,0,0,0.611519992351532
0.600756653,0,0,1.3192051649093628,0,0,0.8408399820327759
0.601087928,0,0,1.3192051649093628,0,0,0.8408399820327759
0.60142561,0,0,1.3192051649093628,0,0,0.6879600286483765
0.601758089,0,0,1.4939818382263184,0,0,0.9172800183296204
0.602087882,0,0,1.4939818382263184,0,0,1.2994799613952637
0.602426083,0,0,1.4939818382263184,0,0,0.9172800183296204
0.602758747,0,0,1.4939818382263184,0,0,0.6879600286483765
0.603088188,0,0,1.4939818382263184,0,0,0.611519992351532
0.603426241,0,0,1.4939818382263184,0,0,0.6879600286483765
0.603758516,0,0,1.4939818382263184,0,0,0.4586400091648102
0.604087606,0,0,1.37906014919281,0,0,0.7644000053405762
0.604426288,0,0,1.37906014919281,0,0,1.1466000080108643
0.604758711,0,0,1.37906014919281,0,0,0.9172800183296204
0.605087486,0,0,1.37906014919281,0,0,0.9172800183296204
0.605427353,0,0,1.37906014919281,0,0,0.7644000053405762
0.605760758,0,0,1.37906014919281,0,0,0.6879600286483765
0.6060877,0,0,1.37906014919281,0,0,0.9937199950218201
0.606426067,0,0,1.2976573705673218,0,0,0.5350799560546875
0.606760657,0,0,1.2976573705673218,0,0,0.8408399820327759
0.607087543,0,0,1.2976573705673218,0,0,0.5350799560546875
0.607432207,0,0,1.2976573705673218,0,0,0.9172800183296204
0.607756148,0,0,1.2976573705673218,0,0,1.1466000080108643
0.60808959,0,0,1.2976573705673218,0,0,1.1466000080108643
0.608421328,0,0,1.2976573705673218,0,0,0.9937199950218201
0.608758103,0,0,1.2713210582733154,0,0,1.375920057296753
0.609109414,0,0,1.2713210582733154,0,0,0.8408399820327759
0.609422301,0,0,1.2713210582733154,0,0,0.7644000053405762
0.609764538,0,0,1.2713210582733154,0,0,1.070159912109375
0.61011398,0,0,1.2713210582733154,0,0,0.4586400091648102
0.610426292,0,0,1.2713210582733154,0,0,0.0764399990439415
0.610759919,0,0,1.2713210582733154,0,0,0.152879998087883
0.61109799,0,0,1.2880805730819702,0,0,1.8345600366592407
0.611423895,0,0,1.2880805730819702,0,0,2.2167599201202393
0.611756707,0,0,1.2880805730819702,0,0,1.9874399900436401
0.612087833,0,0,1.2880805730819702,0,0,0.8408399820327759
0.612426386,0,0,1.2880805730819702,0,0,1.1466000080108643
0.612761161,0,0,1.2880805730819702,0,0,1.070159912109375
0.613087825,0,0,1.2880805730819702,0,0,0.8408399820327759
0.613427137,0,0,1.3287819623947144,0,0,0.7644000053405762
0.613761115,0,0,1.3287819623947144,0,0,0.611519992351532
0.614086816,0,0,1.3287819623947144,0,0,0.7644000053405762
0.614425184,0,0,1.3287819623947144,0,0,0.5350799560546875
0.614752922,0,0,1.3287819623947144,0,0,0.5350799560546875
0.615091956,0,0,1.3287819623947144,0,0,1.1466000080108643
0.615421342,0,0,1.3287819623947144,0,0,0.9172800183296204
0.615753376,0,0,1.2856862545013428,0,0,0.9937199950218201
0.616088244,0,0,1.2856862545013428,0,0,0.5350799560546875
0.616420407,0,0,1.2856862545013428,0,0,0.9172800183296204
0.616753719,0,0,1.2856862545013428,0,0,0.9172800183296204
0.617091142,0,0,1.2856862545013428,0,0,1.070159912109375
0.617424232,0,0,1.2856862545013428,0,0,1.070159912109375
0.617757748,0,0,1.2856862545013428,0,0,0.8408399820327759
0.618087801,0,0,1.314416766166687,0,0,0.5350799560546875
0.618426557,0,0,1.314416766166687,0,0,1.070159912109375
0.618760424,0,0,1.314416766166687,0,0,0.5350799560546875
0.619087811,0,0,1.314416766166687,0,0,0.9937199950218201
0.619426308,0,0,1.314416766166687,0,0,0.5350799560546875
0.619793342,0,0,1.314416766166687,0,0,-29.582279205322266
0.62009345,0,0,1.314416766166687,0,0,0.7644000053405762
0.620427855,0,0,1.4891934394836426,0,0,0.611519992351532
0.620769759,0,0,1.4891934394836426,0,0,0.305759996175766
0.621145311,0,0,1.4891934394836426,0,0,0.8408399820327759
0.621449272,0,0,1.4891934394836426,0,0,0.8408399820327759
0.621761288,0,0,1.4891934394836426,0,0,0.9172800183296204
0.622174543,0,0,1.4891934394836426,0,0,0.9172800183296204
0.6224253,0,0,1.4891934394836426,0,0,1.9874399900436401
0.62276202,0,0,1.525106430053711,0,0,1.070159912109375
0.623107609,0,0,1.525106430053711,0,0,1.070159912109375
0.623429884,0,0,1.525106430053711,0,0,2.06387996673584
0.623757956,0,0,1.525106430053711,0,0,0
0.624098064,0,0,1.525106430053711,0,0,0.8408399820327759
0.624442691,0,0,1.525106430053711,0,0,0.7644000053405762
0.624765558,0,0,1.525106430053711,0,0,0.8408399820327759
0.625105203,0,0,1.3982137441635132,0,0,0.6879600286483765
0.625434812,0,0,1.3982137441635132,0,0,0.5350799560546875
0.625834345,0,0,1.3982137441635132,0,0,0.5350799560546875
0.626093528,0,0,1.3982137441635132,0,0,0.9937199950218201
0.626426711,0,0,1.3982137441635132,0,0,0.8408399820327759
0.626764874,0,0,1.3982137441635132,0,0,0.8408399820327759
0.627088612,0,0,1.3982137441635132,0,0,1.1466000080108643
0.627425461,0,0,1.4293384552001953,0,0,0.9172800183296204
0.627758644,0,0,1.4293384552001953,0,0,0.9172800183296204
0.628088122,0,0,1.4293384552001953,0,0,0.305759996175766
0.628427231,0,0,1.4293384552001953,0,0,0.4586400091648102
0.628808005,0,0,1.4293384552001953,0,0,0.7644000053405762
0.629107169,0,0,1.4293384552001953,0,0,0.7644000053405762
0.629422426,0,0,1.4293384552001953,0,0,0.9172800183296204
0.629757256,0,0,1.3072341680526733,0,0,0.9937199950218201
0.630089476,0,0,1.3072341680526733,0,0,0.8408399820327759
0.630426047,0,0,1.3072341680526733,0,0,0.4586400091648102
0.630758044,0,0,1.3072341680526733,0,0,0.6879600286483765
0.631090893,0,0,1.3072341680526733,0,0,0.4586400091648102
0.631421816,0,0,1.3072341680526733,0,0,0.3822000026702881
0.631761628,0,0,1.3072341680526733,0,0,1.452359914779663
0.632090607,0,0,1.256955862045288,0,0,1.223039984703064
0.632437974,0,0,1.256955862045288,0,0,1.1466000080108643
0.632754656,0,0,1.256955862045288,0,0,0.8408399820327759
0.633117376,0,0,1.256955862045288,0,0,-29.582279205322266
0.633426466,0,0,1.256955862045288,0,0,0.611519992351532
0.633757833,0,0,1.256955862045288,0,0,0.4586400091648102
0.634088219,0,0,1.256955862045288,0,0,0.4586400091648102
0.634420364,0,0,1.357512354850769,0,0,1.223039984703064
0.634755862,0,0,1.357512354850769,0,0,1.5288000106811523
0.635086748,0,0,1.357512354850769,0,0,1.5288000106811523
0.635424874,0,0,1.357512354850769,0,0,0.9937199950218201
0.635755316,0,0,1.357512354850769,0,0,0
0.636086628,0,0,1.357512354850769,0,0,9.325679779052734
0.636441477,0,0,1.357512354850769,0,0,0.6879600286483765
0.636756641,0,0,1.2617442607879639,0,0,0.9937199950218201
0.637087045,0,0,1.2617442607879639,0,0,0.9172800183296204
0.637420154,0,0,1.2617442607879639,0,0,0.5350799560546875
0.637758354,0,0,1.2617442607879639,0,0,0.8408399820327759
0.638089074,0,0,1.2617442607879639,0,0,0.9172800183296204
0.63841983,0,0,1.2617442607879639,0,0,0.6879600286483765
0.638758475,0,0,1.2617442607879639,0,0,0.7644000053405762
0.639087824,0,0,1.2401964664459229,0,0,0.611519992351532
0.63944434,0,0,1.2401964664459229,0,0,0.8408399820327759
0.639757763,0,0,1.2401964664459229,0,0,0.8408399820327759
0.64008776,0,0,1.2401964664459229,0,0,0.9937199950218201
0.640419943,0,0,1.2401964664459229,0,0,0.611519992351532
0.640760366,0,0,1.2401964664459229,0,0,0.9172800183296204
0.641091863,0,0,1.2401964664459229,0,0,0.9172800183296204
0.641426582,0,0,1.292868971824646,0,0,1.1466000080108643
0.641780672,0,0,1.292868971824646,0,0,0.5350799560546875
0.642088151,0,0,1.292868971824646,0,0,0.8408399820327759
0.642420759,0,0,1.292868971824646,0,0,1.223039984703064
0.642758145,0,0,1.292868971824646,0,0,0.8408399820327759
0.643088179,0,0,1.292868971824646,0,0,1.223039984703064
0.643426324,0,0,1.292868971824646,0,0,0.611519992351532
0.643776507,0,0,1.455674648284912,0,0,0.8408399820327759
0.64412067,0,0,1.455674648284912,0,0,0.9172800183296204
0.64442339,0,0,1.455674648284912,0,0,0.3822000026702881
0.644755146,0,0,1.455674648284912,0,0,0.5350799560546875
0.645092143,0,0,1.455674648284912,0,0,0.3822000026702881
0.645449011,0,0,1.455674648284912,0,0,0.6879600286483765
0.645767952,0,0,1.455674648284912,0,0,0.4586400091648102
0.646091672,0,0,1.5418659448623657,0,0,1.375920057296753
0.646427725,0,0,1.5418659448623657,0,0,1.2994799613952637
0.646762092,0,0,1.5418659448623657,0,0,1.452359914779663
0.647098941,0,0,1.5418659448623657,0,0,1.1466000080108643
0.647436031,0,0,1.5418659448623657,0,0,-30.499561309814453
0.647767195,0,0,1.5418659448623657,0,0,0.8408399820327759
0.648101247,0,0,1.5418659448623657,0,0,0.5350799560546875
0.648421245,0,0,1.4628572463989258,0,0,0.0764399990439415
0.648761742,0,0,1.4628572463989258,0,0,0.9172800183296204
0.649094628,0,0,1.4628572463989258,0,0,0.7644000053405762
0.649432884,0,0,1.4628572463989258,0,0,0.4586400091648102
0.649754474,0,0,1.4628572463989258,0,0,0.611519992351532
0.650112026,0,0,1.4628572463989258,0,0,0.9172800183296204
0.650425376,0,0,1.4628572463989258,0,0,0.8408399820327759
0.65075891,0,0,1.4101848602294922,0,0,0.7644000053405762
0.65111137,0,0,1.4101848602294922,0,0,0.5350799560546875
0.651421904,0,0,1.4101848602294922,0,0,0.5350799560546875
0.651755827,0,0,1.4101848602294922,0,0,0.6879600286483765
0.652087769,0,0,1.4101848602294922,0,0,0.6879600286483765
0.652445432,0,0,1.4101848602294922,0,0,1.1466000080108643
0.652759207,0,0,1.4101848602294922,0,0,0.8408399820327759
0.653092297,0,0,1.4221558570861816,0,0,0.6879600286483765
0.653422368,0,0,1.4221558570861816,0,0,0.8408399820327759
0.653772958,0,0,1.4221558570861816,0,0,0.8408399820327759
0.654103992,0,0,1.4221558570861816,0,0,0.4586400091648102
0.654421323,0,0,1.4221558570861816,0,0,0.4586400091648102
0.654754264,0,0,1.4221558570861816,0,0,0.4586400091648102
0.655093373,0,0,1.4221558570861816,0,0,0.8408399820327759
0.655421036,0,0,1.3311761617660522,0,0,0.9172800183296204
0.655759145,0,0,1.3311761617660522,0,0,0.6879600286483765
0.656095642,0,0,1.3311761617660522,0,0,0.6879600286483765
0.656421083,0,0,1.3311761617660522,0,0,0.9172800183296204
0.656754784,0,0,1.3311761617660522,0,0,0.611519992351532
0.657093337,0,0,1.3311761617660522,0,0,0.9172800183296204
0.657420964,0,0,1.3311761617660522,0,0,0.4586400091648102
0.657760016,0,0,1.37906014919281,0,0,1.223039984703064
0.65809281,0,0,1.37906014919281,0,0,0.7644000053405762
0.658421548,0,0,1.37906014919281,0,0,2.06387996673584
0.658760323,0,0,1.37906014919281,0,0,1.9874399900436401
0.659094024,0,0,1.37906014919281,0,0,-29.582279205322266
0.65942115,0,0,1.37906014919281,0,0,0.4586400091648102
0.659760018,0,0,1.37906014919281,0,0,0.9172800183296204
0.660093293,0,0,1.3335703611373901,0,0,2.3696401119232178
0.660420883,0,0,1.3335703611373901,0,0,1.375920057296753
0.660760769,0,0,1.3335703611373901,0,0,0.8408399820327759
0.661095877,0,0,1.3335703611373901,0,0,0.8408399820327759
0.661424004,0,0,1.3335703611373901,0,0,0.9172800183296204
0.661757464,0,0,1.3335703611373901,0,0,0.8408399820327759
0.662089424,0,0,1.3335703611373901,0,0,0.6879600286483765
0.662421088,0,0,1.1875240802764893,0,0,0.4586400091648102
0.662757566,0,0,1.1875240802764893,0,0,0.611519992351532
0.663091156,0,0,1.1875240802764893,0,0,0.9937199950218201
0.663421172,0,0,1.1875240802764893,0,0,1.070159912109375
0.663759817,0,0,1.1875240802764893,0,0,1.1466000080108643
0.664092499,0,0,1.1875240802764893,0,0,0.6879600286483765
0.664420996,0,0,1.1875240802764893,0,0,0.3822000026702881
0.664759494,0,0,1.2713210582733154,0,0,0.3822000026702881
0.665092343,0,0,1.2713210582733154,0,0,0.9172800183296204
0.665421118,0,0,1.2713210582733154,0,0,0.3822000026702881
0.665759892,0,0,1.2713210582733154,0,0,0.8408399820327759
0.666093871,0,0,1.2713210582733154,0,0,0.611519992351532
0.666421072,0,0,1.2713210582733154,0,0,1.2994799613952637
0.666759384,0,0,1.2713210582733154,0,0,0.9937199950218201
0.667093288,0,0,1.280897855758667,0,0,0.7644000053405762
0.667421137,0,0,1.280897855758667,0,0,0.5350799560546875
0.667759616,0,0,1.280897855758667,0,0,0.9937199950218201
0.668093484,0,0,1.280897855758667,0,0,0.9172800183296204
0.668421073,0,0,1.280897855758667,0,0,0.9172800183296204
0.668759774,0,0,1.280897855758667,0,0,0.8408399820327759
0.669092679,0,0,1.280897855758667,0,0,0.3822000026702881
0.669421194,0,0,1.41257905960083,0,0,1.375920057296753
0.669759432,0,0,1.41257905960083,0,0,0.7644000053405762
0.670094263,0,0,1.41257905960083,0,0,1.070159912109375
0.670421223,0,0,1.41257905960083,0,0,0.0764399990439415
0.670759479,0,0,1.41257905960083,0,0,0.4586400091648102
0.671092587,0,0,1.41257905960083,0,0,0.0764399990439415
0.67142114,0,0,1.41257905960083,0,0,1.8345600366592407
0.671761748,0,0,1.4413094520568848,0,0,1.070159912109375
0.672095005,0,0,1.4413094520568848,0,0,0.2293200045824051
0.672421261,0,0,1.4413094520568848,0,0,0.305759996175766
0.672762314,0,0,1.4413094520568848,0,0,0.5350799560546875
0.673095793,0,0,1.4413094520568848,0,0,0.611519992351532
0.673421012,0,0,1.4413094520568848,0,0,0.7644000053405762
0.673758083,0,0,1.4413094520568848,0,0,0.9937199950218201
0.674091432,0,0,1.359906554222107,0,0,0.9172800183296204
0.674421559,0,0,1.359906554222107,0,0,0.9172800183296204
0.674759741,0,0,1.359906554222107,0,0,0.9937199950218201
0.675101109,0,0,1.359906554222107,0,0,0.5350799560546875
0.675421106,0,0,1.359906554222107,0,0,0.4586400091648102
0.675759418,0,0,1.359906554222107,0,0,0.611519992351532
0.676092674,0,0,1.4317326545715332,0,0,0.7644000053405762
0.676421134,0,0,1.4317326545715332,0,0,0.8408399820327759
0.676759372,0,0,1.4317326545715332,0,0,0.6879600286483765
0.677092758,0,0,1.4317326545715332,0,0,0.8408399820327759
0.677421144,0,0,1.4317326545715332,0,0,0.9172800183296204
0.677759753,0,0,1.4317326545715332,0,0,0.9172800183296204
0.678093046,0,0,1.4317326545715332,0,0,0.9937199950218201
0.678421006,0,0,1.4317326545715332,0,0,0.3822000026702881
0.678759614,0,0,1.4748282432556152,0,0,0.7644000053405762
0.679094445,0,0,1.4748282432556152,0,0,0.7644000053405762
0.679420979,0,0,1.4748282432556152,0,0,1.223039984703064
0.679755754,0,0,1.4748282432556152,0,0,1.452359914779663
0.680087399,0,0,1.4748282432556152,0,0,0.611519992351532
0.680421174,0,0,1.4748282432556152,0,0,0.7644000053405762
0.680755949,0,0,1.4748282432556152,0,0,0.611519992351532
0.681087761,0,0,1.2449848651885986,0,0,0.305759996175766
0.681421184,0,0,1.2449848651885986,0,0,0.6879600286483765
0.681757237,0,0,1.2449848651885986,0,0,0.0764399990439415
0.682091419,0,0,1.2449848651885986,0,0,1.070159912109375
0.682421176,0,0,1.2449848651885986,0,0,1.5288000106811523
0.682757506,0,0,1.2449848651885986,0,0,0.4586400091648102
0.683217539,0,0,1.2449848651885986,0,0,1.452359914779663
0.683423908,0,0,1.2856862545013428,0,0,0.6879600286483765
0.683754257,0,0,1.2856862545013428,0,0,9.631440162658691
0.684092106,0,0,1.2856862545013428,0,0,0.152879998087883
0.684424288,0,0,1.2856862545013428,0,0,8.484840393066406
0.684754063,0,0,1.2856862545013428,0,0,2.14031982421875
0.685092782,0,0,1.2856862545013428,0,0,0.9172800183296204
0.685425706,0,0,1.3335703611373901,0,0,1.1466000080108643
0.685754092,0,0,1.3335703611373901,0,0,0.5350799560546875
0.686092737,0,0,1.3335703611373901,0,0,0.3822000026702881
0.686425197,0,0,1.3335703611373901,0,0,0.611519992351532
0.68675425,0,0,1.3335703611373901,0,0,0.611519992351532
0.687092691,0,0,1.3335703611373901,0,0,0.7644000053405762
0.68742504,0,0,1.3335703611373901,0,0,0.611519992351532
0.687753204,0,0,1.2497732639312744,0,0,0.9172800183296204
0.688092368,0,0,1.2497732639312744,0,0,0.8408399820327759
0.688421532,0,0,1.2497732639312744,0,0,0.7644000053405762
0.688752973,0,0,1.2497732639312744,0,0,0.6879600286483765
0.689091341,0,0,1.2497732639312744,0,0,0.7644000053405762
0.68942506,0,0,1.2497732639312744,0,0,0.6879600286483765
0.689754317,0,0,1.2497732639312744,0,0,0.9937199950218201
0.690092758,0,0,1.2952631711959839,0,0,0.9172800183296204
0.690426607,0,0,1.2952631711959839,0,0,0.7644000053405762
0.690754364,0,0,1.2952631711959839,0,0,0.611519992351532
0.691092564,0,0,1.2952631711959839,0,0,0.5350799560546875
0.691426024,0,0,1.2952631711959839,0,0,1.1466000080108643
0.691754244,0,0,1.2952631711959839,0,0,0.8408399820327759
0.692092834,0,0,1.2952631711959839,0,0,0.9937199950218201
0.692430738,0,0,1.2689268589019775,0,0,0.5350799560546875
0.692754606,0,0,1.2689268589019775,0,0,0.9172800183296204
0.693088844,0,0,1.2689268589019775,0,0,1.1466000080108643
0.693422748,0,0,1.2689268589019775,0,0,1.2994799613952637
0.693755171,0,0,1.2689268589019775,0,0,0.611519992351532
0.694090224,0,0,1.2689268589019775,0,0,0.611519992351532
0.694422351,0,0,1.2689268589019775,0,0,0
0.694754829,0,0,1.4101848602294922,0,0,1.1466000080108643
0.695089882,0,0,1.4101848602294922,0,0,0.0764399990439415
0.695422064,0,0,1.4101848602294922,0,0,0.9172800183296204
0.695754636,0,0,1.4101848602294922,0,0,1.375920057296753
0.696090114,0,0,1.4101848602294922,0,0,1.6816799640655518
0.696422371,0,0,1.4101848602294922,0,0,0
0.696754553,0,0,1.4101848602294922,0,0,9.402119636535645
0.697091198,0,0,1.4532804489135742,0,0,1.6816799640655518
0.697425251,0,0,1.4532804489135742,0,0,0.9172800183296204
0.697754711,0,0,1.4532804489135742,0,0,0.9172800183296204
0.698093078,0,0,1.4532804489135742,0,0,0.611519992351532
0.698425465,0,0,1.4532804489135742,0,0,0.8408399820327759
0.69875461,0,0,1.4532804489135742,0,0,0.9937199950218201
0.699093329,0,0,1.4532804489135742,0,0,0.8408399820327759
0.699426308,0,0,1.3048399686813354,0,0,0.7644000053405762
0.699754694,0,0,1.3048399686813354,0,0,0.8408399820327759
0.700093172,0,0,1.3048399686813354,0,0,0.9172800183296204
0.700426262,0,0,1.3048399686813354,0,0,0.611519992351532
0.700754593,0,0,1.3048399686813354,0,0,0.9172800183296204
0.701093053,0,0,1.3048399686813354,0,0,0.8408399820327759
0.70142768,0,0,1.3048399686813354,0,0,0.8408399820327759
0.701754455,0,0,1.4413094520568848,0,0,0.6879600286483765
0.702092933,0,0,1.4413094520568848,0,0,0.9172800183296204
0.702425449,0,0,1.4413094520568848,0,0,0.6879600286483765
