Time,AccelX1,AccelY1,AccelZ1,AccelX2,AccelY2,AccelZ2
0.000020352,0,0,1.623268723487854,0,0,0.6879600286483765
0.020356319,0,0,1.5538369417190552,0,0,0.611519992351532
0.020845609,0,0,1.5538369417190552,0,0,0.5350799560546875
0.021303899,0,0,1.5203180313110352,0,0,0.611519992351532
0.021752337,0,0,1.5203180313110352,0,0,0.6879600286483765
0.022198017,0,0,1.5897499322891235,0,0,0.9172800183296204
0.022645196,0,0,1.5897499322891235,0,0,0.9172800183296204
0.023087782,0,0,1.5418659448623657,0,0,0.9937199950218201
0.023531739,0,0,1.5418659448623657,0,0,0.9172800183296204
0.023976419,0,0,1.5418659448623657,0,0,0.7644000053405762
0.024417042,0,0,1.4245500564575195,0,0,0.9937199950218201
0.024858685,0,0,1.4245500564575195,0,0,0.9937199950218201
0.02530003,0,0,1.4484920501708984,0,0,1.1466000080108643
0.025739247,0,0,1.4484920501708984,0,0,0.4586400091648102
0.026179815,0,0,1.4221558570861816,0,0,0.8408399820327759
0.026620828,0,0,1.4221558570861816,0,0,0.9172800183296204
0.02706097,0,0,1.460463047027588,0,0,0.9172800183296204
0.02750613,0,0,1.460463047027588,0,0,0.6879600286483765
0.027946421,0,0,1.460463047027588,0,0,0.9172800183296204
0.028386193,0,0,1.4460978507995605,0,0,0.4586400091648102
0.028827909,0,0,1.4460978507995605,0,0,0.6879600286483765
0.029266496,0,0,1.5322890281677246,0,0,0.9937199950218201
0.029708527,0,0,1.5322890281677246,0,0,0.8408399820327759
0.030148076,0,0,1.577778935432434,0,0,0.7644000053405762
0.030697773,0,0,1.577778935432434,0,0,0.9172800183296204
0.031142933,0,0,1.6112977266311646,0,0,1.1466000080108643
0.031583464,0,0,1.6112977266311646,0,0,1.1466000080108643
0.032023607,0,0,1.6112977266311646,0,0,0.6879600286483765
0.032464342,0,0,1.5418659448623657,0,0,1.070159912109375
0.032905539,0,0,1.5418659448623657,0,0,1.070159912109375
0.033345293,0,0,1.5729905366897583,0,0,0.611519992351532
0.033773139,0,0,1.5729905366897583,0,0,1.070159912109375
0.034087579,0,0,1.4508862495422363,0,0,0.9937199950218201
0.034435111,0,0,1.4508862495422363,0,0,1.605239987373352
0.034756385,0,0,1.3742717504501343,0,0,0.9172800183296204
0.035391691,0,0,1.414973258972168,0,0,0.8408399820327759
0.036389955,0,0,1.3551181554794312,0,0,0.611519992351532
0.037389849,0,0,1.4724340438842773,0,0,0.9937199950218201
0.038403484,0,0,1.4867992401123047,0,0,0.7644000053405762
0.039389008,0,0,1.6041151285171509,0,0,1.070159912109375
0.040389161,0,0,1.601720929145813,0,0,0.611519992351532
0.041388703,0,0,1.6065093278884888,0,0,0.9172800183296204
0.042396356,0,0,1.525106430053711,0,0,0.4586400091648102
0.043389009,0,0,1.5155296325683594,0,0,0.9937199950218201
0.044389366,0,0,1.5442601442337036,0,0,0.9172800183296204
0.045388908,0,0,1.482010841369629,0,0,0.611519992351532
0.046454579,0,0,1.5394717454910278,0,0,0.6879600286483765
0.04739253,0,0,1.4748282432556152,0,0,0.9172800183296204
0.048389405,0,0,1.359906554222107,0,0,0.6879600286483765
0.049388651,0,0,1.4221558570861816,0,0,0.8408399820327759
0.050396341,0,0,1.5394717454910278,0,0,0.7644000053405762
0.051389272,0,0,1.5394717454910278,0,0,0.5350799560546875
0.052389074,0,0,1.680729627609253,0,0,1.070159912109375
0.053388597,0,0,1.5825673341751099,0,0,0.9172800183296204
0.05443162,0,0,1.50355863571167,0,0,0.7644000053405762
0.055390348,0,0,1.4724340438842773,0,0,1.070159912109375
0.056388964,0,0,1.525106430053711,0,0,0.7644000053405762
0.057388321,0,0,1.479616641998291,0,0,1.070159912109375
0.05839903,0,0,1.4963760375976563,0,0,0.8408399820327759
0.059389572,0,0,1.4676456451416016,0,0,1.1466000080108643
0.060388744,0,0,1.460463047027588,0,0,0.9172800183296204
0.061388267,0,0,1.556231141090393,0,0,0.7644000053405762
0.062406383,0,0,1.5705963373184204,0,0,0.8408399820327759
0.063388889,0,0,1.5849615335464478,0,0,0.9172800183296204
0.064389079,0,0,1.5729905366897583,0,0,0.9172800183296204
0.065411936,0,0,1.5203180313110352,0,0,0.7644000053405762
0.066412978,0,0,1.5466543436050415,0,0,1.070159912109375
0.067391131,0,0,1.6041151285171509,0,0,0.8408399820327759
0.068388877,0,0,1.4676456451416016,0,0,1.070159912109375
0.069388623,0,0,1.5059528350830078,0,0,0.9937199950218201
0.07041435,0,0,1.5155296325683594,0,0,0.8408399820327759
0.071397633,0,0,1.3862427473068237,0,0,0.7644000053405762
0.072394545,0,0,1.45806884765625,0,0,1.1466000080108643
0.073394217,0,0,1.4987702369689941,0,0,0.611519992351532
0.074396055,0,0,1.6759412288665771,0,0,0.7644000053405762
0.075398857,0,0,1.647210717201233,0,0,0.9172800183296204
0.07639514,0,0,1.556231141090393,0,0,1.070159912109375
0.077507551,0,0,1.601720929145813,0,0,0.611519992351532
0.078425798,0,0,1.601720929145813,0,0,0.6879600286483765
0.079474321,0,0,1.4437036514282227,0,0,1.1466000080108643
0.080429808,0,0,1.4437036514282227,0,0,-8.867039680480957
0.081397795,0,0,1.455674648284912,0,0,0.9937199950218201
0.08240054,0,0,1.37906014919281,0,0,0.9937199950218201
0.083405768,0,0,1.434126853942871,0,0,0.7644000053405762
0.084394754,0,0,1.5275006294250488,0,0,0.9172800183296204
0.085394241,0,0,1.5634137392044067,0,0,0.7644000053405762
0.086396061,0,0,1.6184803247451782,0,0,0.9172800183296204
0.087392251,0,0,1.5969325304031372,0,0,0.8408399820327759
0.088393645,0,0,1.5658079385757446,0,0,0.9937199950218201
0.089394891,0,0,1.5514427423477173,0,0,1.070159912109375
0.090396063,0,0,1.4101848602294922,0,0,0.7644000053405762
0.091392475,0,0,1.4245500564575195,0,0,0.7644000053405762
0.092392999,0,0,1.5131354331970215,0,0,0.9937199950218201
0.093393374,0,0,1.3862427473068237,0,0,0.6879600286483765
0.094395861,0,0,1.4676456451416016,0,0,0.7644000053405762
0.095393181,0,0,1.4437036514282227,0,0,0.611519992351532
0.096393519,0,0,1.556231141090393,0,0,0.611519992351532
0.097393376,0,0,1.6543933153152466,0,0,0.8408399820327759
0.098395325,0,0,1.599326729774475,0,0,0.611519992351532
0.09939246,0,0,1.5514427423477173,0,0,0.7644000053405762
0.100393447,0,0,1.4915876388549805,0,0,1.070159912109375
0.101393711,0,0,1.45806884765625,0,0,0.8408399820327759
0.102395494,0,0,1.3886369466781616,0,0,0.8408399820327759
0.103392592,0,0,1.5298948287963867,0,0,0.8408399820327759
0.104394097,0,0,1.5083470344543457,0,0,0.7644000053405762
0.105394583,0,0,1.381454348564148,0,0,1.070159912109375
0.106396884,0,0,1.4317326545715332,0,0,0.7644000053405762
0.107392667,0,0,1.460463047027588,0,0,0.6879600286483765
0.108394191,0,0,1.5203180313110352,0,0,0.9937199950218201
0.109393289,0,0,1.5490485429763794,0,0,0.4586400091648102
0.110395608,0,0,1.482010841369629,0,0,0.9172800183296204
0.111392465,0,0,1.45806884765625,0,0,0.9172800183296204
0.112393711,0,0,1.5179238319396973,0,0,0.611519992351532
0.113395476,0,0,1.434126853942871,0,0,0.7644000053405762
0.114780142,0,0,1.434126853942871,0,0,0.8408399820327759
0.11542143,0,0,1.4460978507995605,0,0,0.7644000053405762
0.116396546,0,0,1.4484920501708984,0,0,1.070159912109375
0.117395607,0,0,1.4891934394836426,0,0,0.9172800183296204
0.118396945,0,0,1.5849615335464478,0,0,0.8408399820327759
0.119392488,0,0,1.656787633895874,0,0,0.8408399820327759
0.120393326,0,0,1.7070658206939697,0,0,1.070159912109375
0.121392627,0,0,1.5753847360610962,0,0,1.070159912109375
0.122394484,0,0,1.558625340461731,0,0,1.070159912109375
0.123392008,0,0,1.6376339197158813,0,0,0.8408399820327759
0.12439318,0,0,1.5466543436050415,0,0,0.7644000053405762
0.125393092,0,0,1.4221558570861816,0,0,1.070159912109375
0.126394467,0,0,1.4197616577148438,0,0,0.9172800183296204
0.127392232,0,0,1.4293384552001953,0,0,0.9172800183296204
0.128393404,0,0,1.41257905960083,0,0,0.7644000053405762
0.129432334,0,0,1.455674648284912,0,0,0.7644000053405762
0.130397358,0,0,1.5538369417190552,0,0,0.5350799560546875
0.131475732,0,0,1.5538369417190552,0,0,0.7644000053405762
0.13239359,0,0,1.5418659448623657,0,0,0.611519992351532
0.13340791,0,0,1.580173134803772,0,0,0.9172800183296204
0.134479377,0,0,1.4939818382263184,0,0,1.070159912109375
0.135473364,0,0,1.4101848602294922,0,0,0.611519992351532
0.136473684,0,0,1.359906554222107,0,0,1.1466000080108643
0.137475115,0,0,1.3694833517074585,0,0,0.9172800183296204
0.138476249,0,0,1.37906014919281,0,0,0.6879600286483765
0.139472551,0,0,1.4939818382263184,0,0,0.9172800183296204
0.140474204,0,0,1.45806884765625,0,0,0.8408399820327759
0.141473376,0,0,1.4724340438842773,0,0,0.3822000026702881
0.142475807,0,0,1.53707754611969,0,0,1.223039984703064
0.143472627,0,0,1.5514427423477173,0,0,0.4586400091648102
0.14463037,0,0,1.50355863571167,0,0,0.9172800183296204
0.145493396,0,0,1.5729905366897583,0,0,0.9172800183296204
0.146477568,0,0,1.455674648284912,0,0,0.7644000053405762
0.147482332,0,0,1.4317326545715332,0,0,0.9172800183296204
0.148474356,0,0,1.414973258972168,0,0,0.6879600286483765
0.149474509,0,0,1.3646949529647827,0,0,0.7644000053405762
0.150477977,0,0,1.4293384552001953,0,0,1.1466000080108643
0.151473408,0,0,1.50355863571167,0,0,0.8408399820327759
0.152473635,0,0,1.6041151285171509,0,0,0.6879600286483765
0.153473677,0,0,1.5155296325683594,0,0,0.9937199950218201
0.154476201,0,0,1.5203180313110352,0,0,0.4586400091648102
0.155472817,0,0,1.558625340461731,0,0,0.6879600286483765
0.156474452,0,0,1.5203180313110352,0,0,1.1466000080108643
0.157473624,0,0,1.482010841369629,0,0,0.7644000053405762
0.158476018,0,0,1.4724340438842773,0,0,1.1466000080108643
0.159664798,0,0,1.4724340438842773,0,0,0.8408399820327759
0.160478009,0,0,1.4101848602294922,0,0,0.9937199950218201
0.161474385,0,0,1.403002142906189,0,0,0.9937199950218201
0.162477834,0,0,1.414973258972168,0,0,0.8408399820327759
0.163472543,0,0,1.6041151285171509,0,0,0.7644000053405762
0.164693064,0,0,1.6041151285171509,0,0,1.070159912109375
0.165489368,0,0,1.6328455209732056,0,0,0.4586400091648102
0.166495928,0,0,1.5322890281677246,0,0,0.8408399820327759
0.167473471,0,0,1.6112977266311646,0,0,1.223039984703064
0.168469179,0,0,1.53707754611969,0,0,0.6879600286483765
0.169468592,0,0,1.381454348564148,0,0,1.070159912109375
0.17046819,0,0,1.5705963373184204,0,0,0.7644000053405762
0.171469213,0,0,1.4389152526855469,0,0,0.9937199950218201
0.172467607,0,0,1.403002142906189,0,0,0.8408399820327759
0.173467557,0,0,1.3910311460494995,0,0,0.7644000053405762
0.174470358,0,0,1.482010841369629,0,0,0.6879600286483765
0.175468956,0,0,1.5514427423477173,0,0,0.6879600286483765
0.176468331,0,0,1.5322890281677246,0,0,0.9937199950218201
0.177469707,0,0,1.5059528350830078,0,0,0.6879600286483765
0.178473563,0,0,1.5322890281677246,0,0,0.9937199950218201
0.179477087,0,0,1.5083470344543457,0,0,0.8408399820327759
0.180475925,0,0,1.4101848602294922,0,0,0.8408399820327759
0.181475893,0,0,1.482010841369629,0,0,0.9172800183296204
0.182477658,0,0,1.4724340438842773,0,0,0.8408399820327759
0.183476163,0,0,1.4652514457702637,0,0,0.611519992351532
0.184475575,0,0,1.5298948287963867,0,0,0.611519992351532
0.185475006,0,0,1.53707754611969,0,0,0.7644000053405762
0.18647753,0,0,1.5705963373184204,0,0,0.9172800183296204
0.187464591,0,0,1.5394717454910278,0,0,0.7644000053405762
0.188467337,0,0,1.558625340461731,0,0,0.9937199950218201
0.189467749,0,0,1.6112977266311646,0,0,1.070159912109375
0.190472013,0,0,1.6759412288665771,0,0,0.8408399820327759
0.19147537,0,0,1.4915876388549805,0,0,0.9172800183296204
0.192474542,0,0,1.5059528350830078,0,0,1.070159912109375
0.19347564,0,0,1.4221558570861816,0,0,0.9937199950218201
0.194476311,0,0,1.3958195447921753,0,0,0.6879600286483765
0.195499816,0,0,1.3215993642807007,0,0,0.611519992351532
0.196480099,0,0,1.4293384552001953,0,0,0.6879600286483765
0.197476438,0,0,1.5897499322891235,0,0,0.611519992351532
0.198477072,0,0,1.5897499322891235,0,0,0.9937199950218201
0.199473781,0,0,1.6304513216018677,0,0,0.6879600286483765
0.200475564,0,0,1.5418659448623657,0,0,1.070159912109375
0.201474013,0,0,1.501164436340332,0,0,0.9172800183296204
0.202477481,0,0,1.4293384552001953,0,0,0.611519992351532
0.203473727,0,0,1.4460978507995605,0,0,1.070159912109375
0.204475399,0,0,1.479616641998291,0,0,0.8408399820327759
0.205475052,0,0,1.314416766166687,0,0,0.8408399820327759
0.206477502,0,0,1.3431471586227417,0,0,0.8408399820327759
0.207473766,0,0,1.4652514457702637,0,0,0.6879600286483765
0.208474734,0,0,1.601720929145813,0,0,0.8408399820327759
0.209474221,0,0,1.5873557329177856,0,0,0.9937199950218201
0.210477485,0,0,1.601720929145813,0,0,0.8408399820327759
0.211500138,0,0,1.5969325304031372,0,0,0.9937199950218201
0.212477347,0,0,1.5658079385757446,0,0,0.9172800183296204
0.21347513,0,0,1.4221558570861816,0,0,0.9172800183296204
0.214477005,0,0,1.434126853942871,0,0,1.1466000080108643
0.215473825,0,0,1.4532804489135742,0,0,0.7644000053405762
0.21647496,0,0,1.3982137441635132,0,0,1.070159912109375
0.217475854,0,0,1.4173674583435059,0,0,0.9937199950218201
0.218477026,0,0,1.3766659498214722,0,0,0.8408399820327759
0.219474864,0,0,1.558625340461731,0,0,0.4586400091648102
0.220474962,0,0,1.5298948287963867,0,0,1.1466000080108643
0.221474967,0,0,1.5442601442337036,0,0,0.4586400091648102
0.222476713,0,0,1.5394717454910278,0,0,0.7644000053405762
0.223469273,0,0,1.599326729774475,0,0,0.9172800183296204
0.224482149,0,0,1.4173674583435059,0,0,1.1466000080108643
0.226955578,0,0,1.4173674583435059,0,0,0.7644000053405762
0.227350036,0,0,1.3646949529647827,0,0,0.8408399820327759
0.227744197,0,0,1.3646949529647827,0,0,0.7644000053405762
0.228478021,0,0,1.4437036514282227,0,0,0.9172800183296204
0.229476433,0,0,1.4652514457702637,0,0,0.5350799560546875
0.230478142,0,0,1.4173674583435059,0,0,0.6879600286483765
0.231575183,0,0,1.4748282432556152,0,0,0.8408399820327759
0.232475782,0,0,1.5682021379470825,0,0,0.4586400091648102
0.233475194,0,0,1.4748282432556152,0,0,1.1466000080108643
0.234433459,0,0,1.5466543436050415,0,0,1.1466000080108643
0.235428761,0,0,1.436521053314209,0,0,0.6879600286483765
0.236429525,0,0,1.3838485479354858,0,0,0.8408399820327759
0.237428826,0,0,1.558625340461731,0,0,0.5350799560546875
0.238431572,0,0,1.460463047027588,0,0,1.070159912109375
0.239428151,0,0,1.4915876388549805,0,0,0.7644000053405762
0.240429379,0,0,1.4867992401123047,0,0,1.070159912109375
0.241429773,0,0,1.5514427423477173,0,0,0.7644000053405762
0.242431296,0,0,1.6519991159439087,0,0,0.7644000053405762
0.243428264,0,0,1.6711528301239014,0,0,0.2293200045824051
0.244428566,0,0,1.6424223184585571,0,0,0.9172800183296204
0.245430052,0,0,1.6112977266311646,0,0,0.9172800183296204
0.246431335,0,0,1.482010841369629,0,0,0.7644000053405762
0.247429247,0,0,1.290474772453308,0,0,0.8408399820327759
0.248430049,0,0,1.4628572463989258,0,0,1.070159912109375
0.249429443,0,0,1.4700398445129395,0,0,0.6879600286483765
0.250431207,0,0,1.4413094520568848,0,0,1.1466000080108643
0.251428379,0,0,1.4844050407409668,0,0,0.9172800183296204
0.252429551,0,0,1.5490485429763794,0,0,0.8408399820327759
0.253429648,0,0,1.5682021379470825,0,0,0.6879600286483765
0.254431431,0,0,1.501164436340332,0,0,0.6879600286483765
0.255428455,0,0,1.580173134803772,0,0,0.8408399820327759
0.256429812,0,0,1.5466543436050415,0,0,0.6879600286483765
0.257487223,0,0,1.4891934394836426,0,0,0.611519992351532
0.258433581,0,0,1.455674648284912,0,0,0.9172800183296204
0.259428419,0,0,1.4772224426269531,0,0,0.8408399820327759
0.260429887,0,0,1.4628572463989258,0,0,0.6879600286483765
0.261429689,0,0,1.4173674583435059,0,0,0.7644000053405762
0.262431138,0,0,1.403002142906189,0,0,0.6879600286483765
0.26342818,0,0,1.455674648284912,0,0,0.8408399820327759
0.264429815,0,0,1.5658079385757446,0,0,0.6879600286483765
0.265429931,0,0,1.5131354331970215,0,0,0.9172800183296204
0.266435473,0,0,1.2521674633026123,0,0,0.5350799560546875
0.267432201,0,0,1.1779472827911377,0,0,0.305759996175766
0.268429965,0,0,1.4221558570861816,0,0,0.5350799560546875
0.269430007,0,0,1.678335428237915,0,0,0.7644000053405762
0.270432383,0,0,1.8339585065841675,0,0,0.7644000053405762
0.27142974,0,0,1.3694833517074585,0,0,1.1466000080108643
0.272429708,0,0,0.2944868206977844,0,0,0.3822000026702881
0.273429639,0,0,0.3471592366695404,0,0,0
0.274431755,0,0,0.912190854549408,0,0,9.478560447692871
0.275428575,0,0,1.525106430053711,0,0,0.0764399990439415
0.276429358,0,0,1.5275006294250488,0,0,0.611519992351532
0.277429863,0,0,1.316810965538025,0,0,0.3822000026702881
0.278431331,0,0,1.170764684677124,0,0,0.7644000053405762
0.279428521,0,0,0.9074024558067322,0,0,0.5350799560546875
0.280428304,0,0,0.7589619159698486,0,0,0.9172800183296204
0.28142955,0,0,0.9433154463768005,0,0,1.070159912109375
0.282430999,0,0,1.0534487962722778,0,0,0.305759996175766
0.283428393,0,0,1.625662922859192,0,0,0.5350799560546875
0.284429694,0,0,1.7405846118927002,0,0,1.6816799640655518
0.285429459,0,0,1.6663644313812256,0,0,0.5350799560546875
0.286429742,0,0,1.721431016921997,0,0,1.452359914779663
0.287428784,0,0,1.359906554222107,0,0,0.7644000053405762
0.288429233,0,0,1.4724340438842773,0,0,0.6879600286483765
0.289430146,0,0,1.3287819623947144,0,0,0.611519992351532
0.290431688,0,0,1.4221558570861816,0,0,0.3822000026702881
0.291429397,0,0,1.3239935636520386,0,0,0.5350799560546875
0.292429772,0,0,1.1444283723831177,0,0,0.3822000026702881
0.293430166,0,0,1.37906014919281,0,0,0.611519992351532
0.294431486,0,0,1.0438719987869263,0,0,0.5350799560546875
0.295428269,0,0,0.7829039692878723,0,0,0.4586400091648102
0.296429774,0,0,0.933738648891449,0,0,0.6879600286483765
0.29743002,0,0,1.2330138683319092,0,0,0.0764399990439415
0.29843171,0,0,1.259350061416626,0,0,0.7644000053405762
0.299427974,0,0,1.3072341680526733,0,0,0.3822000026702881
0.300429461,0,0,1.194706678390503,0,0,0.611519992351532
0.301430003,0,0,1.335964560508728,0,0,0.8408399820327759
0.302431026,0,0,1.3000515699386597,0,0,0.611519992351532
0.303428532,0,0,1.2976573705673218,0,0,0.7644000053405762
0.304429444,0,0,1.3072341680526733,0,0,0.8408399820327759
0.305429912,0,0,1.3048399686813354,0,0,0.7644000053405762
0.30643275,0,0,1.357512354850769,0,0,1.070159912109375
0.307427459,0,0,1.403002142906189,0,0,0.6879600286483765
0.308429501,0,0,1.3192051649093628,0,0,0.6879600286483765
0.309428506,0,0,1.4293384552001953,0,0,0.9172800183296204
0.310431715,0,0,1.5610195398330688,0,0,0.611519992351532
0.31142822,0,0,1.4724340438842773,0,0,0.6879600286483765
0.312429948,0,0,1.4772224426269531,0,0,0.5350799560546875
0.313430082,0,0,1.4053963422775269,0,0,0.5350799560546875
0.314431921,0,0,1.2449848651885986,0,0,0.4586400091648102
0.315428629,0,0,1.2952631711959839,0,0,0.611519992351532
0.316429931,0,0,1.2641384601593018,0,0,0.6879600286483765
0.317430103,0,0,1.158793568611145,0,0,0.4586400091648102
0.318431515,0,0,1.1540051698684692,0,0,0.4586400091648102
0.319428131,0,0,1.1635819673538208,0,0,0.305759996175766
0.320430358,0,0,1.2018892765045166,0,0,0.611519992351532
0.321429938,0,0,1.213860273361206,0,0,0.3822000026702881
0.322430498,0,0,1.0989385843276978,0,0,0.4586400091648102
0.323428892,0,0,1.1851298809051514,0,0,0.8408399820327759
0.324430082,0,0,1.3072341680526733,0,0,0.5350799560546875
0.325429513,0,0,1.2210428714752197,0,0,0.611519992351532
0.326431741,0,0,1.3886369466781616,0,0,1.1466000080108643
0.32742745,0,0,1.460463047027588,0,0,0.9172800183296204
0.328429584,0,0,1.5825673341751099,0,0,0.8408399820327759
0.329429478,0,0,1.6328455209732056,0,0,0.9937199950218201
0.330431224,0,0,1.6184803247451782,0,0,0.9172800183296204
0.33142747,0,0,1.5682021379470825,0,0,0.9172800183296204
0.332452715,0,0,1.3503297567367554,0,0,0.6879600286483765
0.33343135,0,0,1.316810965538025,0,0,0.3822000026702881
0.334431115,0,0,1.3120225667953491,0,0,0.3822000026702881
0.335429638,0,0,1.256955862045288,0,0,0.2293200045824051
0.336429366,0,0,1.0582371950149536,0,0,0.152879998087883
0.337429463,0,0,1.0055646896362305,0,0,0.5350799560546875
0.338431616,0,0,0.9983820915222168,0,0,0.152879998087883
0.33942814,0,0,0.9768342971801758,0,0,0.4586400091648102
0.340429812,0,0,1.0271124839782715,0,0,0.5350799560546875
0.341429669,0,0,1.1180921792984009,0,0,0.6879600286483765
0.342431155,0,0,1.2689268589019775,0,0,0.5350799560546875
0.343428475,0,0,1.3311761617660522,0,0,0.9172800183296204
0.34443011,0,0,1.525106430053711,0,0,0.6879600286483765
0.345428652,0,0,1.4437036514282227,0,0,0.7644000053405762
0.34643149,0,0,1.4101848602294922,0,0,0.6879600286483765
0.347428736,0,0,1.216254472732544,0,0,0.5350799560546875
0.348429408,0,0,1.237802267074585,0,0,0.3822000026702881
0.34942932,0,0,1.3407529592514038,0,0,0.6879600286483765
0.350431085,0,0,1.3670891523361206,0,0,0.3822000026702881
0.351428164,0,0,1.3694833517074585,0,0,0.9937199950218201
0.352428725,0,0,1.2856862545013428,0,0,0.9172800183296204
0.353431211,0,0,1.335964560508728,0,0,0.611519992351532
0.354431549,0,0,1.3694833517074585,0,0,1.2994799613952637
0.355428777,0,0,1.3742717504501343,0,0,0.611519992351532
0.356429652,0,0,1.3646949529647827,0,0,0.611519992351532
0.357430194,0,0,1.2880805730819702,0,0,0.8408399820327759
0.358431755,0,0,1.3000515699386597,0,0,0.5350799560546875
0.359428093,0,0,1.1994950771331787,0,0,0.305759996175766
0.360429598,0,0,1.2665326595306396,0,0,0.611519992351532
0.361429641,0,0,1.2665326595306396,0,0,0.7644000053405762
0.362430812,0,0,1.455674648284912,0,0,0.9172800183296204
0.363428873,0,0,1.501164436340332,0,0,0.8408399820327759
0.364436915,0,0,1.5083470344543457,0,0,0.9172800183296204
0.365447661,0,0,1.4173674583435059,0,0,1.070159912109375
0.366436036,0,0,1.2473790645599365,0,0,0.305759996175766
0.36743043,0,0,1.0989385843276978,0,0,0.305759996175766
0.368429972,0,0,1.1061211824417114,0,0,0.611519992351532
0.369430051,0,0,1.1516109704971313,0,0,0.305759996175766
0.370430131,0,0,1.338358759880066,0,0,0.2293200045824051
0.371447173,0,0,1.5897499322891235,0,0,0.6879600286483765
0.372431141,0,0,1.6903064250946045,0,0,1.1466000080108643
0.373429313,0,0,1.6855180263519287,0,0,1.452359914779663
0.37443004,0,0,1.5298948287963867,0,0,1.223039984703064
0.37542936,0,0,1.256955862045288,0,0,1.1466000080108643
0.376429865,0,0,0.9864110946655273,0,0,1.070159912109375
0.377429574,0,0,0.811634361743927,0,0,-0.2293200045824051
0.378429968,0,0,0.7733271718025208,0,0,0
0.379429973,0,0,1.091755986213684,0,0,-0.2293200045824051
0.380429607,0,0,1.381454348564148,0,0,-0.305759996175766
0.381429557,0,0,1.4317326545715332,0,0,0.4586400091648102
0.382431599,0,0,1.577778935432434,0,0,0.611519992351532
0.383429252,0,0,1.2952631711959839,0,0,1.223039984703064
0.384429739,0,0,0.7541735172271729,0,0,0.8408399820327759
0.385429244,0,0,0.5051765441894531,0,0,0.4586400091648102
0.386463989,0,0,0.5602431893348694,0,0,0.3822000026702881
0.387432532,0,0,0.9816226959228516,0,0,0.0764399990439415
0.388430352,0,0,1.4915876388549805,0,0,0.3822000026702881
0.389430486,0,0,1.922544002532959,0,0,0.7644000053405762
0.390432621,0,0,2.1954829692840576,0,0,1.375920057296753
0.391430459,0,0,2.145204782485962,0,0,1.223039984703064
0.392430094,0,0,1.5418659448623657,0,0,1.6816799640655518
0.393429988,0,0,1.1300631761550903,0,0,1.5288000106811523
0.394431382,0,0,0.7158663272857666,0,0,0.5350799560546875
0.395428091,0,0,0.8810662031173706,0,0,0.4586400091648102
0.396429374,0,0,1.50355863571167,0,0,0.0764399990439415
0.397429953,0,0,1.9632453918457031,0,0,0.305759996175766
0.398431754,0,0,1.968033790588379,0,0,0.6879600286483765
0.399428944,0,0,1.5658079385757446,0,0,0.8408399820327759
0.400430616,0,0,1.0630255937576294,0,0,0.3822000026702881
0.40142988,0,0,0.751779317855835,0,0,0.8408399820327759
0.402431311,0,0,0.7086837291717529,0,0,0.5350799560546875
0.403428835,0,0,0.9313444495201111,0,0,0.152879998087883
0.404430303,0,0,1.5538369417190552,0,0,0.6879600286483765
0.40543053,0,0,1.7956513166427612,0,0,0.8408399820327759
0.406432091,0,0,1.647210717201233,0,0,0.9937199950218201
0.407428948,0,0,1.2042834758758545,0,0,0.9937199950218201
0.408430157,0,0,0.8834604024887085,0,0,0.8408399820327759
0.409429847,0,0,0.7805097699165344,0,0,0.152879998087883
0.410431148,0,0,1.2018892765045166,0,0,0.2293200045824051
0.411428635,0,0,1.625662922859192,0,0,-0.152879998087883
0.412430325,0,0,1.7477672100067139,0,0,0.2293200045824051
0.413429904,0,0,1.50355863571167,0,0,0.7644000053405762
0.414431428,0,0,1.0438719987869263,0,0,0.7644000053405762
0.415428433,0,0,0.6248866319656372,0,0,0.5350799560546875
0.416430031,0,0,0.5291185975074768,0,0,0.152879998087883
0.417429221,0,0,0.7038952708244324,0,0,0.3822000026702881
0.418432041,0,0,1.1204863786697388,0,0,0.4586400091648102
0.419428657,0,0,1.558625340461731,0,0,0.4586400091648102
0.42042994,0,0,1.7166426181793213,0,0,0.9172800183296204
0.421429686,0,0,1.525106430053711,0,0,1.2994799613952637
0.422431635,0,0,1.6328455209732056,0,0,0.9937199950218201
0.423428492,0,0,1.8722656965255737,0,0,1.2994799613952637
0.424430201,0,0,1.9297266006469727,0,0,1.605239987373352
0.425430521,0,0,1.6831238269805908,0,0,1.070159912109375
0.426431637,0,0,1.4963760375976563,0,0,0.9172800183296204
0.427428846,0,0,1.3910311460494995,0,0,0.611519992351532
0.428430314,0,0,1.2282254695892334,0,0,0.0764399990439415
0.429429652,0,0,1.460463047027588,0,0,0.4586400091648102
0.430430639,0,0,1.6735470294952393,0,0,0.7644000053405762
0.431429125,0,0,1.556231141090393,0,0,0.305759996175766
0.432453611,0,0,1.1803414821624756,0,0,0.4586400091648102
0.433431765,0,0,0.8834604024887085,0,0,0.4586400091648102
0.434432381,0,0,0.6033388376235962,0,0,0
0.435442127,0,0,0.8643068075180054,0,0,0
0.436431651,0,0,1.2066776752471924,0,0,0.3822000026702881
0.4374296,0,0,1.2090718746185303,0,0,0.152879998087883
0.43843192,0,0,1.072602391242981,0,0,0.6879600286483765
0.439428184,0,0,0.7781155705451965,0,0,0.5350799560546875
0.440430597,0,0,0.9720458984375,0,0,0.4586400091648102
0.441430417,0,0,1.213860273361206,0,0,0.8408399820327759
0.442431829,0,0,1.6663644313812256,0,0,0.611519992351532
0.443429501,0,0,1.6376339197158813,0,0,1.223039984703064
0.444432895,0,0,1.434126853942871,0,0,1.2994799613952637
0.4454319,0,0,1.7836803197860718,0,0,0.8408399820327759
0.446432498,0,0,2.0231003761291504,0,0,1.452359914779663
0.447422318,0,0,1.9560627937316895,0,0,1.1466000080108643
0.44842423,0,0,1.5610195398330688,0,0,1.070159912109375
0.449423587,0,0,1.1827356815338135,0,0,0.9172800183296204
0.450433722,0,0,1.091755986213684,0,0,0.2293200045824051
0.451432301,0,0,1.4437036514282227,0,0,0
0.452430084,0,0,1.6041151285171509,0,0,0.6879600286483765
0.4534292,0,0,1.702277421951294,0,0,0.3822000026702881
0.454449205,0,0,0.8930372595787048,0,0,0.152879998087883
0.45892883,0,0,0.4644751250743866,0,0,-0.152879998087883
0.460853026,0,0,0.4644751250743866,0,0,0.152879998087883
0.461209114,0,0,0.4644751250743866,0,0,-0.3822000026702881
0.461562128,0,0,0.912190854549408,0,0,9.631440162658691
0.461915252,0,0,0.912190854549408,0,0,0.2293200045824051
0.462267322,0,0,0.912190854549408,0,0,0.4586400091648102
0.462619187,0,0,1.278503656387329,0,0,0.9172800183296204
0.462971794,0,0,1.278503656387329,0,0,0.611519992351532
0.463435658,0,0,1.6376339197158813,0,0,0.4586400091648102
0.464430811,0,0,1.6855180263519287,0,0,1.5288000106811523
0.46543052,0,0,1.4484920501708984,0,0,1.375920057296753
0.466432266,0,0,1.843535304069519,0,0,0.9937199950218201
0.467432493,0,0,1.9536685943603516,0,0,2.06387996673584
0.468429794,0,0,1.9704279899597168,0,0,1.1466000080108643
0.469429392,0,0,1.7477672100067139,0,0,1.6816799640655518
0.470430249,0,0,1.2066776752471924,0,0,0.7644000053405762
0.471429291,0,0,1.5897499322891235,0,0,0.2293200045824051
0.472428074,0,0,1.6352397203445435,0,0,0.4586400091648102
0.473428042,0,0,1.702277421951294,0,0,0.0764399990439415
0.474448417,0,0,1.3407529592514038,0,0,1.070159912109375
0.4754892,0,0,0.7613561153411865,0,0,0
0.476485982,0,0,0.9959878921508789,0,0,-29.582279205322266
0.477474043,0,0,0.7374141216278076,0,0,0.3822000026702881
0.478444919,0,0,0.6344634294509888,0,0,-0.3822000026702881
0.479437776,0,0,0.5626373887062073,0,0,0
0.480443263,0,0,0.4381389021873474,0,0,0
0.481434786,0,0,0.8738836050033569,0,0,0
0.482453532,0,0,1.6711528301239014,0,0,0.9172800183296204
0.483432648,0,0,1.821987509727478,0,0,1.5288000106811523
0.484431413,0,0,1.501164436340332,0,0,1.070159912109375
0.485431232,0,0,1.6711528301239014,0,0,2.06387996673584
0.486432052,0,0,1.359906554222107,0,0,1.5288000106811523
0.487424372,0,0,1.824381709098816,0,0,1.1466000080108643
0.488423822,0,0,1.4053963422775269,0,0,1.375920057296753
0.489423771,0,0,1.8171991109848022,0,0,0.611519992351532
0.490447702,0,0,1.8483237028121948,0,0,0.6879600286483765
0.4914338,0,0,1.7980455160140991,0,0,0.611519992351532
0.492430712,0,0,1.6831238269805908,0,0,0.9172800183296204
0.493430069,0,0,1.1061211824417114,0,0,0.4586400091648102
0.494432186,0,0,1.0845733880996704,0,0,0.152879998087883
0.49543095,0,0,0.6823474764823914,0,0,0.8408399820327759
0.496430566,0,0,0.3519476354122162,0,0,0
0.497429479,0,0,0.47165772318840027,0,0,-29.582279205322266
0.498431854,0,0,0.7661445140838623,0,0,0.0764399990439415
0.499458081,0,0,1.4293384552001953,0,0,-0.3822000026702881
0.500431772,0,0,1.6903064250946045,0,0,1.070159912109375
0.501430443,0,0,1.723825216293335,0,0,0.5350799560546875
0.502432096,0,0,1.9584569931030273,0,0,1.605239987373352
0.503428787,0,0,1.5298948287963867,0,0,1.223039984703064
0.50443031,0,0,1.381454348564148,0,0,1.2994799613952637
0.505430445,0,0,1.0893617868423462,0,0,1.1466000080108643
0.50643195,0,0,1.213860273361206,0,0,0.7644000053405762
0.507428937,0,0,1.5945383310317993,0,0,0.9937199950218201
0.508430331,0,0,1.580173134803772,0,0,0.9937199950218201
0.509430169,0,0,1.5873557329177856,0,0,0.6879600286483765
0.510431785,0,0,1.460463047027588,0,0,0.6879600286483765
0.511430383,0,0,1.161187767982483,0,0,-9.784319877624512
0.512429184,0,0,0.7924807667732239,0,0,0.0764399990439415
0.513487966,0,0,0.6368576288223267,0,0,0.152879998087883
0.514435861,0,0,0.7541735172271729,0,0,0
0.515428033,0,0,1.039083480834961,0,0,0.152879998087883
0.516429779,0,0,1.213860273361206,0,0,0.7644000053405762
0.517430617,0,0,1.37906014919281,0,0,1.1466000080108643
0.518431863,0,0,1.7262194156646729,0,0,1.452359914779663
0.519422146,0,0,1.5322890281677246,0,0,1.375920057296753
0.520423873,0,0,1.3000515699386597,0,0,1.1466000080108643
0.521423693,0,0,1.0247182846069336,0,0,0.6879600286483765
0.522428217,0,0,1.556231141090393,0,0,0.7644000053405762
0.523430536,0,0,2.0925323963165283,0,0,0.6879600286483765
0.524429393,0,0,2.2409727573394775,0,0,0.5350799560546875
0.525429195,0,0,2.1356279850006104,0,0,0.3822000026702881
0.526431052,0,0,1.5873557329177856,0,0,1.070159912109375
0.527436686,0,0,0.8882488012313843,0,0,0.611519992351532
0.528447191,0,0,0.47884035110473633,0,0,0.0764399990439415
0.529447159,0,0,0.2992752194404602,0,0,0.305759996175766
0.530434461,0,0,0.5961562395095825,0,0,-0.305759996175766
0.531428947,0,0,1.0127472877502441,0,0,0.0764399990439415
0.532429712,0,0,1.3000515699386597,0,0,0.3822000026702881
0.533427976,0,0,1.946485996246338,0,0,1.2994799613952637
0.534431907,0,0,1.6496049165725708,0,0,1.5288000106811523
0.535428208,0,0,1.3431471586227417,0,0,1.2994799613952637
0.536429121,0,0,1.2018892765045166,0,0,1.070159912109375
0.537429348,0,0,1.2737152576446533,0,0,0.8408399820327759
0.538430668,0,0,1.5466543436050415,0,0,0.9172800183296204
0.53942784,0,0,1.6879122257232666,0,0,0.0764399990439415
0.540429086,0,0,1.6639702320098877,0,0,0.305759996175766
0.541427943,0,0,1.5107412338256836,0,0,0.9172800183296204
0.54243104,0,0,0.7972691655158997,0,0,0.5350799560546875
0.543433045,0,0,0.6392518281936646,0,0,0.3822000026702881
0.544465735,0,0,1.05105459690094,0,0,0
0.545434241,0,0,1.139639973640442,0,0,0.4586400091648102
0.546456912,0,0,1.170764684677124,0,0,0.6879600286483765
0.547431973,0,0,1.522712230682373,0,0,0.611519992351532
0.548430978,0,0,1.3886369466781616,0,0,1.375920057296753
0.549430557,0,0,1.3455413579940796,0,0,1.5288000106811523
0.550430747,0,0,1.1444283723831177,0,0,0.7644000053405762
0.551424216,0,0,1.4891934394836426,0,0,0.9172800183296204
0.552424535,0,0,1.8052281141281128,0,0,0.8408399820327759
0.553424448,0,0,1.6831238269805908,0,0,0.5350799560546875
0.554456138,0,0,1.6950948238372803,0,0,0.2293200045824051
0.555431402,0,0,1.6711528301239014,0,0,1.1466000080108643
0.556429648,0,0,0.8954314589500427,0,0,0.4586400091648102
0.55742969,0,0,0.646434485912323,0,0,0
0.558429158,0,0,0.9528923034667969,0,0,0.2293200045824051
0.559429293,0,0,0.9744400978088379,0,0,0.5350799560546875
0.56042928,0,0,1.2018892765045166,0,0,0.4586400091648102
0.56142897,0,0,1.4652514457702637,0,0,0.6879600286483765
0.562431253,0,0,1.3215993642807007,0,0,0.7644000053405762
0.563429499,0,0,1.1683704853057861,0,0,0.9172800183296204
0.564432059,0,0,1.113303780555725,0,0,0.5350799560546875
0.565431879,0,0,1.5083470344543457,0,0,0.152879998087883
0.566454569,0,0,1.845929503440857,0,0,1.2994799613952637
0.567436556,0,0,1.3623007535934448,0,0,0
0.568430765,0,0,1.6735470294952393,0,0,0.3822000026702881
0.569431122,0,0,1.2186486721038818,0,0,1.070159912109375
0.570430849,0,0,0.9959878921508789,0,0,0
0.571424521,0,0,1.3862427473068237,0,0,0.4586400091648102
0.572423711,0,0,1.0079588890075684,0,0,1.223039984703064
0.573423309,0,0,1.091755986213684,0,0,0.8408399820327759
0.57445361,0,0,1.479616641998291,0,0,0.6879600286483765
0.575434763,0,0,1.3646949529647827,0,0,0.9172800183296204
0.576430953,0,0,1.5322890281677246,0,0,0.9937199950218201
0.577430495,0,0,1.5682021379470825,0,0,0.7644000053405762
0.578431056,0,0,1.5634137392044067,0,0,0.4586400091648102
0.579424061,0,0,1.6615760326385498,0,0,0.8408399820327759
0.580423937,0,0,1.2234370708465576,0,0,0.305759996175766
0.581423534,0,0,1.3982137441635132,0,0,0
0.582443039,0,0,0.8355764150619507,0,0,0.7644000053405762
0.583431785,0,0,0.7015010714530945,0,0,0.152879998087883
0.58442842,0,0,1.256955862045288,0,0,0.0764399990439415
0.585429092,0,0,1.357512354850769,0,0,1.452359914779663
0.586429874,0,0,1.4173674583435059,0,0,0.8408399820327759
0.587443416,0,0,1.625662922859192,0,0,1.2994799613952637
0.588436829,0,0,1.036689281463623,0,0,1.9109998941421509
0.589430149,0,0,0.768538773059845,0,0,0.305759996175766
0.590432006,0,0,1.314416766166687,0,0,-0.3822000026702881
0.591429863,0,0,1.6639702320098877,0,0,1.070159912109375
0.592429405,0,0,1.4844050407409668,0,0,-29.582279205322266
0.593430225,0,0,1.778891921043396,0,0,-0.5350799560546875
0.594430693,0,0,1.316810965538025,0,0,1.375920057296753
0.595428457,0,0,0.7613561153411865,0,0,0.7644000053405762
0.596429314,0,0,1.1803414821624756,0,0,9.631440162658691
0.597429652,0,0,1.4173674583435059,0,0,1.9874399900436401
0.598429991,0,0,1.577778935432434,0,0,0.6879600286483765
0.599428329,0,0,1.7477672100067139,0,0,1.070159912109375
0.600428742,0,0,1.455674648284912,0,0,2.2932000160217285
0.601428265,0,0,0.8212111592292786,0,0,0.0764399990439415
0.602430159,0,0,1.5298948287963867,0,0,9.631440162658691
0.603427646,0,0,1.4101848602294922,0,0,1.1466000080108643
0.604428688,0,0,1.2521674633026123,0,0,0
0.605427415,0,0,1.580173134803772,0,0,-0.5350799560546875
0.606429846,0,0,1.2449848651885986,0,0,1.5288000106811523
0.607427481,0,0,1.1540051698684692,0,0,0.305759996175766
0.608429097,0,0,1.400607943534851,0,0,0
0.609428528,0,0,1.1899182796478271,0,0,2.14031982421875
0.610431941,0,0,1.1875240802764893,0,0,0.2293200045824051
0.611428316,0,0,1.1492167711257935,0,0,1.070159912109375
0.61242884,0,0,0.6823474764823914,0,0,1.452359914779663
0.613429511,0,0,1.0031704902648926,0,0,9.096360206604004
0.614431739,0,0,1.2186486721038818,0,0,0.152879998087883
0.615427762,0,0,1.3407529592514038,0,0,0.9172800183296204
0.616429212,0,0,1.7717092037200928,0,0,-0.611519992351532
0.617429513,0,0,1.7477672100067139,0,0,0.8408399820327759
0.61843074,0,0,1.41257905960083,0,0,1.758120059967041
0.619427838,0,0,1.680729627609253,0,0,0.2293200045824051
0.620427991,0,0,1.37906014919281,0,0,2.2932000160217285
0.62142933,0,0,1.4077905416488647,0,0,1.2994799613952637
0.622430761,0,0,1.113303780555725,0,0,0.305759996175766
0.623428155,0,0,0.43095630407333374,0,0,1.5288000106811523
0.624428993,0,0,0.8667010068893433,0,0,0
0.625428739,0,0,1.3335703611373901,0,0,-0.6879600286483765
0.626430744,0,0,1.4484920501708984,0,0,0.6879600286483765
0.627427008,0,0,2.027888774871826,0,0,9.707880020141602
0.628429439,0,0,1.6543933153152466,0,0,0.4586400091648102
0.629429148,0,0,1.3000515699386597,0,0,1.5288000106811523
0.630430227,0,0,1.6519991159439087,0,0,0.2293200045824051
0.631427806,0,0,1.0007762908935547,0,0,1.223039984703064
0.632428849,0,0,1.3958195447921753,0,0,1.223039984703064
0.633429094,0,0,1.436521053314209,0,0,0.8408399820327759
0.634458006,0,0,0.524330198764801,0,0,0.7644000053405762
0.635431975,0,0,1.2066776752471924,0,0,0.305759996175766
0.636429054,0,0,1.2449848651885986,0,0,0
0.637429522,0,0,0.8858546018600464,0,0,0.152879998087883
0.638431231,0,0,1.7836803197860718,0,0,-0.305759996175766
0.639427514,0,0,1.0749965906143188,0,0,0.7644000053405762
0.64042926,0,0,1.1180921792984009,0,0,0.3822000026702881
0.641428228,0,0,1.8626888990402222,0,0,1.6816799640655518
0.642431899,0,0,1.0821791887283325,0,0,1.375920057296753
0.643428219,0,0,1.8411411046981812,0,0,0.8408399820327759
0.644448205,0,0,1.5394717454910278,0,0,2.3696401119232178
0.645430303,0,0,0.1843535304069519,0,0,1.2994799613952637
0.646431253,0,0,1.3958195447921753,0,0,0.0764399990439415
0.647427332,0,0,0.7493851184844971,0,0,1.2994799613952637
0.64842817,0,0,1.2521674633026123,0,0,-0.9937199950218201
0.649428694,0,0,2.2864625453948975,0,0,0.0764399990439415
0.650431273,0,0,1.4197616577148438,0,0,1.452359914779663
0.651427982,0,0,2.118868589401245,0,0,9.249239921569824
0.652429117,0,0,1.922544002532959,0,0,2.6754000186920166
0.653429455,0,0,0.9648633003234863,0,0,0.2293200045824051
0.654430571,0,0,1.7525556087493896,0,0,1.758120059967041
0.655427947,0,0,0.2777273952960968,0,0,1.605239987373352
0.656429267,0,0,0.35673606395721436,0,0,-0.6879600286483765
0.657428438,0,0,0.9648633003234863,0,0,0.9937199950218201
0.65843124,0,0,0.5746083855628967,0,0,8.17908000946045
0.659427486,0,0,1.8962076902389526,0,0,-1.070159912109375
0.660429305,0,0,1.4173674583435059,0,0,1.6816799640655518
0.661428792,0,0,1.5442601442337036,0,0,0
0.662430279,0,0,2.1308395862579346,0,0,1.9109998941421509
0.663427173,0,0,1.4676456451416016,0,0,0.7644000053405762
0.664662526,0,0,1.4508862495422363,0,0,2.14031982421875
0.665444923,0,0,0.5291185975074768,0,0,2.3696401119232178
0.666434539,0,0,0.26336219906806946,0,0,8.790599822998047
0.667430878,0,0,0.9457096457481384,0,0,1.452359914779663
0.668429365,0,0,1.0965443849563599,0,0,-1.9109998941421509
0.66942887,0,0,1.8938134908676147,0,0,-0.5350799560546875
0.670430412,0,0,1.920149803161621,0,0,1.452359914779663
0.671430917,0,0,2.363077163696289,0,0,-0.5350799560546875
0.672429366,0,0,2.274491548538208,0,0,2.5989599227905273
0.673429779,0,0,1.9823989868164063,0,0,1.9109998941421509
0.674430636,0,0,1.3431471586227417,0,0,2.522519826889038
0.675427678,0,0,0.24420857429504395,0,0,1.758120059967041
0.676429183,0,0,0.22266076505184174,0,0,-0.611519992351532
0.67742891,0,0,0.2106897532939911,0,0,0.7644000053405762
0.67843123,0,0,1.1827356815338135,0,0,-1.2994799613952637
0.679428198,0,0,1.7501614093780518,0,0,0
0.68042924,0,0,2.22660756111145,0,0,-0.152879998087883
0.681429264,0,0,2.940079689025879,0,0,0
0.682429769,0,0,2.5258827209472656,0,0,2.6754000186920166
0.683429237,0,0,2.3726539611816406,0,0,0.7644000053405762
0.684429131,0,0,0.8906430602073669,0,0,2.3696401119232178
0.68542884,0,0,-0.22266076505184174,0,0,0.7644000053405762
0.686431141,0,0,-0.17956513166427612,0,0,0
0.687427498,0,0,0.023942016065120697,0,0,0
0.688429003,0,0,1.235408067703247,0,0,-1.070159912109375
0.689429249,0,0,1.6879122257232666,0,0,0.9172800183296204
0.690430458,0,0,3.0526070594787598,0,0,-0.305759996175766
0.691427666,0,0,3.337517261505127,0,0,1.8345600366592407
0.692427857,0,0,3.0837318897247314,0,0,3.0576000213623047
0.693429399,0,0,2.322375535964966,0,0,2.14031982421875
0.694430385,0,0,0.44532153010368347,0,0,2.06387996673584
0.695795978,0,0,0.18914192914962769,0,0,0.2293200045824051
0.696430284,0,0,0.22505496442317963,0,0,0.152879998087883
0.697427586,0,0,0.768538773059845,0,0,-1.2994799613952637
0.69843048,0,0,1.7956513166427612,0,0,-0.7644000053405762
0.699426485,0,0,1.9536685943603516,0,0,-0.152879998087883
0.700430471,0,0,2.964021682739258,0,0,0
0.701430291,0,0,2.542642116546631,0,0,2.446079969406128
0.702429611,0,0,2.1356279850006104,0,0,1.605239987373352
0.703427061,0,0,1.0797849893569946,0,0,2.522519826889038
0.704426547,0,0,-0.31603461503982544,0,0,2.14031982421875
0.705427404,0,0,-0.08140286058187485,0,0,-0.5350799560546875
0.706428428,0,0,0.26815059781074524,0,0,-0.152879998087883
0.707425303,0,0,1.3646949529647827,0,0,-1.5288000106811523
0.708426512,0,0,1.8483237028121948,0,0,0.6879600286483765
0.709426573,0,0,2.652775526046753,0,0,0.152879998087883
0.710428207,0,0,3.0885202884674072,0,0,1.5288000106811523
0.711424898,0,0,2.4372973442077637,0,0,3.4398000240325928
0.712426514,0,0,2.3750481605529785,0,0,2.06387996673584
0.713426241,0,0,0.8188169598579407,0,0,3.3633599281311035
0.714429672,0,0,0.36152446269989014,0,0,1.1466000080108643
0.715427381,0,0,0.524330198764801,0,0,0.0764399990439415
0.716426275,0,0,0.8858546018600464,0,0,-0.4586400091648102
0.717426298,0,0,1.7812861204147339,0,0,-0.152879998087883
0.718428303,0,0,1.7597382068634033,0,0,0.3822000026702881
0.719424827,0,0,2.647987127304077,0,0,0
0.720425221,0,0,2.5546131134033203,0,0,2.2932000160217285
0.721426948,0,0,2.3774423599243164,0,0,1.5288000106811523
0.722429083,0,0,1.5610195398330688,0,0,2.446079969406128
0.723427384,0,0,0.24660277366638184,0,0,3.0576000213623047
0.724425797,0,0,0.31842881441116333,0,0,-0.2293200045824051
0.725440265,0,0,0.304063618183136,0,0,0.7644000053405762
0.726453918,0,0,1.094150185585022,0,0,-1.1466000080108643
0.727453441,0,0,1.5849615335464478,0,0,9.402119636535645
0.728431076,0,0,2.10210919380188,0,0,-0.2293200045824051
0.729439192,0,0,2.8802247047424316,0,0,1.452359914779663
0.73043679,0,0,2.360682964324951,0,0,2.5989599227905273
0.731427777,0,0,2.451662540435791,0,0,1.758120059967041
0.732426745,0,0,1.0079588890075684,0,0,3.3633599281311035
0.733426398,0,0,0.4213795065879822,0,0,1.605239987373352
0.734522217,0,0,0.6416460275650024,0,0,-0.152879998087883
0.73542813,0,0,0.5027823448181152,0,0,0
0.736427117,0,0,1.5203180313110352,0,0,-1.375920057296753
0.737472418,0,0,1.6280571222305298,0,0,0.5350799560546875
0.738474238,0,0,2.454056739807129,0,0,-0.3822000026702881
0.739472206,0,0,2.609679937362671,0,0,2.3696401119232178
0.740470692,0,0,2.477998733520508,0,0,1.5288000106811523
0.741470845,0,0,2.0925323963165283,0,0,2.06387996673584
0.742472684,0,0,0.6105214357376099,0,0,3.3633599281311035
0.743472504,0,0,0.5027823448181152,0,0,0.2293200045824051
0.744545952,0,0,0.5961562395095825,0,0,0.9937199950218201
0.745475143,0,0,0.933738648891449,0,0,-0.2293200045824051
0.746474204,0,0,1.3120225667953491,0,0,-0.5350799560546875
0.747471505,0,0,1.50355863571167,0,0,0.4586400091648102
0.748470418,0,0,2.5761611461639404,0,0,-0.152879998087883
0.749470442,0,0,2.52109432220459,0,0,2.06387996673584
0.750472317,0,0,2.8419175148010254,0,0,1.375920057296753
0.751472155,0,0,1.7836803197860718,0,0,3.210479974746704
0.752471123,0,0,0.47644615173339844,0,0,2.446079969406128
0.753471073,0,0,0.5147533416748047,0,0,0.3822000026702881
0.754473189,0,0,0.090979665517807,0,0,0.8408399820327759
0.755502546,0,0,0.9624691009521484,0,0,-1.223039984703064
0.75647257,0,0,1.2497732639312744,0,0,0
0.757471038,0,0,2.4875755310058594,0,0,-0.8408399820327759
0.758473765,0,0,2.964021682739258,0,0,0.305759996175766
0.759471844,0,0,2.9161376953125,0,0,2.2167599201202393
0.760471145,0,0,2.6815059185028076,0,0,1.1466000080108643
0.761470984,0,0,0.9744400978088379,0,0,3.3633599281311035
0.76247323,0,0,0.23702596127986908,0,0,0.9937199950218201
0.76347142,0,0,-0.0933738648891449,0,0,1.1466000080108643
0.764473703,0,0,-0.004788403399288654,0,0,-0.2293200045824051
0.765501152,0,0,1.41257905960083,0,0,-0.9172800183296204
0.766574971,0,0,1.6352397203445435,0,0,0.0764399990439415
0.767485533,0,0,2.9017724990844727,0,0,0
0.768472519,0,0,2.8155810832977295,0,0,1.9109998941421509
0.769471154,0,0,2.8993782997131348,0,0,2.06387996673584
0.770472104,0,0,2.408566951751709,0,0,2.3696401119232178
0.771471461,0,0,0.8379706144332886,0,0,3.592679977416992
0.772471169,0,0,0.689530074596405,0,0,0.3822000026702881
0.773470823,0,0,0.2753331959247589,0,0,1.070159912109375
0.774471383,0,0,0.7493851184844971,0,0,-1.1466000080108643
0.775471036,0,0,1.1300631761550903,0,0,0
0.776470875,0,0,1.6974890232086182,0,0,-0.611519992351532
0.777470787,0,0,2.6240451335906982,0,0,0.2293200045824051
0.778471644,0,0,2.142810583114624,0,0,2.2167599201202393
0.779471353,0,0,2.604891538619995,0,0,0.7644000053405762
0.780471228,0,0,1.2617442607879639,0,0,2.828279972076416
0.781470752,0,0,0.6033388376235962,0,0,1.9874399900436401
0.782474405,0,0,0.524330198764801,0,0,0.152879998087883
0.783471484,0,0,0.4405331015586853,0,0,0.4586400091648102
0.784470693,0,0,0.9816226959228516,0,0,-0.152879998087883
0.785470272,0,0,1.1779472827911377,0,0,0.9937199950218201
0.786473666,0,0,2.1045033931732178,0,0,-0.305759996175766
0.787471819,0,0,2.6623523235321045,0,0,1.375920057296753
0.788470584,0,0,2.650381326675415,0,0,1.452359914779663
0.789470904,0,0,2.5977089405059814,0,0,1.6816799640655518
0.790473909,0,0,1.0414776802062988,0,0,3.6691200733184814
0.791472229,0,0,0.9409212470054626,0,0,0.2293200045824051
0.792469956,0,0,0.706289529800415,0,0,1.6816799640655518
0.793470831,0,0,0.9457096457481384,0,0,0.7644000053405762
0.79447441,0,0,1.278503656387329,0,0,9.478560447692871
0.795471879,0,0,1.41257905960083,0,0,0.3822000026702881
0.796470958,0,0,2.2385785579681396,0,0,0.0764399990439415
0.797470611,0,0,1.9991583824157715,0,0,1.605239987373352
0.798473875,0,0,2.6455929279327393,0,0,0.9172800183296204
0.799471843,0,0,1.6160861253738403,0,0,2.446079969406128
0.800470959,0,0,0.8690952062606812,0,0,1.2994799613952637
0.801471335,0,0,0.7948749661445618,0,0,0.152879998087883
0.802474673,0,0,0.5123591423034668,0,0,1.1466000080108643
0.803471845,0,0,1.0223240852355957,0,0,-0.3822000026702881
0.804471054,0,0,1.036689281463623,0,0,0.611519992351532
0.805471577,0,0,2.1045033931732178,0,0,-0.3822000026702881
0.806473434,0,0,2.032677173614502,0,0,1.452359914779663
0.807471273,0,0,2.3774423599243164,0,0,1.2994799613952637
0.808471074,0,0,2.22660756111145,0,0,1.6816799640655518
0.809471042,0,0,0.8547300100326538,0,0,3.2869198322296143
0.810473621,0,0,0.7565677165985107,0,0,0.6879600286483765
0.811471997,0,0,0.9026140570640564,0,0,1.375920057296753
0.812470687,0,0,1.1228805780410767,0,0,0.5350799560546875
0.813470748,0,0,1.5897499322891235,0,0,-0.2293200045824051
0.814473549,0,0,1.5466543436050415,0,0,0.9172800183296204
0.815492054,0,0,2.3295583724975586,0,0,0.3822000026702881
0.816472707,0,0,2.073378562927246,0,0,1.9874399900436401
0.817470731,0,0,2.6240451335906982,0,0,0.9937199950218201
0.818474329,0,0,2.027888774871826,0,0,2.14031982421875
0.819485148,0,0,0.9026140570640564,0,0,2.2167599201202393
0.820471876,0,0,0.9600749015808105,0,0,0
0.821471122,0,0,0.569819986820221,0,0,1.758120059967041
0.822474015,0,0,1.0582371950149536,0,0,-0.6879600286483765
0.82347178,0,0,1.158793568611145,0,0,0
0.824471044,0,0,1.778891921043396,0,0,0
0.82547579,0,0,2.1739351749420166,0,0,0.2293200045824051
0.826492073,0,0,2.0159177780151367,0,0,2.2167599201202393
0.827478726,0,0,2.47560453414917,0,0,0.305759996175766
0.828469361,0,0,0.9959878921508789,0,0,3.210479974746704
0.829471625,0,0,0.7254431247711182,0,0,0.4586400091648102
0.830473649,0,0,0.9983820915222168,0,0,0.5350799560546875
0.831471691,0,0,0.9002198576927185,0,0,0.6879600286483765
0.832470714,0,0,1.3215993642807007,0,0,-0.7644000053405762
0.833470719,0,0,1.4173674583435059,0,0,1.070159912109375
0.834568575,0,0,2.207453966140747,0,0,0
0.835477063,0,0,2.2864625453948975,0,0,1.605239987373352
0.83647029,0,0,2.477998733520508,0,0,1.6816799640655518
0.837436499,0,0,2.1140801906585693,0,0,1.375920057296753
0.83843156,0,0,0.7134721279144287,0,0,3.4398000240325928
0.839427769,0,0,0.9648633003234863,0,0,0
0.840426441,0,0,0.9313444495201111,0,0,1.758120059967041
0.841426483,0,0,1.400607943534851,0,0,-0.611519992351532
0.842429081,0,0,1.7525556087493896,0,0,-0.3822000026702881
0.843425863,0,0,2.0805611610412598,0,0,0.5350799560546875
0.844425961,0,0,2.535459518432617,0,0,0.305759996175766
0.845426244,0,0,1.965639591217041,0,0,2.14031982421875
0.846428267,0,0,2.1380221843719482,0,0,0.9937199950218201
0.847427495,0,0,0.6488286852836609,0,0,2.446079969406128
0.848425833,0,0,0.11252748221158981,0,0,1.5288000106811523
0.849426561,0,0,0.5722141861915588,0,0,8.943479537963867
0.850427695,0,0,0.6392518281936646,0,0,0.0764399990439415
0.851427515,0,0,1.5298948287963867,0,0,-0.8408399820327759
0.852426483,0,0,1.3072341680526733,0,0,0.6879600286483765
0.853426766,0,0,1.9752163887023926,0,0,0
0.854428104,0,0,2.118868589401245,0,0,1.452359914779663
0.855427387,0,0,2.1715409755706787,0,0,1.9109998941421509
0.85642717,0,0,2.1092917919158936,0,0,1.375920057296753
0.857425194,0,0,0.8331822156906128,0,0,2.9811599254608154
0.858429236,0,0,0.8643068075180054,0,0,0.3822000026702881
0.859427333,0,0,1.436521053314209,0,0,0.305759996175766
0.860426931,0,0,1.5538369417190552,0,0,-0.4586400091648102
0.861426899,0,0,2.1978771686553955,0,0,0.305759996175766
0.862428275,0,0,2.27209734916687,0,0,1.6816799640655518
0.863428057,0,0,2.5330653190612793,0,0,0.6879600286483765
0.864426581,0,0,2.2026655673980713,0,0,3.3633599281311035
0.865426864,0,0,2.3343467712402344,0,0,2.14031982421875
0.866533756,0,0,1.2952631711959839,0,0,2.5989599227905273
0.867433596,0,0,0.3998316824436188,0,0,1.9874399900436401
0.868426601,0,0,1.235408067703247,0,0,-0.7644000053405762
0.869426403,0,0,1.357512354850769,0,0,0.5350799560546875
0.870429704,0,0,2.188300371170044,0,0,-1.223039984703064
0.871439172,0,0,2.38462495803833,0,0,0.611519992351532
0.872432214,0,0,1.900996208190918,0,0,0.6879600286483765
0.873427423,0,0,2.0590133666992188,0,0,1.223039984703064
0.874429298,0,0,1.400607943534851,0,0,2.6754000186920166
0.87542747,0,0,1.525106430053711,0,0,1.1466000080108643
0.87642616,0,0,0.7733271718025208,0,0,2.2167599201202393
0.877426388,0,0,0.35673606395721436,0,0,1.605239987373352
0.878428208,0,0,1.5514427423477173,0,0,-0.8408399820327759
0.879424694,0,0,1.7980455160140991,0,0,1.9109998941421509
0.880426847,0,0,2.3319525718688965,0,0,-0.7644000053405762
0.88142626,0,0,2.4851813316345215,0,0,0.611519992351532
0.882428228,0,0,2.145204782485962,0,0,1.1466000080108643
0.883450344,0,0,2.248155355453491,0,0,0.9172800183296204
0.884428775,0,0,1.8986018896102905,0,0,3.3633599281311035
0.885426243,0,0,2.0901381969451904,0,0,0.6879600286483765
0.886428433,0,0,1.4173674583435059,0,0,2.446079969406128
0.88742755,0,0,0.5937620401382446,0,0,1.9874399900436401
0.888426851,0,0,1.292868971824646,0,0,-0.9937199950218201
0.88942643,0,0,1.5538369417190552,0,0,2.14031982421875
0.890428694,0,0,1.6687586307525635,0,0,-0.611519992351532
0.891427903,0,0,2.296039342880249,0,0,0
0.892426538,0,0,1.8914192914962769,0,0,2.2167599201202393
0.893425562,0,0,2.365471363067627,0,0,0.305759996175766
0.894428511,0,0,2.126051187515259,0,0,2.751840114593506
0.895425442,0,0,2.056619167327881,0,0,0.7644000053405762
0.896426373,0,0,1.922544002532959,0,0,2.14031982421875
0.897426397,0,0,0.706289529800415,0,0,2.828279972076416
0.89842792,0,0,0.6991068720817566,0,0,0
0.89942487,0,0,1.091755986213684,0,0,0.7644000053405762
0.900425671,0,0,1.1563993692398071,0,0,0
0.901426009,0,0,2.049436569213867,0,0,-0.7644000053405762
0.90242907,0,0,1.8387469053268433,0,0,1.9874399900436401
0.903425464,0,0,1.6927006244659424,0,0,0.305759996175766
0.904426265,0,0,2.185906171798706,0,0,1.9874399900436401
0.905426048,0,0,1.8507179021835327,0,0,2.2167599201202393
0.906428127,0,0,2.1739351749420166,0,0,1.452359914779663
0.907427262,0,0,1.9847931861877441,0,0,2.9811599254608154
0.908426619,0,0,0.9193734526634216,0,0,1.070159912109375
0.90942618,0,0,1.5682021379470825,0,0,0.2293200045824051
0.910428944,0,0,1.558625340461731,0,0,1.375920057296753
0.911426986,0,0,1.6424223184585571,0,0,-0.152879998087883
0.912426862,0,0,2.315192937850952,0,0,0.0764399990439415
0.913426367,0,0,1.6639702320098877,0,0,1.6816799640655518
0.914429298,0,0,2.161964178085327,0,0,0.5350799560546875
0.915426488,0,0,2.4468741416931152,0,0,2.06387996673584
0.916426956,0,0,1.7070658206939697,0,0,1.375920057296753
0.917426035,0,0,2.1356279850006104,0,0,1.5288000106811523
0.918428281,0,0,1.460463047027588,0,0,2.2167599201202393
0.919425193,0,0,0.5889736413955688,0,0,1.375920057296753
0.920426773,0,0,1.278503656387329,0,0,0.0764399990439415
0.921426833,0,0,1.2186486721038818,0,0,0.8408399820327759
0.92242769,0,0,1.556231141090393,0,0,0
0.923427899,0,0,2.183511972427368,0,0,-0.305759996175766
0.924426552,0,0,1.7693150043487549,0,0,1.070159912109375
0.925426742,0,0,2.27209734916687,0,0,0.7644000053405762
0.92642897,0,0,2.5306711196899414,0,0,1.375920057296753
0.927425123,0,0,1.9249382019042969,0,0,1.9874399900436401
0.928426313,0,0,1.9081788063049316,0,0,1.8345600366592407
0.929426392,0,0,1.4939818382263184,0,0,1.8345600366592407
0.930426823,0,0,0.8427590131759644,0,0,1.9109998941421509
0.931427921,0,0,1.113303780555725,0,0,0.6879600286483765
0.932426185,0,0,1.3431471586227417,0,0,0.152879998087883
0.933426801,0,0,1.5394717454910278,0,0,0.4586400091648102
0.934427158,0,0,2.1140801906585693,0,0,-9.784319877624512
0.935449163,0,0,2.006340980529785,0,0,0.305759996175766
0.936425631,0,0,1.8339585065841675,0,0,1.070159912109375
0.937426674,0,0,2.1930887699127197,0,0,0.305759996175766
0.938429105,0,0,2.0015525817871094,0,0,1.8345600366592407
0.939427832,0,0,1.6065093278884888,0,0,1.6816799640655518
0.940426244,0,0,1.6424223184585571,0,0,1.070159912109375
0.941426657,0,0,1.1635819673538208,0,0,1.605239987373352
0.942428662,0,0,0.9911994934082031,0,0,1.6816799640655518
0.943426537,0,0,1.6352397203445435,0,0,0.305759996175766
0.944425098,0,0,1.9943699836730957,0,0,0.611519992351532
0.945423936,0,0,2.2409727573394775,0,0,1.375920057296753
0.946425571,0,0,2.2170307636260986,0,0,0.7644000053405762
0.947442113,0,0,1.7884687185287476,0,0,1.1466000080108643
0.948427322,0,0,1.4963760375976563,0,0,1.758120059967041
0.949425568,0,0,1.98958158493042,0,0,0.4586400091648102
0.950428351,0,0,1.7812861204147339,0,0,1.605239987373352
0.951427559,0,0,1.9177556037902832,0,0,1.758120059967041
0.952426879,0,0,2.161964178085327,0,0,0.4586400091648102
0.953426329,0,0,1.6543933153152466,0,0,1.9874399900436401
0.954426482,0,0,1.1635819673538208,0,0,2.14031982421875
0.955426191,0,0,1.2952631711959839,0,0,0.2293200045824051
0.956426511,0,0,1.678335428237915,0,0,0.6879600286483765
0.957426145,0,0,1.6089035272598267,0,0,0.6879600286483765
0.958428447,0,0,1.7381904125213623,0,0,-0.2293200045824051
0.959427082,0,0,1.7884687185287476,0,0,0.7644000053405762
0.960425975,0,0,1.3886369466781616,0,0,0.9172800183296204
0.961426462,0,0,1.534683346748352,0,0,0
0.962428115,0,0,1.900996208190918,0,0,0.9937199950218201
0.963424157,0,0,1.5275006294250488,0,0,2.2167599201202393
0.964491754,0,0,1.4724340438842773,0,0,1.6816799640655518
0.96558461,0,0,1.4221558570861816,0,0,1.8345600366592407
0.966538412,0,0,1.173158884048462,0,0,2.14031982421875
0.967436678,0,0,1.5849615335464478,0,0,1.223039984703064
0.968428386,0,0,2.183511972427368,0,0,0.6879600286483765
0.969426947,0,0,2.4396915435791016,0,0,0.6879600286483765
0.970426897,0,0,2.4851813316345215,0,0,0.4586400091648102
0.971426994,0,0,2.367865562438965,0,0,0.9172800183296204
0.972426944,0,0,1.6519991159439087,0,0,1.375920057296753
0.973426467,0,0,0.9265560507774353,0,0,1.070159912109375
0.974426824,0,0,1.0319008827209473,0,0,0.9937199950218201
0.9754267,0,0,1.2018892765045166,0,0,0.9172800183296204
0.976441982,0,0,1.3958195447921753,0,0,1.1466000080108643
0.97744945,0,0,1.843535304069519,0,0,0.8408399820327759
0.978448529,0,0,1.9632453918457031,0,0,1.452359914779663
0.979445757,0,0,1.745373010635376,0,0,1.605239987373352
0.98043204,0,0,1.7381904125213623,0,0,1.375920057296753
0.981429823,0,0,2.0925323963165283,0,0,0.4586400091648102
0.982427457,0,0,2.279279947280884,0,0,1.070159912109375
0.98342624,0,0,2.2840683460235596,0,0,1.070159912109375
0.984426708,0,0,2.0183119773864746,0,0,0.8408399820327759
0.98542651,0,0,1.5083470344543457,0,0,1.223039984703064
0.986427144,0,0,0.7876923680305481,0,0,1.223039984703064
0.987425649,0,0,0.9552865028381348,0,0,0.611519992351532
0.98842684,0,0,1.5753847360610962,0,0,0.4586400091648102
0.989426586,0,0,1.7405846118927002,0,0,0.5350799560546875
0.990429831,0,0,1.8148049116134644,0,0,0.5350799560546875
0.991428688,0,0,2.38462495803833,0,0,1.605239987373352
0.99243399,0,0,1.9512743949890137,0,0,1.452359914779663
0.99345955,0,0,1.455674648284912,0,0,1.5288000106811523
0.994469721,0,0,1.766920804977417,0,0,1.1466000080108643
0.995463041,0,0,1.9033904075622559,0,0,1.1466000080108643
0.996449954,0,0,2.0805611610412598,0,0,0.5350799560546875
0.997446941,0,0,2.1332337856292725,0,0,0.8408399820327759
0.998445705,0,0,1.8962076902389526,0,0,0.9172800183296204
0.999454247,0,0,1.3263877630233765,0,0,1.2994799613952637
1.000465085,0,0,0.5793967843055725,0,0,0.8408399820327759
1.001453479,0,0,0.47405192255973816,0,0,0.4586400091648102
1.002504391,0,0,1.039083480834961,0,0,0.305759996175766
1.003482322,0,0,1.6496049165725708,0,0,0
1.004439199,0,0,2.3032219409942627,0,0,1.223039984703064
1.005460314,0,0,2.9281086921691895,0,0,1.070159912109375
1.006468301,0,0,2.4636335372924805,0,0,2.2167599201202393
1.007440732,0,0,1.8267759084701538,0,0,2.2932000160217285
1.008438756,0,0,1.5394717454910278,0,0,1.9109998941421509
1.009440557,0,0,1.723825216293335,0,0,1.5288000106811523
1.010445896,0,0,1.8818424940109253,0,0,1.605239987373352
1.011464845,0,0,2.0877439975738525,0,0,0.9172800183296204
1.012462905,0,0,2.27209734916687,0,0,0.7644000053405762
1.013469947,0,0,2.4396915435791016,0,0,0.611519992351532
1.01445636,0,0,1.6065093278884888,0,0,0.7644000053405762
1.015451217,0,0,1.0414776802062988,0,0,0.152879998087883
1.016450093,0,0,0.7661445140838623,0,0,0.4586400091648102
1.017439839,0,0,0.9552865028381348,0,0,0
1.018456047,0,0,1.2617442607879639,0,0,0
1.0194546820000001,0,0,1.5107412338256836,0,0,0.9172800183296204
1.020453835,0,0,2.188300371170044,0,0,0.6879600286483765
1.021510747,0,0,2.1763293743133545,0,0,2.06387996673584
1.022479123,0,0,1.745373010635376,0,0,2.14031982421875
1.023442554,0,0,1.4413094520568848,0,0,2.14031982421875
1.024456189,0,0,1.7477672100067139,0,0,2.14031982421875
1.025601358,0,0,2.078166961669922,0,0,0.9172800183296204
1.026455328,0,0,2.0661959648132324,0,0,1.223039984703064
1.027435871,0,0,2.3080103397369385,0,0,1.375920057296753
1.028434654,0,0,2.3942017555236816,0,0,0.9172800183296204
1.029450307,0,0,2.1763293743133545,0,0,1.223039984703064
1.030450423,0,0,1.4676456451416016,0,0,1.223039984703064
1.031445058,0,0,0.8858546018600464,0,0,0.9172800183296204
1.032433581,0,0,0.8188169598579407,0,0,0.305759996175766
1.033432642,0,0,1.05105459690094,0,0,0.2293200045824051
1.034438277,0,0,1.601720929145813,0,0,0.2293200045824051
1.035546262,0,0,1.6543933153152466,0,0,0.6879600286483765
1.036435065,0,0,2.1811177730560303,0,0,1.1466000080108643
1.037434496,0,0,2.0470423698425293,0,0,1.6816799640655518
1.039087659,0,0,1.800439715385437,0,0,1.8345600366592407
1.039502672,0,0,1.6352397203445435,0,0,1.9874399900436401
1.040407493,0,0,1.601720929145813,0,0,1.8345600366592407
1.041393035,0,0,2.161964178085327,0,0,1.070159912109375
1.042416818,0,0,2.2577321529388428,0,0,1.070159912109375
1.043392527,0,0,2.1499931812286377,0,0,0.9172800183296204
1.044728712,0,0,1.9943699836730957,0,0,1.375920057296753
1.04541787,0,0,1.9608511924743652,0,0,0.8408399820327759
1.0464508,0,0,1.6184803247451782,0,0,0.5350799560546875
1.047394677,0,0,1.0630255937576294,0,0,1.223039984703064
1.048392459,0,0,0.6919242739677429,0,0,0.2293200045824051
1.04939065,0,0,0.7948749661445618,0,0,0
1.05045145,0,0,1.2210428714752197,0,0,0.305759996175766
1.051398049,0,0,1.6496049165725708,0,0,-0.152879998087883
1.052391961,0,0,1.8148049116134644,0,0,1.223039984703064
1.053391188,0,0,1.9297266006469727,0,0,1.5288000106811523
1.054452545,0,0,1.9823989868164063,0,0,1.9109998941421509
1.055392513,0,0,1.558625340461731,0,0,2.446079969406128
1.056391148,0,0,1.6184803247451782,0,0,1.5288000106811523
1.057389246,0,0,1.7046716213226318,0,0,1.8345600366592407
1.05848162,0,0,2.346317768096924,0,0,1.223039984703064
1.059397089,0,0,2.786850690841675,0,0,0.305759996175766
1.060392224,0,0,2.695871114730835,0,0,1.2994799613952637
1.061391229,0,0,2.3271639347076416,0,0,1.5288000106811523
1.06249764,0,0,1.45806884765625,0,0,1.9109998941421509
1.063401035,0,0,1.3766659498214722,0,0,0.7644000053405762
1.064396244,0,0,1.2665326595306396,0,0,0.305759996175766
1.065396009,0,0,0.9696516990661621,0,0,0.3822000026702881
1.067936308,0,0,0.9648633003234863,0,0,0.305759996175766
1.068349024,0,0,0.9648633003234863,0,0,0
1.068798167,0,0,1.3718775510787964,0,0,0.4586400091648102
1.070124463,0,0,1.7142484188079834,0,0,0.2293200045824051
1.070447107,0,0,1.8387469053268433,0,0,0.611519992351532
1.071402317,0,0,1.5729905366897583,0,0,1.605239987373352
1.072394989,0,0,1.86508309841156,0,0,1.9109998941421509
1.0733941790000001,0,0,2.006340980529785,0,0,1.6816799640655518
1.074402313,0,0,1.9321208000183105,0,0,1.9109998941421509
1.075566501,0,0,2.073378562927246,0,0,1.2994799613952637
1.076423194,0,0,1.8315643072128296,0,0,1.9874399900436401
1.077414662,0,0,2.0638017654418945,0,0,1.1466000080108643
1.078420482,0,0,2.535459518432617,0,0,0.5350799560546875
1.079408913,0,0,2.6240451335906982,0,0,1.1466000080108643
1.0804006959999999,0,0,2.164358377456665,0,0,0.7644000053405762
1.081433848,0,0,1.400607943534851,0,0,1.070159912109375
1.082555148,0,0,1.1109095811843872,0,0,1.223039984703064
1.083436359,0,0,1.3718775510787964,0,0,0.3822000026702881
1.084418919,0,0,1.192312479019165,0,0,0.611519992351532
1.085404758,0,0,1.0319008827209473,0,0,-9.554999351501465
1.086422744,0,0,1.0295066833496094,0,0,0.6879600286483765
1.087431416,0,0,1.1516109704971313,0,0,0.305759996175766
1.088426717,0,0,1.4508862495422363,0,0,0.4586400091648102
1.089453241,0,0,1.8507179021835327,0,0,1.1466000080108643
1.09065165,0,0,1.8914192914962769,0,0,-0.3822000026702881
1.094567839,0,0,2.2385785579681396,0,0,1.5288000106811523
1.095049702,0,0,2.22660756111145,0,0,1.223039984703064
1.095498048,0,0,2.22660756111145,0,0,3.210479974746704
1.095888062,0,0,2.22660756111145,0,0,1.2994799613952637
1.096225557,0,0,2.0590133666992188,0,0,0.152879998087883
1.096563701,0,0,1.8746598958969116,0,0,0.305759996175766
1.097495244,0,0,1.5849615335464478,0,0,1.9109998941421509
1.098466545,0,0,1.5538369417190552,0,0,0.6879600286483765
1.099458773,0,0,2.0590133666992188,0,0,0.611519992351532
1.100435149,0,0,2.123656988143921,0,0,1.1466000080108643
1.101408302,0,0,1.7812861204147339,0,0,0.9172800183296204
1.102449862,0,0,1.335964560508728,0,0,0.9172800183296204
1.103409405,0,0,1.6328455209732056,0,0,0.3822000026702881
1.107048319,0,0,1.5059528350830078,0,0,0.7644000053405762
1.10740937,0,0,1.5059528350830078,0,0,1.9109998941421509
1.107730958,0,0,1.5059528350830078,0,0,0.8408399820327759
1.10805162,0,0,1.4437036514282227,0,0,1.070159912109375
1.108385079,0,0,1.479616641998291,0,0,1.223039984703064
1.109450916,0,0,1.3431471586227417,0,0,1.070159912109375
1.110488069,0,0,1.5610195398330688,0,0,1.070159912109375
1.111427204,0,0,1.702277421951294,0,0,1.1466000080108643
1.112431876,0,0,1.9129672050476074,0,0,1.2994799613952637
1.113432659,0,0,2.274491548538208,0,0,1.070159912109375
1.114565422,0,0,2.0661959648132324,0,0,1.8345600366592407
1.115413132,0,0,1.9153614044189453,0,0,1.2994799613952637
1.1164068600000001,0,0,2.0661959648132324,0,0,1.223039984703064
1.117410531,0,0,2.140416383743286,0,0,1.605239987373352
1.11844598,0,0,1.9249382019042969,0,0,1.1466000080108643
1.119414486,0,0,1.821987509727478,0,0,1.2994799613952637
1.120417769,0,0,1.5825673341751099,0,0,1.070159912109375
1.121410459,0,0,1.2880805730819702,0,0,0.9172800183296204
1.12247176,0,0,1.3263877630233765,0,0,0.6879600286483765
1.123416451,0,0,1.800439715385437,0,0,0.5350799560546875
1.124441344,0,0,2.161964178085327,0,0,0.611519992351532
1.125435868,0,0,2.0590133666992188,0,0,1.223039984703064
1.126473039,0,0,1.800439715385437,0,0,0.9172800183296204
1.127425434,0,0,1.5514427423477173,0,0,1.2994799613952637
1.128393236,0,0,1.3239935636520386,0,0,0.9937199950218201
1.129388944,0,0,1.235408067703247,0,0,0.6879600286483765
1.130438319,0,0,1.5969325304031372,0,0,1.070159912109375
1.131395584,0,0,1.965639591217041,0,0,0.5350799560546875
1.132390756,0,0,1.7836803197860718,0,0,1.1466000080108643
1.133389372,0,0,1.6400281190872192,0,0,1.1466000080108643
1.134407377,0,0,1.3838485479354858,0,0,1.223039984703064
1.135389956,0,0,1.4197616577148438,0,0,0.9937199950218201
1.136483645,0,0,1.53707754611969,0,0,1.070159912109375
1.137390763,0,0,1.8794482946395874,0,0,0.5350799560546875
1.138441249,0,0,2.1595699787139893,0,0,0.9172800183296204
1.139390884,0,0,2.1284453868865967,0,0,1.1466000080108643
1.1403892039999999,0,0,1.742978811264038,0,0,1.223039984703064
1.141235822,0,0,1.742978811264038,0,0,1.6816799640655518
1.14223305,0,0,1.192312479019165,0,0,1.605239987373352
1.143253425,0,0,1.434126853942871,0,0,1.223039984703064
1.144243171,0,0,1.434126853942871,0,0,0.8408399820327759
1.145234065,0,0,1.9369091987609863,0,0,0.9172800183296204
1.146232699,0,0,2.3104045391082764,0,0,1.070159912109375
1.147236427,0,0,2.279279947280884,0,0,1.6816799640655518
1.148232506,0,0,1.965639591217041,0,0,1.223039984703064
1.149233141,0,0,1.577778935432434,0,0,0.8408399820327759
1.150232683,0,0,1.3192051649093628,0,0,0.8408399820327759
1.151238706,0,0,1.2617442607879639,0,0,0.611519992351532
1.152233137,0,0,1.3551181554794312,0,0,0.6879600286483765
1.153232346,0,0,1.8483237028121948,0,0,1.070159912109375
1.154232981,0,0,2.070984363555908,0,0,1.375920057296753
1.156534876,0,0,1.7310078144073486,0,0,1.6816799640655518
1.156769613,0,0,1.4389152526855469,0,0,1.605239987373352
1.157319736,0,0,1.2545616626739502,0,0,1.070159912109375
1.158294722,0,0,1.335964560508728,0,0,0.8408399820327759
1.159281654,0,0,1.644816517829895,0,0,0.611519992351532
1.160324103,0,0,1.9847931861877441,0,0,0.305759996175766
1.161311626,0,0,2.166752576828003,0,0,1.070159912109375
1.162299539,0,0,1.987187385559082,0,0,0.9937199950218201
1.163284581,0,0,1.987187385559082,0,0,1.452359914779663
1.164265994,0,0,1.5849615335464478,0,0,1.605239987373352
1.165263999,0,0,1.2473790645599365,0,0,1.2994799613952637
1.166254597,0,0,1.1540051698684692,0,0,0.7644000053405762
1.167301583,0,0,1.1540051698684692,0,0,0.7644000053405762
1.168255089,0,0,1.5825673341751099,0,0,0.611519992351532
1.169254686,0,0,2.2433669567108154,0,0,0.6879600286483765
1.1704937069999999,0,0,2.2433669567108154,0,0,1.452359914779663
1.1712539,0,0,2.2026655673980713,0,0,1.605239987373352
1.172233294,0,0,1.9847931861877441,0,0,1.9874399900436401
1.173232262,0,0,1.8100165128707886,0,0,1.605239987373352
1.174232323,0,0,1.5394717454910278,0,0,1.223039984703064
1.175233661,0,0,1.4173674583435059,0,0,0.6879600286483765
1.176232055,0,0,1.522712230682373,0,0,0.5350799560546875
1.177232283,0,0,1.623268723487854,0,0,0.611519992351532
1.178232547,0,0,1.867477297782898,0,0,0.9937199950218201
1.179234682,0,0,2.078166961669922,0,0,1.223039984703064
1.180232298,0,0,2.1739351749420166,0,0,1.223039984703064
1.181231451,0,0,1.965639591217041,0,0,1.605239987373352
1.182232271,0,0,1.6831238269805908,0,0,1.452359914779663
1.183232628,0,0,1.4508862495422363,0,0,1.1466000080108643
1.18423204,0,0,1.5203180313110352,0,0,0.9172800183296204
1.1852319709999999,0,0,1.6041151285171509,0,0,0.611519992351532
1.186232254,0,0,1.6400281190872192,0,0,0.5350799560546875
1.187232982,0,0,1.8100165128707886,0,0,0.6879600286483765
1.188232005,0,0,1.7860745191574097,0,0,1.223039984703064
1.189232325,0,0,1.721431016921997,0,0,1.5288000106811523
1.190232071,0,0,1.6735470294952393,0,0,1.375920057296753
1.191232817,0,0,1.6927006244659424,0,0,1.375920057296753
1.192232007,0,0,1.7046716213226318,0,0,1.2994799613952637
1.193232308,0,0,1.702277421951294,0,0,0.9172800183296204
1.194232184,0,0,1.7142484188079834,0,0,1.2994799613952637
1.195234707,0,0,1.920149803161621,0,0,1.070159912109375
1.19623312,0,0,1.8794482946395874,0,0,0.9937199950218201
1.197232199,0,0,1.7142484188079834,0,0,0.9172800183296204
1.198232148,0,0,1.7956513166427612,0,0,0.611519992351532
1.199232783,0,0,1.647210717201233,0,0,0.9172800183296204
1.2002322699999999,0,0,1.5442601442337036,0,0,1.070159912109375
1.201232219,0,0,1.534683346748352,0,0,0.9937199950218201
1.20223228,0,0,1.53707754611969,0,0,0.9937199950218201
1.20323297,0,0,1.6280571222305298,0,0,1.070159912109375
1.204232142,0,0,1.601720929145813,0,0,0.9172800183296204
1.205232128,0,0,1.699883222579956,0,0,0.9172800183296204
1.206231411,0,0,1.821987509727478,0,0,1.375920057296753
1.2072326389999999,0,0,1.821987509727478,0,0,0.9172800183296204
1.208232255,0,0,1.7477672100067139,0,0,1.1466000080108643
1.209232334,0,0,1.6831238269805908,0,0,1.1466000080108643
1.210232191,0,0,1.5945383310317993,0,0,0.9172800183296204
1.211236622,0,0,1.5322890281677246,0,0,0.9937199950218201
1.212234886,0,0,1.6328455209732056,0,0,0.9172800183296204
1.21323478,0,0,1.6639702320098877,0,0,0.611519992351532
1.2142346370000001,0,0,1.745373010635376,0,0,0.9172800183296204
1.215236846,0,0,1.7812861204147339,0,0,1.070159912109375
1.216234869,0,0,1.766920804977417,0,0,1.223039984703064
1.217234449,0,0,1.8148049116134644,0,0,1.2994799613952637
1.218234342,0,0,1.8052281141281128,0,0,1.070159912109375
1.219236107,0,0,1.802833914756775,0,0,0.9937199950218201
1.22023439,0,0,1.821987509727478,0,0,1.452359914779663
1.221234635,0,0,1.8746598958969116,0,0,1.070159912109375
1.222234715,0,0,1.9057846069335938,0,0,0.9937199950218201
1.223235349,0,0,1.8483237028121948,0,0,1.1466000080108643
1.224233614,0,0,1.8267759084701538,0,0,0.9172800183296204
1.225234119,0,0,1.8100165128707886,0,0,0.9172800183296204
1.226234031,0,0,1.558625340461731,0,0,0.8408399820327759
1.227427663,0,0,1.558625340461731,0,0,0.611519992351532
1.228289004,0,0,1.5538369417190552,0,0,0.6879600286483765
1.229238639,0,0,1.6136919260025024,0,0,0.8408399820327759
1.230235829,0,0,1.4460978507995605,0,0,0.8408399820327759
1.231241001,0,0,1.4101848602294922,0,0,0.9172800183296204
1.232236376,0,0,1.50355863571167,0,0,0.8408399820327759
1.233235122,0,0,1.580173134803772,0,0,0.9172800183296204
1.234235183,0,0,1.6711528301239014,0,0,1.2994799613952637
1.235236262,0,0,1.7477672100067139,0,0,1.070159912109375
1.236235045,0,0,1.8698714971542358,0,0,1.452359914779663
1.237234865,0,0,1.98958158493042,0,0,1.8345600366592407
1.238235185,0,0,1.987187385559082,0,0,1.223039984703064
1.239236245,0,0,2.008735179901123,0,0,1.2994799613952637
1.240235084,0,0,1.9728221893310547,0,0,1.375920057296753
1.241234941,0,0,1.800439715385437,0,0,1.5288000106811523
1.242235001,0,0,1.8052281141281128,0,0,1.223039984703064
1.243236043,0,0,1.7908629179000854,0,0,0.6879600286483765
1.244235067,0,0,1.558625340461731,0,0,0.6879600286483765
1.245234813,0,0,1.5275006294250488,0,0,0.9937199950218201
1.246234781,0,0,1.4460978507995605,0,0,0.8408399820327759
1.247236249,0,0,1.6280571222305298,0,0,0.611519992351532
1.248235013,0,0,1.5490485429763794,0,0,1.1466000080108643
1.249234574,0,0,1.4652514457702637,0,0,0.8408399820327759
1.250234783,0,0,1.5418659448623657,0,0,0.9172800183296204
1.251236325,0,0,1.6424223184585571,0,0,1.1466000080108643
1.252235052,0,0,1.678335428237915,0,0,1.1466000080108643
1.253235168,0,0,1.699883222579956,0,0,1.070159912109375
1.2542350070000001,0,0,1.8698714971542358,0,0,1.2994799613952637
1.255236067,0,0,1.7262194156646729,0,0,1.2994799613952637
1.256235165,0,0,1.5849615335464478,0,0,1.1466000080108643
1.2572353,0,0,1.7501614093780518,0,0,1.2994799613952637
1.258235305,0,0,1.7860745191574097,0,0,0.9937199950218201
1.259236032,0,0,1.7357962131500244,0,0,1.070159912109375
1.260235185,0,0,1.8531121015548706,0,0,0.9937199950218201
1.261235079,0,0,1.867477297782898,0,0,1.2994799613952637
1.262235214,0,0,1.7549498081207275,0,0,1.375920057296753
1.263236089,0,0,1.5538369417190552,0,0,0.611519992351532
1.264237872,0,0,1.3646949529647827,0,0,0.6879600286483765
1.265250618,0,0,1.5131354331970215,0,0,0.9172800183296204
1.266236549,0,0,1.7836803197860718,0,0,0.7644000053405762
1.267236443,0,0,1.7836803197860718,0,0,1.223039984703064
1.26823517,0,0,1.7142484188079834,0,0,0.9937199950218201
1.269235101,0,0,1.6424223184585571,0,0,1.1466000080108643
1.270235014,0,0,1.455674648284912,0,0,1.070159912109375
1.271236871,0,0,1.4724340438842773,0,0,0.3822000026702881
1.272235283,0,0,1.5945383310317993,0,0,0.6879600286483765
1.273235251,0,0,1.7884687185287476,0,0,0.9937199950218201
1.2742352750000001,0,0,1.9273324012756348,0,0,1.1466000080108643
1.27523602,0,0,1.7405846118927002,0,0,1.1466000080108643
1.276235285,0,0,1.6950948238372803,0,0,1.452359914779663
1.27723479,0,0,1.53707754611969,0,0,1.6816799640655518
1.278235258,0,0,1.280897855758667,0,0,0.8408399820327759
1.279236152,0,0,1.3838485479354858,0,0,0.8408399820327759
1.280235083,0,0,1.7070658206939697,0,0,0.305759996175766
1.281235144,0,0,2.0374655723571777,0,0,0.9172800183296204
1.282235093,0,0,2.094926595687866,0,0,1.1466000080108643
1.283236172,0,0,1.8579005002975464,0,0,0.8408399820327759
1.2842352510000001,0,0,1.5825673341751099,0,0,1.070159912109375
1.2852349969999999,0,0,1.4939818382263184,0,0,0.9172800183296204
1.2862350949999999,0,0,1.3694833517074585,0,0,0.6879600286483765
1.287235952,0,0,1.3407529592514038,0,0,1.8345600366592407
1.288235383,0,0,1.6950948238372803,0,0,0.9172800183296204
1.289234814,0,0,2.0446481704711914,0,0,1.375920057296753
1.290235226,0,0,1.745373010635376,0,0,1.6816799640655518
1.291236268,0,0,1.6879122257232666,0,0,1.375920057296753
1.292234699,0,0,1.6663644313812256,0,0,1.223039984703064
1.293234575,0,0,2.0254945755004883,0,0,1.223039984703064
1.294235191,0,0,2.0805611610412598,0,0,1.452359914779663
1.295236381,0,0,2.1571757793426514,0,0,0.6879600286483765
1.296234923,0,0,2.2002713680267334,0,0,1.2994799613952637
1.29723491,0,0,1.7836803197860718,0,0,1.223039984703064
1.298234915,0,0,1.6089035272598267,0,0,1.1466000080108643
1.2992361049999999,0,0,1.5897499322891235,0,0,1.605239987373352
1.3002350360000001,0,0,1.3335703611373901,0,0,0.9172800183296204
1.3012349859999999,0,0,1.3742717504501343,0,0,0.7644000053405762
1.302234954,0,0,1.6376339197158813,0,0,0.7644000053405762
1.303236274,0,0,1.8914192914962769,0,0,0.8408399820327759
1.304235019,0,0,1.886630892753601,0,0,1.452359914779663
1.305235043,0,0,1.8052281141281128,0,0,0.9172800183296204
1.306235233,0,0,1.7046716213226318,0,0,1.2994799613952637
1.307236146,0,0,1.843535304069519,0,0,1.2994799613952637
1.3082350950000001,0,0,1.8171991109848022,0,0,0.9937199950218201
1.309235082,0,0,1.702277421951294,0,0,1.2994799613952637
1.310234994,0,0,1.7549498081207275,0,0,0.9937199950218201
1.311235777,0,0,1.7477672100067139,0,0,1.070159912109375
1.31223493,0,0,1.6543933153152466,0,0,1.070159912109375
1.313234936,0,0,1.6639702320098877,0,0,0.6879600286483765
1.31423457,0,0,1.680729627609253,0,0,1.1466000080108643
1.315236316,0,0,1.6400281190872192,0,0,0.9172800183296204
1.316235043,0,0,1.6759412288665771,0,0,0.4586400091648102
1.317235178,0,0,1.7525556087493896,0,0,0.9172800183296204
1.318235165,0,0,1.8148049116134644,0,0,1.2994799613952637
1.3192361510000001,0,0,1.680729627609253,0,0,0.9937199950218201
1.320235119,0,0,1.5729905366897583,0,0,0.9937199950218201
1.321234921,0,0,1.766920804977417,0,0,1.223039984703064
1.322235148,0,0,1.6065093278884888,0,0,0.9937199950218201
1.323235986,0,0,1.702277421951294,0,0,1.2994799613952637
1.3242350649999999,0,0,1.7764976024627686,0,0,1.223039984703064
1.325235015,0,0,1.8962076902389526,0,0,1.1466000080108643
1.326252835,0,0,1.8962076902389526,0,0,1.2994799613952637
1.327237099,0,0,1.8962076902389526,0,0,1.070159912109375
1.328235271,0,0,1.9177556037902832,0,0,1.070159912109375
1.329235054,0,0,1.8555063009262085,0,0,1.452359914779663
1.330235059,0,0,1.6735470294952393,0,0,0.8408399820327759
1.331236119,0,0,1.5322890281677246,0,0,0.7644000053405762
1.332234624,0,0,1.5921441316604614,0,0,0.9172800183296204
1.333235,0,0,1.5658079385757446,0,0,0.6879600286483765
1.334235098,0,0,1.50355863571167,0,0,0.611519992351532
1.3352359169999999,0,0,1.522712230682373,0,0,0.6879600286483765
1.336234608,0,0,1.5155296325683594,0,0,1.070159912109375
1.337234928,0,0,1.4987702369689941,0,0,0.8408399820327759
1.338234803,0,0,1.558625340461731,0,0,0.9937199950218201
1.339236327,0,0,1.6831238269805908,0,0,1.223039984703064
1.3402352020000001,0,0,1.764526605606079,0,0,1.223039984703064
1.341235041,0,0,1.8914192914962769,0,0,1.6816799640655518
1.342235101,0,0,1.8914192914962769,0,0,1.223039984703064
1.343234643,0,0,1.9393033981323242,0,0,1.8345600366592407
1.344233741,0,0,1.9752163887023926,0,0,1.375920057296753
1.345243338,0,0,1.965639591217041,0,0,1.452359914779663
1.346234084,0,0,1.824381709098816,0,0,1.223039984703064
1.347236701,0,0,1.8267759084701538,0,0,0.9172800183296204
1.348234761,0,0,1.778891921043396,0,0,0.9937199950218201
1.349234618,0,0,1.7094600200653076,0,0,0.9172800183296204
1.350234475,0,0,1.6304513216018677,0,0,0.6879600286483765
1.35123635,0,0,1.6735470294952393,0,0,0.9172800183296204
1.352234559,0,0,1.599326729774475,0,0,0.611519992351532
1.35323462,0,0,1.4101848602294922,0,0,0.5350799560546875
1.3542340689999999,0,0,1.3096283674240112,0,0,1.1466000080108643
1.355235667,0,0,1.290474772453308,0,0,0.7644000053405762
1.356234339,0,0,1.2737152576446533,0,0,0.9937199950218201
1.357233862,0,0,1.4844050407409668,0,0,0.9172800183296204
1.358236775,0,0,1.6927006244659424,0,0,1.1466000080108643
1.359235928,0,0,1.9345149993896484,0,0,1.2994799613952637
1.3602346920000001,0,0,2.027888774871826,0,0,1.375920057296753
1.361234772,0,0,2.0877439975738525,0,0,1.223039984703064
1.3622342029999999,0,0,1.922544002532959,0,0,1.2994799613952637
1.363235041,0,0,1.8483237028121948,0,0,1.223039984703064
1.364234046,0,0,1.6352397203445435,0,0,0.6879600286483765
1.3654717889999999,0,0,1.6352397203445435,0,0,1.1466000080108643
1.366321666,0,0,1.7693150043487549,0,0,0.6879600286483765
1.367246561,0,0,1.800439715385437,0,0,0.7644000053405762
1.3682342699999999,0,0,1.721431016921997,0,0,1.375920057296753
1.36923259,0,0,1.6831238269805908,0,0,1.223039984703064
1.370232243,0,0,1.6424223184585571,0,0,1.223039984703064
1.371233582,0,0,1.6208745241165161,0,0,1.070159912109375
1.372232161,0,0,1.5969325304031372,0,0,0.7644000053405762
1.3732322209999999,0,0,1.6424223184585571,0,0,0.7644000053405762
1.374232338,0,0,1.8315643072128296,0,0,0.9937199950218201
1.3752321570000001,0,0,1.778891921043396,0,0,0.6879600286483765
1.376232181,0,0,1.7070658206939697,0,0,0.8408399820327759
1.377232297,0,0,1.7573440074920654,0,0,1.2994799613952637
1.378231988,0,0,1.7741034030914307,0,0,1.223039984703064
1.37923327,0,0,1.7501614093780518,0,0,1.375920057296753
1.380232442,0,0,1.766920804977417,0,0,1.2994799613952637
1.381232262,0,0,1.7501614093780518,0,0,1.1466000080108643
1.382232026,0,0,1.5969325304031372,0,0,1.070159912109375
1.383232568,0,0,1.601720929145813,0,0,0.3822000026702881
1.384232351,0,0,1.6879122257232666,0,0,0.5350799560546875
1.3852322080000001,0,0,1.8124107122421265,0,0,0.9172800183296204
1.386232065,0,0,1.7525556087493896,0,0,0.7644000053405762
1.387236366,0,0,1.745373010635376,0,0,1.1466000080108643
1.388235168,0,0,1.9560627937316895,0,0,1.5288000106811523
1.38923484,0,0,1.7956513166427612,0,0,1.6816799640655518
1.390234752,0,0,1.5059528350830078,0,0,1.452359914779663
1.391236109,0,0,1.3072341680526733,0,0,0.9172800183296204
1.392235021,0,0,1.3718775510787964,0,0,0.611519992351532
1.393234952,0,0,1.601720929145813,0,0,0.6879600286483765
1.394235032,0,0,1.8387469053268433,0,0,0.4586400091648102
1.395235777,0,0,2.0015525817871094,0,0,0.8408399820327759
1.396234931,0,0,2.03507137298584,0,0,1.2994799613952637
1.397234528,0,0,1.9177556037902832,0,0,1.070159912109375
1.398234867,0,0,1.5418659448623657,0,0,1.375920057296753
1.399235909,0,0,1.3958195447921753,0,0,1.1466000080108643
1.400234229,0,0,1.2234370708465576,0,0,0.7644000053405762
1.4012346230000001,0,0,1.1779472827911377,0,0,0.5350799560546875
1.402235035,0,0,1.3694833517074585,0,0,0.3822000026702881
1.403235966,0,0,1.6328455209732056,0,0,0.8408399820327759
1.404234823,0,0,1.8914192914962769,0,0,0.9172800183296204
1.405234791,0,0,2.1308395862579346,0,0,1.375920057296753
1.406234926,0,0,1.9632453918457031,0,0,1.6816799640655518
1.407236153,0,0,1.7621324062347412,0,0,1.6816799640655518
1.408234806,0,0,1.6879122257232666,0,0,1.2994799613952637
1.409235885,0,0,1.4676456451416016,0,0,1.1466000080108643
1.4102355389999999,0,0,1.5658079385757446,0,0,1.070159912109375
1.411235766,0,0,1.8411411046981812,0,0,0.8408399820327759
1.412234882,0,0,2.118868589401245,0,0,0.7644000053405762
1.413234943,0,0,2.209848165512085,0,0,1.5288000106811523
1.414234948,0,0,1.9752163887023926,0,0,0.9172800183296204
1.415235805,0,0,1.680729627609253,0,0,1.1466000080108643
1.416234977,0,0,1.3934253454208374,0,0,1.223039984703064
1.417235185,0,0,1.2282254695892334,0,0,0.2293200045824051
1.418234857,0,0,1.4293384552001953,0,0,0.6879600286483765
1.419235566,0,0,1.9033904075622559,0,0,0.8408399820327759
1.420234793,0,0,1.968033790588379,0,0,0.7644000053405762
1.421234706,0,0,1.8770540952682495,0,0,1.452359914779663
1.422234544,0,0,1.7908629179000854,0,0,1.452359914779663
1.423235901,0,0,1.41257905960083,0,0,1.2994799613952637
1.424234832,0,0,1.2617442607879639,0,0,1.070159912109375
1.425234911,0,0,1.5634137392044067,0,0,0.611519992351532
1.426234564,0,0,1.98958158493042,0,0,1.070159912109375
1.427235903,0,0,2.0685901641845703,0,0,1.070159912109375
1.428234815,0,0,2.0614075660705566,0,0,0.7644000053405762
1.42923508,0,0,1.9393033981323242,0,0,0.9172800183296204
1.43023477,0,0,1.5849615335464478,0,0,1.375920057296753
1.431236016,0,0,1.2880805730819702,0,0,1.1466000080108643
1.432234724,0,0,1.455674648284912,0,0,0.8408399820327759
1.4332348590000001,0,0,1.8914192914962769,0,0,1.223039984703064
1.434234716,0,0,1.6855180263519287,0,0,1.2994799613952637
1.435234851,0,0,1.6855180263519287,0,0,1.1466000080108643
1.4362349110000001,0,0,1.7405846118927002,0,0,1.452359914779663
1.437234602,0,0,1.7549498081207275,0,0,0.9172800183296204
1.4382348839999999,0,0,1.8962076902389526,0,0,1.452359914779663
1.439236075,0,0,2.1763293743133545,0,0,1.1466000080108643
1.44023445,0,0,2.1116859912872314,0,0,1.375920057296753
1.441234992,0,0,1.9512743949890137,0,0,1.452359914779663
1.44223472,0,0,1.6089035272598267,0,0,0.9937199950218201
1.4432340209999999,0,0,1.45806884765625,0,0,0.9937199950218201
1.444231859,0,0,1.479616641998291,0,0,0.5350799560546875
1.445232161,0,0,1.6184803247451782,0,0,0.9172800183296204
1.446232425,0,0,1.7573440074920654,0,0,1.070159912109375
1.447234893,0,0,1.7884687185287476,0,0,0.9937199950218201
1.4482343979999999,0,0,1.6400281190872192,0,0,1.1466000080108643
1.4492344400000001,0,0,1.359906554222107,0,0,1.1466000080108643
1.450234316,0,0,1.5059528350830078,0,0,0.305759996175766
1.45123545,0,0,1.6112977266311646,0,0,0.8408399820327759
1.452234493,0,0,1.5203180313110352,0,0,0.5350799560546875
1.453234257,0,0,1.4532804489135742,0,0,0.611519992351532
1.454234336,0,0,1.3096283674240112,0,0,0.9937199950218201
1.455257193,0,0,1.4293384552001953,0,0,0.611519992351532
1.45631366,0,0,1.656787633895874,0,0,0.9937199950218201
1.457267036,0,0,1.7357962131500244,0,0,1.758120059967041
1.458426465,0,0,1.6879122257232666,0,0,1.2994799613952637
1.459240546,0,0,1.8531121015548706,0,0,1.452359914779663
1.460234792,0,0,1.778891921043396,0,0,1.8345600366592407
1.461234649,0,0,1.8291701078414917,0,0,0.9937199950218201
1.4622339690000001,0,0,2.1116859912872314,0,0,1.1466000080108643
1.463234808,0,0,2.0661959648132324,0,0,1.2994799613952637
1.464234239,0,0,2.0207061767578125,0,0,0.5350799560546875
1.465234095,0,0,1.886630892753601,0,0,1.2994799613952637
1.466234082,0,0,1.742978811264038,0,0,1.223039984703064
1.467236328,0,0,1.9177556037902832,0,0,1.070159912109375
1.468234037,0,0,1.7932571172714233,0,0,1.375920057296753
1.469234282,0,0,1.4724340438842773,0,0,1.452359914779663
1.470234343,0,0,1.3910311460494995,0,0,0.8408399820327759
1.471234533,0,0,1.6136919260025024,0,0,0.7644000053405762
1.472234279,0,0,1.7956513166427612,0,0,0.611519992351532
1.473234414,0,0,1.3072341680526733,0,0,0.6879600286483765
1.474234789,0,0,1.414973258972168,0,0,0.3822000026702881
1.475234387,0,0,1.4676456451416016,0,0,0.9172800183296204
1.476233892,0,0,1.3503297567367554,0,0,0.152879998087883
1.477233971,0,0,1.7286136150360107,0,0,1.1466000080108643
1.478480714,0,0,1.8387469053268433,0,0,1.758120059967041
1.479274999,0,0,1.680729627609253,0,0,0.8408399820327759
1.480238783,0,0,1.680729627609253,0,0,1.9874399900436401
1.48123564,0,0,1.6280571222305298,0,0,1.5288000106811523
1.482235497,0,0,1.9512743949890137,0,0,1.223039984703064
1.483238798,0,0,2.056619167327881,0,0,1.9109998941421509
1.484235044,0,0,1.9393033981323242,0,0,1.2994799613952637
1.485234993,0,0,2.051830768585205,0,0,0.6879600286483765
1.486234906,0,0,2.363077163696289,0,0,0.9937199950218201
1.487235707,0,0,2.516305923461914,0,0,1.1466000080108643
1.48823486,0,0,2.145204782485962,0,0,1.605239987373352
1.489235032,0,0,1.764526605606079,0,0,1.223039984703064
1.490234889,0,0,1.4939818382263184,0,0,1.070159912109375
1.491236042,0,0,1.3431471586227417,0,0,0.6879600286483765
1.492235177,0,0,1.137245774269104,0,0,0.4586400091648102
1.493239349,0,0,1.0295066833496094,0,0,0.152879998087883
1.494234891,0,0,1.0295066833496094,0,0,0.2293200045824051
1.4952359880000001,0,0,1.1324573755264282,0,0,0
1.496234919,0,0,1.7860745191574097,0,0,0.6879600286483765
1.497252572,0,0,2.0039467811584473,0,0,1.375920057296753
1.498235263,0,0,1.8794482946395874,0,0,1.375920057296753
1.499236101,0,0,1.6879122257232666,0,0,2.14031982421875
1.500234847,0,0,1.479616641998291,0,0,1.452359914779663
1.501234963,0,0,1.656787633895874,0,0,1.6816799640655518
1.502235135,0,0,1.5490485429763794,0,0,1.5288000106811523
1.503235992,0,0,1.9249382019042969,0,0,0.9172800183296204
1.504234904,0,0,2.2912509441375732,0,0,1.223039984703064
1.5052343910000001,0,0,2.5665841102600098,0,0,1.223039984703064
1.5062349149999998,0,0,2.612074136734009,0,0,1.1466000080108643
1.5072359199999998,0,0,1.9800047874450684,0,0,1.5288000106811523
1.508234665,0,0,1.845929503440857,0,0,0.6879600286483765
1.509234615,0,0,1.50355863571167,0,0,1.452359914779663
1.5102349529999999,0,0,0.9409212470054626,0,0,0.3822000026702881
1.511235014,0,0,0.9457096457481384,0,0,0.0764399990439415
1.5122350930000001,0,0,0.8547300100326538,0,0,0.3822000026702881
1.513234969,0,0,1.2066776752471924,0,0,-0.8408399820327759
1.514234714,0,0,1.7381904125213623,0,0,0.3822000026702881
1.515234608,0,0,1.7884687185287476,0,0,0.7644000053405762
1.5162341129999999,0,0,1.8770540952682495,0,0,1.5288000106811523
1.517232211,0,0,1.6735470294952393,0,0,2.06387996673584
1.518232327,0,0,1.5610195398330688,0,0,1.605239987373352
1.519238351,0,0,1.4484920501708984,0,0,2.06387996673584
1.52023506,0,0,1.5705963373184204,0,0,1.1466000080108643
1.521234417,0,0,1.8100165128707886,0,0,1.1466000080108643
1.5222421069999998,0,0,2.3271639347076416,0,0,1.070159912109375
1.523236612,0,0,2.6431987285614014,0,0,1.2994799613952637
1.52423458,0,0,2.5067291259765625,0,0,1.8345600366592407
1.525234585,0,0,2.382230758666992,0,0,1.070159912109375
1.526234553,0,0,1.946485996246338,0,0,1.605239987373352
1.527235484,0,0,1.091755986213684,0,0,1.070159912109375
1.52823423,0,0,0.730231523513794,0,0,0.4586400091648102
1.529234494,0,0,0.6943184733390808,0,0,0
1.530233944,0,0,1.5682021379470825,0,0,0.2293200045824051
1.531234134,0,0,1.764526605606079,0,0,0.611519992351532
1.532234528,0,0,2.0661959648132324,0,0,0.8408399820327759
1.533234644,0,0,2.315192937850952,0,0,1.6816799640655518
1.534234705,0,0,2.032677173614502,0,0,1.758120059967041
1.535235302,0,0,1.3958195447921753,0,0,1.8345600366592407
1.536241733,0,0,1.2545616626739502,0,0,1.758120059967041
1.537244275,0,0,1.7357962131500244,0,0,0.6879600286483765
1.538235744,0,0,2.403778553009033,0,0,1.070159912109375
1.539236119,0,0,2.513911724090576,0,0,1.070159912109375
1.540234346,0,0,2.5474305152893066,0,0,0.9937199950218201
1.541234592,0,0,2.3965959548950195,0,0,1.452359914779663
1.5422343189999999,0,0,1.4437036514282227,0,0,0.7644000053405762
1.543235139,0,0,0.5386953949928284,0,0,0.3822000026702881
1.54431681,0,0,0.33997663855552673,0,0,0.2293200045824051
1.545238705,0,0,0.8690952062606812,0,0,-0.5350799560546875
1.54623534,0,0,1.3838485479354858,0,0,0
1.547236271,0,0,1.5682021379470825,0,0,0.5350799560546875
1.548234387,0,0,1.8579005002975464,0,0,0.9172800183296204
1.5492346700000001,0,0,1.8938134908676147,0,0,1.8345600366592407
1.5502345640000001,0,0,1.4700398445129395,0,0,1.9874399900436401
1.551234735,0,0,1.4101848602294922,0,0,1.6816799640655518
1.552233963,0,0,1.889025092124939,0,0,1.605239987373352
1.5532348200000001,0,0,2.408566951751709,0,0,1.8345600366592407
1.554234603,0,0,2.494758129119873,0,0,1.452359914779663
1.5552346080000001,0,0,2.9735984802246094,0,0,1.375920057296753
1.556234409,0,0,2.741360902786255,0,0,1.8345600366592407
1.5572346179999998,0,0,1.6543933153152466,0,0,0.9172800183296204
1.5582342900000001,0,0,0.9744400978088379,0,0,0.9937199950218201
1.559234498,0,0,0.7350199222564697,0,0,0
1.560234652,0,0,1.2066776752471924,0,0,-0.152879998087883
1.561234694,0,0,1.235408067703247,0,0,0.152879998087883
1.562234347,0,0,1.7334020137786865,0,0,0
1.5632359070000001,0,0,1.9560627937316895,0,0,1.452359914779663
1.564235931,0,0,1.357512354850769,0,0,1.8345600366592407
1.565257788,0,0,0.9864110946655273,0,0,1.605239987373352
1.566243274,0,0,1.3311761617660522,0,0,1.758120059967041
1.567236372,0,0,1.7070658206939697,0,0,1.452359914779663
1.568232655,0,0,1.941697597503662,0,0,1.452359914779663
1.569232197,0,0,2.492363929748535,0,0,1.2994799613952637
1.570231684,0,0,2.674323320388794,0,0,1.375920057296753
1.5712328740000001,0,0,2.233790159225464,0,0,1.452359914779663
1.572232027,0,0,1.8315643072128296,0,0,0.9172800183296204
1.573231588,0,0,1.9752163887023926,0,0,0.611519992351532
1.5742321860000001,0,0,1.8339585065841675,0,0,0.9937199950218201
1.5752327830000001,0,0,1.5897499322891235,0,0,0.9172800183296204
1.576232288,0,0,1.6376339197158813,0,0,0.6879600286483765
1.577232293,0,0,1.434126853942871,0,0,1.375920057296753
1.5782321320000001,0,0,1.0749965906143188,0,0,0.6879600286483765
1.579235711,0,0,1.0079588890075684,0,0,0.9172800183296204
1.580234864,0,0,1.400607943534851,0,0,0.611519992351532
1.581234443,0,0,1.778891921043396,0,0,0.6879600286483765
1.582234745,0,0,2.1547815799713135,0,0,0.7644000053405762
1.583235657,0,0,2.2912509441375732,0,0,1.375920057296753
1.584234773,0,0,1.7262194156646729,0,0,1.1466000080108643
1.5852345190000001,0,0,1.2258312702178955,0,0,0.8408399820327759
1.58624358,0,0,1.3527239561080933,0,0,0.9172800183296204
1.587236326,0,0,1.5442601442337036,0,0,0.9937199950218201
1.588234497,0,0,1.7070658206939697,0,0,0.8408399820327759
1.589234688,0,0,2.118868589401245,0,0,0.8408399820327759
1.59023423,0,0,1.7717092037200928,0,0,1.9874399900436401
1.591235161,0,0,1.3670891523361206,0,0,1.2994799613952637
1.592234721,0,0,1.6065093278884888,0,0,1.070159912109375
1.593234245,0,0,1.8602946996688843,0,0,1.375920057296753
1.594234509,0,0,1.8483237028121948,0,0,0.7644000053405762
1.595235014,0,0,2.1978771686553955,0,0,0.3822000026702881
1.5962345930000001,0,0,2.31758713722229,0,0,1.2994799613952637
1.597234265,0,0,1.8387469053268433,0,0,1.1466000080108643
1.598234289,0,0,1.525106430053711,0,0,0
1.59923546,0,0,1.4628572463989258,0,0,0.611519992351532
1.60023428,0,0,1.3000515699386597,0,0,1.2994799613952637
1.6012345080000001,0,0,1.45806884765625,0,0,0.5350799560546875
1.6022343829999999,0,0,1.7286136150360107,0,0,1.452359914779663
1.6032355360000001,0,0,1.50355863571167,0,0,1.9109998941421509
1.604234412,0,0,1.7573440074920654,0,0,0.7644000053405762
1.605234584,0,0,2.0853497982025146,0,0,2.06387996673584
1.606234422,0,0,2.140416383743286,0,0,1.605239987373352
1.607235464,0,0,2.38462495803833,0,0,0.9937199950218201
1.608234451,0,0,2.4396915435791016,0,0,1.9109998941421509
1.609234493,0,0,1.4748282432556152,0,0,0.8408399820327759
1.6102433120000001,0,0,1.1635819673538208,0,0,0
1.6112352250000002,0,0,1.2401964664459229,0,0,0.5350799560546875
1.612234619,0,0,1.2042834758758545,0,0,0.305759996175766
1.61323405,0,0,1.6065093278884888,0,0,-0.4586400091648102
1.6142343879999999,0,0,1.9105730056762695,0,0,1.223039984703064
1.615235523,0,0,1.455674648284912,0,0,0.8408399820327759
1.616233973,0,0,1.4867992401123047,0,0,0.611519992351532
1.6172341810000002,0,0,1.6496049165725708,0,0,2.06387996673584
1.6182345379999998,0,0,1.3335703611373901,0,0,1.605239987373352
1.6192355059999999,0,0,1.5921441316604614,0,0,0.4586400091648102
1.6202344929999999,0,0,1.7884687185287476,0,0,1.223039984703064
1.621234405,0,0,1.170764684677124,0,0,0.9937199950218201
1.62223491,0,0,1.4269442558288574,0,0,0.152879998087883
1.623235341,0,0,1.9081788063049316,0,0,0.9937199950218201
1.624234624,0,0,1.8914192914962769,0,0,0.8408399820327759
1.625236722,0,0,2.494758129119873,0,0,0.611519992351532
1.6262340050000001,0,0,2.5043349266052246,0,0,2.3696401119232178
1.6272356399999999,0,0,2.013523578643799,0,0,2.2932000160217285
1.6282344960000001,0,0,2.2146365642547607,0,0,1.452359914779663
1.629234557,0,0,2.0398597717285156,0,0,2.904719829559326
1.630234321,0,0,1.5753847360610962,0,0,1.452359914779663
1.631235623,0,0,1.8986018896102905,0,0,0.5350799560546875
1.632234332,0,0,1.3742717504501343,0,0,1.375920057296753
1.633234485,0,0,1.173158884048462,0,0,0
1.634234305,0,0,1.7262194156646729,0,0,0
1.6352347539999998,0,0,1.6950948238372803,0,0,0.9172800183296204
1.636234407,0,0,2.121262788772583,0,0,0
1.637234283,0,0,2.2218191623687744,0,0,1.452359914779663
1.6382338619999999,0,0,1.647210717201233,0,0,1.8345600366592407
1.639234386,0,0,1.5203180313110352,0,0,0.9172800183296204
1.640234465,0,0,1.460463047027588,0,0,2.14031982421875
1.6412345990000001,0,0,1.01753568649292,0,0,1.223039984703064
1.642234401,0,0,1.5466543436050415,0,0,0.2293200045824051
1.643235665,0,0,0.8475474119186401,0,0,0.7644000053405762
1.644234096,0,0,1.0678139925003052,0,0,0
1.645246694,0,0,1.4173674583435059,0,0,0
1.646235977,0,0,1.5729905366897583,0,0,0.3822000026702881
1.647236408,0,0,2.470816135406494,0,0,0.9937199950218201
1.648235135,0,0,2.4588451385498047,0,0,2.14031982421875
1.6492345290000001,0,0,2.0470423698425293,0,0,2.14031982421875
1.6502457750000001,0,0,2.0661959648132324,0,0,2.446079969406128
1.6512359650000001,0,0,1.292868971824646,0,0,2.6754000186920166
1.6522345999999999,0,0,1.4628572463989258,0,0,1.1466000080108643
1.653234383,0,0,1.8818424940109253,0,0,1.452359914779663
1.654234591,0,0,1.3192051649093628,0,0,0.7644000053405762
1.6552355589999999,0,0,1.599326729774475,0,0,-0.3822000026702881
1.656234176,0,0,1.922544002532959,0,0,0.9937199950218201
1.657234625,0,0,1.9153614044189453,0,0,-0.305759996175766
1.658234389,0,0,2.9281086921691895,0,0,1.2994799613952637
1.659235357,0,0,2.049436569213867,0,0,1.9874399900436401
1.660234103,0,0,1.9776105880737305,0,0,0.6879600286483765
1.661234571,0,0,1.5155296325683594,0,0,2.751840114593506
1.662234354,0,0,1.522712230682373,0,0,1.375920057296753
1.663235526,0,0,1.1899182796478271,0,0,0.7644000053405762
1.664234531,0,0,1.414973258972168,0,0,2.2932000160217285
1.665234258,0,0,0.29209262132644653,0,0,-0.8408399820327759
1.6662345410000001,0,0,1.3192051649093628,0,0,0.152879998087883
1.667241546,0,0,0.9648633003234863,0,0,0.7644000053405762
1.668234996,0,0,2.2840683460235596,0,0,-0.611519992351532
1.669234501,0,0,2.691082715988159,0,0,2.3696401119232178
1.6702345429999998,0,0,2.38462495803833,0,0,0.5350799560546875
1.671234937,0,0,2.2649147510528564,0,0,2.446079969406128
1.672234405,0,0,1.2258312702178955,0,0,3.2869198322296143
1.673234466,0,0,1.3646949529647827,0,0,0.4586400091648102
1.6742344340000002,0,0,1.0055646896362305,0,0,2.5989599227905273
1.675235513,0,0,0.6057330369949341,0,0,0.5350799560546875
1.676234462,0,0,1.3192051649093628,0,0,-0.3822000026702881
1.6772340780000001,0,0,1.403002142906189,0,0,1.2994799613952637
1.67826399,0,0,2.827552318572998,0,0,-0.611519992351532
1.6792690879999999,0,0,3.3255462646484375,0,0,2.751840114593506
1.680286482,0,0,2.365471363067627,0,0,1.1466000080108643
1.681264821,0,0,2.248155355453491,0,0,2.2167599201202393
1.682290492,0,0,1.5490485429763794,0,0,3.6691200733184814
1.683321367,0,0,1.8387469053268433,0,0,0.2293200045824051
1.684292613,0,0,1.8818424940109253,0,0,2.6754000186920166
1.685317859,0,0,1.338358759880066,0,0,0.2293200045824051
1.6863023639999999,0,0,1.4269442558288574,0,0,0.152879998087883
1.687296425,0,0,1.0031704902648926,0,0,1.223039984703064
1.688285652,0,0,1.7549498081207275,0,0,-1.758120059967041
1.689265583,0,0,1.900996208190918,0,0,1.8345600366592407
1.690285681,0,0,1.5705963373184204,0,0,-0.8408399820327759
1.691281241,0,0,1.7980455160140991,0,0,1.2994799613952637
1.692366968,0,0,1.3527239561080933,0,0,1.758120059967041
1.693318992,0,0,1.4939818382263184,0,0,0.0764399990439415
1.694343367,0,0,0.912190854549408,0,0,2.446079969406128
1.695327039,0,0,0.6488286852836609,0,0,0.4586400091648102
1.696283267,0,0,0.3423708379268646,0,0,0.611519992351532
1.6973575300000001,0,0,0.950498104095459,0,0,0.305759996175766
1.698317369,0,0,2.499546527862549,0,0,-0.611519992351532
1.699297504,0,0,2.4660277366638184,0,0,2.2167599201202393
1.700280787,0,0,2.9281086921691895,0,0,0.611519992351532
1.701307292,0,0,2.583343744277954,0,0,2.9811599254608154
1.702283482,0,0,2.1068975925445557,0,0,1.9874399900436401
1.7032984500000001,0,0,1.4197616577148438,0,0,1.8345600366592407
1.704290104,0,0,0.45250412821769714,0,0,1.223039984703064
1.705309775,0,0,0.7757213711738586,0,0,-0.305759996175766
1.706272984,0,0,0.4668693244457245,0,0,0.8408399820327759
1.7072590079999999,0,0,1.7621324062347412,0,0,-1.8345600366592407
1.708251217,0,0,2.3942017555236816,0,0,0.152879998087883
1.709259018,0,0,2.1284453868865967,0,0,0.9937199950218201
1.710240838,0,0,2.298433542251587,0,0,0.0764399990439415
1.711241084,0,0,1.3694833517074585,0,0,2.2932000160217285
1.71223496,0,0,1.3120225667953491,0,0,0.5350799560546875
1.7132442239999999,0,0,0.45489832758903503,0,0,0.9937199950218201
1.7142516730000001,0,0,0.33039984107017517,0,0,0.0764399990439415
1.7152404190000001,0,0,0.4165911078453064,0,0,0.305759996175766
1.716236813,0,0,0.8044517636299133,0,0,-0.2293200045824051
1.717268596,0,0,2.477998733520508,0,0,-0.5350799560546875
1.718285878,0,0,2.5043349266052246,0,0,2.2932000160217285
1.71927018,0,0,2.5474305152893066,0,0,0.8408399820327759
1.72025287,0,0,2.188300371170044,0,0,2.2167599201202393
1.7212453939999999,0,0,1.316810965538025,0,0,2.522519826889038
1.7222547879999999,0,0,1.0534487962722778,0,0,0.9172800183296204
1.723281959,0,0,0.45010992884635925,0,0,0.8408399820327759
1.7242737049999999,0,0,0.950498104095459,0,0,-0.305759996175766
1.725244711,0,0,0.689530074596405,0,0,0.7644000053405762
1.726249975,0,0,1.8722656965255737,0,0,-0.9172800183296204
1.7272651460000001,0,0,3.098097085952759,0,0,1.5288000106811523
1.7295622449999999,0,0,2.6360161304473877,0,0,0.9172800183296204
1.729767354,0,0,2.6360161304473877,0,0,0.7644000053405762
1.7302617169999999,0,0,1.482010841369629,0,0,2.9811599254608154
1.731305666,0,0,1.1228805780410767,0,0,1.5288000106811523
1.732274949,0,0,0.5985504388809204,0,0,1.375920057296753
1.733260233,0,0,0.30885201692581177,0,0,0
1.7342669229999998,0,0,0.9145850539207458,0,0,0.152879998087883
1.735260539,0,0,0.9050082564353943,0,0,0.305759996175766
1.7362655070000002,0,0,2.473210334777832,0,0,-0.9937199950218201
1.737255179,0,0,2.473210334777832,0,0,1.8345600366592407
1.738265202,0,0,2.0925323963165283,0,0,1.1466000080108643
1.7392756889999998,0,0,1.9608511924743652,0,0,1.452359914779663
1.740270712,0,0,1.1827356815338135,0,0,2.2932000160217285
1.741271495,0,0,1.2545616626739502,0,0,0.305759996175766
1.7422579630000001,0,0,0.6991068720817566,0,0,1.223039984703064
1.743259061,0,0,0.7996633648872375,0,0,-0.305759996175766
1.744254566,0,0,0.646434485912323,0,0,0.6879600286483765
1.74525459,0,0,1.2497732639312744,0,0,-0.2293200045824051
1.746255354,0,0,2.322375535964966,0,0,0.3822000026702881
1.747263711,0,0,1.8914192914962769,0,0,2.06387996673584
1.748257161,0,0,2.0422539710998535,0,0,0.152879998087883
1.749256129,0,0,1.6974890232086182,0,0,2.06387996673584
1.750254097,0,0,1.414973258972168,0,0,0.9172800183296204
1.751255861,0,0,1.3958195447921753,0,0,0.611519992351532
1.752253329,0,0,0.9026140570640564,0,0,1.2994799613952637
1.753269241,0,0,1.2976573705673218,0,0,0.0764399990439415
1.7542649319999999,0,0,1.2114660739898682,0,0,1.070159912109375
1.755267603,0,0,2.3056161403656006,0,0,-0.3822000026702881
1.7562563679999998,0,0,2.6671407222747803,0,0,2.2932000160217285
1.757263965,0,0,1.987187385559082,0,0,1.452359914779663
1.758264619,0,0,1.501164436340332,0,0,0.6879600286483765
1.759263383,0,0,0.6392518281936646,0,0,2.3696401119232178
1.7602882210000002,0,0,0.6153098344802856,0,0,-0.4586400091648102
1.761291504,0,0,0.3208230137825012,0,0,0
1.762261954,0,0,0.5841852426528931,0,0,-0.3822000026702881
1.76327194,0,0,0.8834604024887085,0,0,-0.9937199950218201
1.764261168,0,0,1.2689268589019775,0,0,-9.707880020141602
1.765264543,0,0,2.5498247146606445,0,0,-0.4586400091648102
1.766264215,0,0,2.070984363555908,0,0,1.8345600366592407
1.767276294,0,0,1.5610195398330688,0,0,0.9172800183296204
1.768255281,0,0,1.2832920551300049,0,0,1.8345600366592407
1.7692560259999999,0,0,0.3447650372982025,0,0,2.2932000160217285
1.770277439,0,0,0.6320692300796509,0,0,0.0764399990439415
1.771296388,0,0,0.4836287498474121,0,0,1.2994799613952637
1.772288263,0,0,0.9696516990661621,0,0,-0.6879600286483765
1.773295083,0,0,1.1516109704971313,0,0,0.152879998087883
1.7742841440000001,0,0,1.7908629179000854,0,0,-9.784319877624512
1.775293704,0,0,2.9975404739379883,0,0,-0.2293200045824051
1.7762889689999999,0,0,2.4133553504943848,0,0,2.5989599227905273
1.777294844,0,0,1.9967641830444336,0,0,0.2293200045824051
1.778308775,0,0,1.699883222579956,0,0,2.446079969406128
1.779292595,0,0,0.8068459630012512,0,0,2.06387996673584
1.780280137,0,0,0.9265560507774353,0,0,-0.4586400091648102
1.7812890129999999,0,0,0.3878606855869293,0,0,1.758120059967041
1.78236172,0,0,0.45489832758903503,0,0,-0.6879600286483765
1.783370762,0,0,0.5793967843055725,0,0,-0.2293200045824051
1.784290361,0,0,0.8164227604866028,0,0,-9.402119636535645
1.7853240879999999,0,0,2.47560453414917,0,0,-1.1466000080108643
1.78630526,0,0,2.3295583724975586,0,0,2.3696401119232178
1.7872947099999998,0,0,2.006340980529785,0,0,0
1.788354658,0,0,1.5394717454910278,0,0,1.758120059967041
1.789318368,0,0,0.5410895943641663,0,0,2.2932000160217285
1.7902820400000001,0,0,0.6823474764823914,0,0,-0.4586400091648102
1.791323433,0,0,0.3878606855869293,0,0,1.8345600366592407
1.792296235,0,0,0.08858546614646912,0,0,0
1.793304147,0,0,0.8667010068893433,0,0,-0.9937199950218201
1.794277764,0,0,1.1324573755264282,0,0,0.611519992351532
1.795291491,0,0,2.4372973442077637,0,0,-1.605239987373352
1.796278515,0,0,3.160346269607544,0,0,2.14031982421875
1.797276279,0,0,2.008735179901123,0,0,1.758120059967041
1.798246803,0,0,1.522712230682373,0,0,1.1466000080108643
1.7992665300000001,0,0,0.8643068075180054,0,0,2.5989599227905273
1.800259369,0,0,0.2537853717803955,0,0,0.2293200045824051
1.801416112,0,0,1.1109095811843872,0,0,0
1.802293527,0,0,0.7326257228851318,0,0,1.070159912109375
1.803249329,0,0,0.9576807022094727,0,0,-1.5288000106811523
1.804238223,0,0,1.6974890232086182,0,0,0.305759996175766
1.805237468,0,0,1.6711528301239014,0,0,-0.152879998087883
1.806424619,0,0,2.736572504043579,0,0,0
1.807239738,0,0,2.027888774871826,0,0,1.9874399900436401
1.808237984,0,0,1.3503297567367554,0,0,1.375920057296753
1.809237285,0,0,1.3431471586227417,0,0,1.605239987373352
1.810237068,0,0,0.9097966551780701,0,0,1.6816799640655518
1.811242795,0,0,0.8954314589500427,0,0,0.611519992351532
1.8122362079999998,0,0,1.2186486721038818,0,0,0.3822000026702881
1.813237379,0,0,0.5506663918495178,0,0,-0.152879998087883
1.81423581,0,0,0.6631938815116882,0,0,-0.611519992351532
1.815247223,0,0,0.8307880163192749,0,0,-0.9937199950218201
1.816242524,0,0,1.1827356815338135,0,0,-0.611519992351532
1.817240622,0,0,2.183511972427368,0,0,0
1.818241683,0,0,1.9512743949890137,0,0,0.6879600286483765
1.819241984,0,0,1.278503656387329,0,0,1.9874399900436401
1.820240656,0,0,0.9983820915222168,0,0,0.9172800183296204
1.8212398269999999,0,0,0.7038952708244324,0,0,1.758120059967041
1.8222375180000001,0,0,0.727837324142456,0,0,1.2994799613952637
1.8232459300000001,0,0,1.091755986213684,0,0,0.3822000026702881
1.824237454,0,0,1.3982137441635132,0,0,0.3822000026702881
1.825236885,0,0,1.4724340438842773,0,0,-0.3822000026702881
1.826909862,0,0,1.4724340438842773,0,0,-0.9937199950218201
1.827241673,0,0,1.678335428237915,0,0,0.5350799560546875
1.828270788,0,0,1.845929503440857,0,0,0.4586400091648102
1.829309071,0,0,2.1045033931732178,0,0,0.4586400091648102
1.8303158910000001,0,0,1.7070658206939697,0,0,2.2167599201202393
1.8312869520000001,0,0,1.015141487121582,0,0,1.375920057296753
1.832256457,0,0,0.9265560507774353,0,0,1.070159912109375
1.833233777,0,0,0.42377370595932007,0,0,1.6816799640655518
1.834232708,0,0,0.7038952708244324,0,0,0.2293200045824051
1.8352361579999998,0,0,1.3982137441635132,0,0,-0.5350799560546875
1.836232459,0,0,1.4724340438842773,0,0,0.6879600286483765
1.837232038,0,0,1.414973258972168,0,0,0.2293200045824051
1.838243265,0,0,1.5729905366897583,0,0,-0.4586400091648102
1.839233048,0,0,1.479616641998291,0,0,0.9172800183296204
1.8402325720000001,0,0,1.625662922859192,0,0,0.5350799560546875
1.841232281,0,0,1.5442601442337036,0,0,0.152879998087883
1.8422440450000002,0,0,1.01753568649292,0,0,2.06387996673584
1.8432335499999999,0,0,0.7948749661445618,0,0,0.4586400091648102
1.844232555,0,0,0.8810662031173706,0,0,0.9172800183296204
1.8452322460000001,0,0,0.9768342971801758,0,0,1.8345600366592407
1.84623201,0,0,1.1468225717544556,0,0,0.305759996175766
1.8472329219999999,0,0,1.525106430053711,0,0,0
1.848232131,0,0,1.5921441316604614,0,0,1.375920057296753
1.849232136,0,0,1.0079588890075684,0,0,0.2293200045824051
1.850231678,0,0,1.0869675874710083,0,0,-0.4586400091648102
1.851235054,0,0,1.7501614093780518,0,0,0.9937199950218201
1.852232318,0,0,1.4293384552001953,0,0,-0.305759996175766
1.853232008,0,0,1.7956513166427612,0,0,0.305759996175766
1.8542316250000002,0,0,1.5083470344543457,0,0,1.8345600366592407
1.855232593,0,0,0.8810662031173706,0,0,0.8408399820327759
1.856232246,0,0,0.9792284965515137,0,0,0.9172800183296204
1.857314916,0,0,1.1516109704971313,0,0,1.605239987373352
1.8582395520000001,0,0,1.0797849893569946,0,0,1.1466000080108643
1.8592335389999999,0,0,1.5873557329177856,0,0,0.611519992351532
1.8602323219999999,0,0,1.7142484188079834,0,0,0.7644000053405762
1.8612322159999999,0,0,1.2449848651885986,0,0,0.4586400091648102
1.86223235,0,0,1.01753568649292,0,0,0.6879600286483765
1.863237152,0,0,1.5466543436050415,0,0,0
1.864235564,0,0,1.8171991109848022,0,0,0.611519992351532
1.8652462170000002,0,0,1.8291701078414917,0,0,0.5350799560546875
1.866235871,0,0,1.4700398445129395,0,0,0.6879600286483765
1.8672374870000001,0,0,0.8523358106613159,0,0,1.2994799613952637
1.868235344,0,0,0.5171475410461426,0,0,1.070159912109375
1.869235127,0,0,0.7086837291717529,0,0,0.3822000026702881
1.8702353170000001,0,0,1.1204863786697388,0,0,0.4586400091648102
1.871234248,0,0,1.4748282432556152,0,0,0.8408399820327759
1.87223166,0,0,1.5466543436050415,0,0,0.6879600286483765
1.873232517,0,0,1.8315643072128296,0,0,0.4586400091648102
1.87423217,0,0,1.256955862045288,0,0,0.305759996175766
1.87523625,0,0,0.9959878921508789,0,0,0.4586400091648102
1.876234607,0,0,0.7565677165985107,0,0,-0.305759996175766
1.877235075,0,0,1.292868971824646,0,0,0.0764399990439415
1.87823508,0,0,1.216254472732544,0,0,0.0764399990439415
1.8792337510000001,0,0,1.5825673341751099,0,0,0.611519992351532
1.8802325899999999,0,0,1.4437036514282227,0,0,0.7644000053405762
1.881232373,0,0,1.0606313943862915,0,0,1.605239987373352
1.882232248,0,0,0.9313444495201111,0,0,1.452359914779663
1.883235438,0,0,1.290474772453308,0,0,0.9937199950218201
1.884234703,0,0,1.6208745241165161,0,0,1.1466000080108643
1.8852344109999999,0,0,1.6879122257232666,0,0,1.2994799613952637
1.8862343049999999,0,0,2.0039467811584473,0,0,0.4586400091648102
1.887234885,0,0,2.1164743900299072,0,0,0.9937199950218201
1.888234408,0,0,1.3862427473068237,0,0,0.7644000053405762
1.8892345609999999,0,0,0.8068459630012512,0,0,0.6879600286483765
1.890234566,0,0,0.8044517636299133,0,0,-0.2293200045824051
1.891235942,0,0,1.161187767982483,0,0,-0.305759996175766
1.892234632,0,0,1.1348515748977661,0,0,0
1.893234526,0,0,1.403002142906189,0,0,0.305759996175766
1.894233865,0,0,1.2497732639312744,0,0,0.8408399820327759
1.89523587,0,0,0.7374141216278076,0,0,1.1466000080108643
1.8962345040000002,0,0,0.5674257874488831,0,0,0.7644000053405762
1.89723412,0,0,1.039083480834961,0,0,0.7644000053405762
1.898234403,0,0,1.886630892753601,0,0,0.611519992351532
1.8992357420000001,0,0,2.0805611610412598,0,0,1.2994799613952637
1.900234432,0,0,2.2409727573394775,0,0,0.7644000053405762
1.9012347520000001,0,0,2.169146776199341,0,0,1.375920057296753
1.902234405,0,0,1.216254472732544,0,0,1.375920057296753
1.903235021,0,0,0.45250412821769714,0,0,0.611519992351532
1.904234156,0,0,0.18914192914962769,0,0,0.0764399990439415
1.905234031,0,0,1.0845733880996704,0,0,-0.9172800183296204
1.906247536,0,0,1.534683346748352,0,0,-0.5350799560546875
1.9072439860000001,0,0,1.4652514457702637,0,0,0.305759996175766
1.908236547,0,0,1.115697979927063,0,0,0.2293200045824051
1.909235515,0,0,1.2114660739898682,0,0,0.8408399820327759
1.910235557,0,0,0.49320554733276367,0,0,1.070159912109375
1.9112364689999999,0,0,0.507570743560791,0,0,1.1466000080108643
1.912235197,0,0,1.2282254695892334,0,0,0.4586400091648102
1.913235091,0,0,2.0422539710998535,0,0,0.8408399820327759
1.914235133,0,0,2.1116859912872314,0,0,1.375920057296753
1.9152354900000002,0,0,2.2649147510528564,0,0,1.2994799613952637
1.916234958,0,0,2.3702597618103027,0,0,1.223039984703064
1.917234981,0,0,1.6376339197158813,0,0,1.2994799613952637
1.918234616,0,0,0.8786720037460327,0,0,0.6879600286483765
1.919235695,0,0,0.3926490843296051,0,0,0.0764399990439415
1.920235089,0,0,1.0342950820922852,0,0,-0.7644000053405762
1.9212350759999999,0,0,1.2042834758758545,0,0,0
1.922234673,0,0,1.3096283674240112,0,0,-0.152879998087883
1.9232353450000002,0,0,1.158793568611145,0,0,0
1.9242351279999999,0,0,0.9481038451194763,0,0,0.9172800183296204
1.925235077,0,0,0.6488286852836609,0,0,0.9172800183296204
1.9262346940000001,0,0,0.3495534360408783,0,0,0.7644000053405762
1.927235884,0,0,0.8044517636299133,0,0,0.5350799560546875
1.928234944,0,0,1.5275006294250488,0,0,0.5350799560546875
1.929234838,0,0,2.1116859912872314,0,0,1.1466000080108643
1.9302348249999999,0,0,2.3295583724975586,0,0,0.9172800183296204
1.9312354040000002,0,0,2.432508945465088,0,0,1.452359914779663
1.93223502,0,0,2.169146776199341,0,0,1.452359914779663
1.9332347479999998,0,0,1.5083470344543457,0,0,1.758120059967041
1.934234956,0,0,0.608127236366272,0,0,0.7644000053405762
1.935234906,0,0,0.22744916379451752,0,0,0.4586400091648102
1.936234855,0,0,0.6536170840263367,0,0,0
1.937234379,0,0,1.5682021379470825,0,0,-0.5350799560546875
1.938235051,0,0,1.5131354331970215,0,0,0.152879998087883
1.939235963,0,0,1.4867992401123047,0,0,0
1.940234357,0,0,0.9696516990661621,0,0,0.7644000053405762
1.9412347699999999,0,0,0.9217676520347595,0,0,0.7644000053405762
1.94223496,0,0,0.7781155705451965,0,0,0.7644000053405762
1.943235909,0,0,0.790086567401886,0,0,0.7644000053405762
1.9442738400000001,0,0,1.2042834758758545,0,0,0.5350799560546875
1.94524029,0,0,1.534683346748352,0,0,0.9937199950218201
1.946235239,0,0,2.300827741622925,0,0,1.1466000080108643
1.9472358,0,0,2.2361843585968018,0,0,1.223039984703064
1.948234916,0,0,1.9129672050476074,0,0,1.375920057296753
1.94923544,0,0,1.8267759084701538,0,0,0.9172800183296204
1.950234963,0,0,1.403002142906189,0,0,1.223039984703064
1.9512364309999999,0,0,0.7972691655158997,0,0,0.4586400091648102
1.952234955,0,0,0.5530605912208557,0,0,-0.3822000026702881
1.953235016,0,0,0.35673606395721436,0,0,-0.152879998087883
1.9542348729999999,0,0,1.1228805780410767,0,0,-1.223039984703064
1.9552339330000001,0,0,1.53707754611969,0,0,-0.5350799560546875
1.956232253,0,0,1.1755530834197998,0,0,0.0764399990439415
1.957232221,0,0,1.0127472877502441,0,0,0.8408399820327759
1.95823193,0,0,0.3519476354122162,0,0,1.223039984703064
1.959235898,0,0,0.7613561153411865,0,0,0.5350799560546875
1.960234755,0,0,0.9840168952941895,0,0,1.223039984703064
1.9612345009999999,0,0,1.1228805780410767,0,0,0.4586400091648102
1.9622337650000001,0,0,1.86508309841156,0,0,1.605239987373352
1.96398876,0,0,1.86508309841156,0,0,1.758120059967041
1.9642442199999999,0,0,2.293645143508911,0,0,0.6879600286483765
1.965239188,0,0,2.389413356781006,0,0,1.9109998941421509
1.966235711,0,0,2.0853497982025146,0,0,1.452359914779663
1.967246901,0,0,1.6903064250946045,0,0,1.375920057296753
1.9682347770000002,0,0,1.5275006294250488,0,0,1.2994799613952637
1.9692418379999999,0,0,1.194706678390503,0,0,0.152879998087883
1.970274083,0,0,0.9097966551780701,0,0,0.2293200045824051
1.971265995,0,0,0.6991068720817566,0,0,-0.305759996175766
1.9722343900000001,0,0,0.21787235140800476,0,0,0.0764399990439415
1.973308042,0,0,0.8259995579719543,0,0,-0.9937199950218201
1.9742359189999998,0,0,1.2952631711959839,0,0,-0.2293200045824051
1.975234238,0,0,1.4317326545715332,0,0,0.3822000026702881
1.976239318,0,0,1.3335703611373901,0,0,0.5350799560546875
1.9772338779999998,0,0,0.6919242739677429,0,0,1.605239987373352
1.9782655120000001,0,0,0.7110779285430908,0,0,1.452359914779663
1.979271443,0,0,1.3311761617660522,0,0,0.8408399820327759
1.980261504,0,0,1.280897855758667,0,0,1.070159912109375
1.981243417,0,0,1.6328455209732056,0,0,0.611519992351532
1.9822339960000002,0,0,1.766920804977417,0,0,1.070159912109375
1.983238075,0,0,1.9321208000183105,0,0,1.1466000080108643
1.984233117,0,0,2.3989901542663574,0,0,0.6879600286483765
1.98523316,0,0,2.0638017654418945,0,0,1.375920057296753
1.986232905,0,0,1.7166426181793213,0,0,0.9172800183296204
1.987233818,0,0,1.3311761617660522,0,0,0.9172800183296204
1.988232601,0,0,0.9576807022094727,0,0,0.9172800183296204
1.9892324019999998,0,0,0.8978256583213806,0,0,0.305759996175766
1.9902821099999999,0,0,0.8259995579719543,0,0,0.0764399990439415
1.991263967,0,0,0.8164227604866028,0,0,-0.4586400091648102
1.992236973,0,0,0.7038952708244324,0,0,0
1.993233941,0,0,0.43095630407333374,0,0,0
1.994233131,0,0,0.9217676520347595,0,0,-0.611519992351532
1.99549267,0,0,1.580173134803772,0,0,0.5350799560546875
1.996234678,0,0,1.5729905366897583,0,0,1.1466000080108643
1.997233591,0,0,1.4844050407409668,0,0,1.1466000080108643
1.9982334480000001,0,0,1.1300631761550903,0,0,1.2994799613952637
1.999234971,0,0,0.9648633003234863,0,0,1.8345600366592407
2.000233773,0,0,1.094150185585022,0,0,0.9172800183296204
2.001233611,0,0,1.7477672100067139,0,0,0.3822000026702881
2.002233449,0,0,1.7812861204147339,0,0,0.9937199950218201
2.003234529,0,0,1.8411411046981812,0,0,0.3822000026702881
2.004233552,0,0,1.5969325304031372,0,0,0.8408399820327759
2.005340297,0,0,1.3982137441635132,0,0,1.070159912109375
2.006236081,0,0,1.381454348564148,0,0,0.6879600286483765
2.007235216,0,0,1.5059528350830078,0,0,0.6879600286483765
2.008233535,0,0,1.436521053314209,0,0,0.8408399820327759
2.009233596,0,0,1.2090718746185303,0,0,0.305759996175766
2.01023349,0,0,1.1899182796478271,0,0,0.6879600286483765
2.011234569,0,0,1.1061211824417114,0,0,0.305759996175766
2.012233445,0,0,1.1516109704971313,0,0,0.2293200045824051
2.013233616,0,0,1.2090718746185303,0,0,0.9172800183296204
2.014233473,0,0,1.1875240802764893,0,0,0.4586400091648102
2.01523309,0,0,1.036689281463623,0,0,0.3822000026702881
2.016230595,0,0,0.950498104095459,0,0,0.4586400091648102
2.01723097,0,0,1.0678139925003052,0,0,0.2293200045824051
2.018231012,0,0,1.2617442607879639,0,0,0.152879998087883
2.019234443,0,0,1.6950948238372803,0,0,0.5350799560546875
2.020235393,0,0,1.721431016921997,0,0,1.070159912109375
2.021234157,0,0,1.4437036514282227,0,0,1.375920057296753
2.022233755,0,0,1.1994950771331787,0,0,0.9937199950218201
2.023234945,0,0,0.7661445140838623,0,0,1.070159912109375
2.024233524,0,0,0.730231523513794,0,0,0.611519992351532
2.025233548,0,0,1.1563993692398071,0,0,0.2293200045824051
2.026233442,0,0,1.5394717454910278,0,0,0.3822000026702881
2.027234465,0,0,1.802833914756775,0,0,0.5350799560546875
2.028233655,0,0,1.8411411046981812,0,0,0.611519992351532
2.029233531,0,0,1.5275006294250488,0,0,0.7644000053405762
2.030233425,0,0,1.2425906658172607,0,0,1.070159912109375
2.031246522,0,0,0.9840168952941895,0,0,0.6879600286483765
2.032234639,0,0,1.0845733880996704,0,0,0.611519992351532
2.033231329,0,0,1.403002142906189,0,0,0.305759996175766
2.034246297,0,0,1.4197616577148438,0,0,0.611519992351532
2.03523495,0,0,1.4197616577148438,0,0,0.8408399820327759
2.036233789,0,0,1.3527239561080933,0,0,0.8408399820327759
2.037233368,0,0,1.2330138683319092,0,0,0.8408399820327759
2.038233521,0,0,1.4293384552001953,0,0,0.9172800183296204
2.039233989,0,0,1.5466543436050415,0,0,0.611519992351532
2.040233605,0,0,1.6208745241165161,0,0,0.7644000053405762
2.041233055,0,0,1.37906014919281,0,0,0.4586400091648102
2.042233708,0,0,1.094150185585022,0,0,0
2.043234991,0,0,1.0630255937576294,0,0,0.305759996175766
2.044233681,0,0,0.9002198576927185,0,0,0.0764399990439415
2.045233649,0,0,0.7134721279144287,0,0,0.305759996175766
2.046233543,0,0,0.9864110946655273,0,0,0.0764399990439415
2.047232993,0,0,1.1228805780410767,0,0,0.4586400091648102
2.048230905,0,0,1.2497732639312744,0,0,0.7644000053405762
2.049347575,0,0,1.2425906658172607,0,0,1.1466000080108643
2.050234952,0,0,1.2234370708465576,0,0,1.1466000080108643
2.051235105,0,0,1.3120225667953491,0,0,1.070159912109375
2.052233629,0,0,1.3527239561080933,0,0,1.223039984703064
2.053233375,0,0,1.4867992401123047,0,0,0.3822000026702881
2.05423325,0,0,1.6711528301239014,0,0,0.5350799560546875
2.055234367,0,0,1.8267759084701538,0,0,0.3822000026702881
2.05623352,0,0,1.8555063009262085,0,0,0.8408399820327759
2.057233469,0,0,1.7812861204147339,0,0,1.1466000080108643
2.058233252,0,0,1.3958195447921753,0,0,0.8408399820327759
2.059234016,0,0,0.950498104095459,0,0,0.9172800183296204
2.06023341,0,0,0.7924807667732239,0,0,0.9937199950218201
2.061233434,0,0,0.8044517636299133,0,0,0.152879998087883
2.062233161,0,0,0.9768342971801758,0,0,0.152879998087883
2.06323387,0,0,1.1516109704971313,0,0,0.152879998087883
2.064233283,0,0,1.5155296325683594,0,0,0.152879998087883
2.06523338,0,0,1.7046716213226318,0,0,0.7644000053405762
2.066233719,0,0,1.723825216293335,0,0,1.070159912109375
2.067242761,0,0,1.4460978507995605,0,0,0.9937199950218201
2.06823421,0,0,1.1540051698684692,0,0,1.070159912109375
2.069233586,0,0,1.0199298858642578,0,0,0.8408399820327759
2.07023372,0,0,1.05105459690094,0,0,0.6879600286483765
2.071233263,0,0,1.2545616626739502,0,0,0.4586400091648102
2.072231082,0,0,1.558625340461731,0,0,0.4586400091648102
2.073231143,0,0,1.7262194156646729,0,0,0.2293200045824051
2.074230833,0,0,1.7310078144073486,0,0,0.9172800183296204
2.075237172,0,0,1.50355863571167,0,0,1.1466000080108643
2.076233492,0,0,1.115697979927063,0,0,0.7644000053405762
2.077621325,0,0,0.9672574996948242,0,0,0.7644000053405762
2.078255687,0,0,0.8547300100326538,0,0,0.2293200045824051
2.0792378400000002,0,0,0.9696516990661621,0,0,0.0764399990439415
2.08023329,0,0,1.072602391242981,0,0,0
2.081232943,0,0,1.072602391242981,0,0,0.152879998087883
2.082233226,0,0,1.2186486721038818,0,0,0.4586400091648102
2.083234101,0,0,1.2306196689605713,0,0,0.611519992351532
2.084234125,0,0,1.3886369466781616,0,0,0.5350799560546875
2.085233241,0,0,1.4987702369689941,0,0,1.1466000080108643
2.0862331530000002,0,0,1.525106430053711,0,0,1.1466000080108643
2.087234844,0,0,1.434126853942871,0,0,1.452359914779663
2.088233497,0,0,1.4987702369689941,0,0,1.1466000080108643
2.089232965,0,0,1.5083470344543457,0,0,0.6879600286483765
2.090242063,0,0,1.4963760375976563,0,0,0.8408399820327759
2.091241623,0,0,1.5059528350830078,0,0,0.7644000053405762
