Time,AccelX1,AccelY1,AccelZ1,AccelX2,AccelY2,AccelZ2
0.000293868,0,0,1.2306196689605713,0,0,0.8408399820327759
0.001155248,0,0,1.2306196689605713,0,0,0.9172800183296204
0.002122127,0,0,1.2306196689605713,0,0,0.7644000053405762
0.003145839,0,0,1.3742717504501343,0,0,0.9172800183296204
0.004135033,0,0,1.3742717504501343,0,0,0.9937199950218201
0.005155615,0,0,1.3742717504501343,0,0,0.3822000026702881
0.006120809,0,0,1.3742717504501343,0,0,0.8408399820327759
0.007119207,0,0,1.4724340438842773,0,0,1.223039984703064
0.008119474,0,0,1.4724340438842773,0,0,0.6879600286483765
0.009121761,0,0,1.4724340438842773,0,0,1.1466000080108643
0.010121214,0,0,1.4724340438842773,0,0,0.7644000053405762
0.011144833,0,0,1.6831238269805908,0,0,0.8408399820327759
0.012124064,0,0,1.6831238269805908,0,0,0.9172800183296204
0.013119906,0,0,1.6831238269805908,0,0,0.5350799560546875
0.01411884,0,0,1.6831238269805908,0,0,0.8408399820327759
0.015118089,0,0,1.644816517829895,0,0,1.070159912109375
0.016117913,0,0,1.644816517829895,0,0,0.4586400091648102
0.017122254,0,0,1.644816517829895,0,0,0.7644000053405762
0.018117967,0,0,1.5298948287963867,0,0,0.9172800183296204
0.019118401,0,0,1.5298948287963867,0,0,0.8408399820327759
0.020118761,0,0,1.5298948287963867,0,0,0.7644000053405762
0.021119529,0,0,1.5298948287963867,0,0,0.611519992351532
0.022118537,0,0,1.5322890281677246,0,0,0.611519992351532
0.023118398,0,0,1.5322890281677246,0,0,0.8408399820327759
0.024118054,0,0,1.5322890281677246,0,0,0.6879600286483765
0.025087045,0,0,1.5322890281677246,0,0,0.9937199950218201
0.026084942,0,0,1.5203180313110352,0,0,0.8408399820327759
0.027084951,0,0,1.5203180313110352,0,0,0.5350799560546875
0.028084848,0,0,1.5203180313110352,0,0,0.9172800183296204
0.029085912,0,0,1.5203180313110352,0,0,0.7644000053405762
0.030084939,0,0,1.314416766166687,0,0,0.9937199950218201
0.031089021,0,0,1.314416766166687,0,0,0.9172800183296204
0.032089697,0,0,1.314416766166687,0,0,0.9172800183296204
0.033104575,0,0,1.4317326545715332,0,0,0.6879600286483765
0.034086399,0,0,1.4317326545715332,0,0,0.8408399820327759
0.035085055,0,0,1.4317326545715332,0,0,0.5350799560546875
0.036084971,0,0,1.4317326545715332,0,0,1.1466000080108643
0.03708535,0,0,1.3646949529647827,0,0,0.6879600286483765
0.038084766,0,0,1.3646949529647827,0,0,0.611519992351532
0.039084571,0,0,1.3646949529647827,0,0,0.8408399820327759
0.040084857,0,0,1.3646949529647827,0,0,0.7644000053405762
0.041084791,0,0,1.278503656387329,0,0,0.8408399820327759
0.042085355,0,0,1.278503656387329,0,0,1.1466000080108643
0.043084956,0,0,1.278503656387329,0,0,0.6879600286483765
0.044084854,0,0,1.278503656387329,0,0,0.8408399820327759
0.045085251,0,0,1.4772224426269531,0,0,0.7644000053405762
0.046084778,0,0,1.4772224426269531,0,0,0.7644000053405762
0.047084916,0,0,1.4772224426269531,0,0,0.6879600286483765
0.048084739,0,0,1.4772224426269531,0,0,0.7644000053405762
0.049085359,0,0,1.4748282432556152,0,0,0.7644000053405762
0.050084923,0,0,1.4748282432556152,0,0,0.9172800183296204
0.051084895,0,0,1.4748282432556152,0,0,0.611519992351532
0.052084829,0,0,1.4748282432556152,0,0,0.6879600286483765
0.053085856,0,0,1.5634137392044067,0,0,1.1466000080108643
0.054085716,0,0,1.5634137392044067,0,0,0.611519992351532
0.055084817,0,0,1.5634137392044067,0,0,0.9172800183296204
0.056084863,0,0,1.5634137392044067,0,0,0.8408399820327759
0.057084705,0,0,1.6687586307525635,0,0,0.5350799560546875
0.058085009,0,0,1.6687586307525635,0,0,0.8408399820327759
0.059084833,0,0,1.6687586307525635,0,0,0.8408399820327759
0.060084471,0,0,1.6687586307525635,0,0,0.9937199950218201
0.061087164,0,0,1.644816517829895,0,0,0.8408399820327759
0.062089543,0,0,1.644816517829895,0,0,0.9172800183296204
0.063086348,0,0,1.644816517829895,0,0,0.9937199950218201
0.064086116,0,0,1.644816517829895,0,0,0.7644000053405762
0.065095272,0,0,1.601720929145813,0,0,0.9937199950218201
0.06608691,0,0,1.601720929145813,0,0,0.7644000053405762
0.067085808,0,0,1.601720929145813,0,0,0.6879600286483765
0.068085761,0,0,1.5418659448623657,0,0,0.6879600286483765
0.069085899,0,0,1.5418659448623657,0,0,0.611519992351532
0.070086574,0,0,1.5418659448623657,0,0,0.8408399820327759
0.07110473,0,0,1.5418659448623657,0,0,0.7644000053405762
0.07209472,0,0,1.3862427473068237,0,0,0.7644000053405762
0.073101488,0,0,1.3862427473068237,0,0,1.070159912109375
0.074088682,0,0,1.3862427473068237,0,0,0.9172800183296204
0.075086339,0,0,1.3862427473068237,0,0,0.7644000053405762
0.076086273,0,0,1.4413094520568848,0,0,1.223039984703064
0.077086078,0,0,1.4413094520568848,0,0,0.9172800183296204
0.078085808,0,0,1.4413094520568848,0,0,0.7644000053405762
0.079086058,0,0,1.4413094520568848,0,0,0.6879600286483765
0.080085862,0,0,1.3623007535934448,0,0,0.8408399820327759
0.081085963,0,0,1.3623007535934448,0,0,0.6879600286483765
0.082085564,0,0,1.3623007535934448,0,0,0.8408399820327759
0.083085758,0,0,1.3623007535934448,0,0,0.9937199950218201
0.084086081,0,0,1.280897855758667,0,0,0.7644000053405762
0.085085757,0,0,1.280897855758667,0,0,1.1466000080108643
0.086085784,0,0,1.280897855758667,0,0,0.9937199950218201
0.08708657,0,0,1.280897855758667,0,0,0.6879600286483765
0.088121856,0,0,1.434126853942871,0,0,0.5350799560546875
0.089117198,0,0,1.434126853942871,0,0,0.6879600286483765
0.090163668,0,0,1.434126853942871,0,0,0.6879600286483765
0.091090844,0,0,1.434126853942871,0,0,0.8408399820327759
0.092086686,0,0,1.4293384552001953,0,0,0.4586400091648102
0.093091306,0,0,1.4293384552001953,0,0,0.9937199950218201
0.094086425,0,0,1.4293384552001953,0,0,0.8408399820327759
0.095085971,0,0,1.4293384552001953,0,0,0.611519992351532
0.096085831,0,0,1.4293384552001953,0,0,0.9937199950218201
0.097085951,0,0,1.4293384552001953,0,0,0.611519992351532
0.098085904,0,0,1.4293384552001953,0,0,1.1466000080108643
0.099086005,0,0,1.5418659448623657,0,0,1.1466000080108643
0.100086069,0,0,1.5418659448623657,0,0,0.9937199950218201
0.101086225,0,0,1.5418659448623657,0,0,0.7644000053405762
0.102085901,0,0,1.5418659448623657,0,0,1.070159912109375
0.103085705,0,0,1.5418659448623657,0,0,0.611519992351532
0.104085806,0,0,1.5418659448623657,0,0,0.8408399820327759
0.10508613,0,0,1.5418659448623657,0,0,1.1466000080108643
0.106086434,0,0,1.6400281190872192,0,0,0.9937199950218201
0.107086035,0,0,1.6400281190872192,0,0,0.9172800183296204
0.108086451,0,0,1.6400281190872192,0,0,0.9937199950218201
0.109091089,0,0,1.6400281190872192,0,0,0.8408399820327759
0.110096061,0,0,1.6400281190872192,0,0,0.9937199950218201
0.11109618,0,0,1.6400281190872192,0,0,0.611519992351532
0.112139596,0,0,1.6400281190872192,0,0,0.7644000053405762
0.113126641,0,0,1.6041151285171509,0,0,0.8408399820327759
0.114096317,0,0,1.6041151285171509,0,0,0.6879600286483765
0.115092418,0,0,1.6041151285171509,0,0,0.9937199950218201
0.116115111,0,0,1.6041151285171509,0,0,0.9172800183296204
0.11709925,0,0,1.6041151285171509,0,0,0.8408399820327759
0.11809411,0,0,1.6041151285171509,0,0,1.1466000080108643
0.119091933,0,0,1.6041151285171509,0,0,0.6879600286483765
0.12008972,0,0,1.6041151285171509,0,0,0.6879600286483765
0.121087765,0,0,1.6496049165725708,0,0,1.070159912109375
0.122089014,0,0,1.6496049165725708,0,0,0.6879600286483765
0.123091801,0,0,1.6496049165725708,0,0,0.6879600286483765
0.124093661,0,0,1.6496049165725708,0,0,1.1466000080108643
0.125119391,0,0,1.6496049165725708,0,0,0.611519992351532
0.126097456,0,0,1.6496049165725708,0,0,0.7644000053405762
0.12712713,0,0,1.6496049165725708,0,0,0.611519992351532
0.128146305,0,0,1.5897499322891235,0,0,0.8408399820327759
0.129249165,0,0,1.5897499322891235,0,0,1.070159912109375
0.130145952,0,0,1.5897499322891235,0,0,0.6879600286483765
0.131133201,0,0,1.5897499322891235,0,0,0.6879600286483765
0.132138969,0,0,1.5897499322891235,0,0,0.5350799560546875
0.133117941,0,0,1.5897499322891235,0,0,0.5350799560546875
0.134105968,0,0,1.5897499322891235,0,0,1.070159912109375
0.135101013,0,0,1.4437036514282227,0,0,1.070159912109375
0.136118207,0,0,1.4437036514282227,0,0,0.6879600286483765
0.137109586,0,0,1.4437036514282227,0,0,0.9937199950218201
0.138105668,0,0,1.4437036514282227,0,0,0.611519992351532
0.139100732,0,0,1.4437036514282227,0,0,0.8408399820327759
0.140128537,0,0,1.4437036514282227,0,0,0.6879600286483765
0.141111064,0,0,1.4437036514282227,0,0,0.8408399820327759
0.142104869,0,0,1.357512354850769,0,0,0.8408399820327759
0.143123673,0,0,1.357512354850769,0,0,0.8408399820327759
0.144116811,0,0,1.357512354850769,0,0,0.6879600286483765
0.145109227,0,0,1.357512354850769,0,0,0.7644000053405762
0.146118051,0,0,1.357512354850769,0,0,0.8408399820327759
0.147089615,0,0,1.357512354850769,0,0,0.7644000053405762
0.148089957,0,0,1.357512354850769,0,0,0.9172800183296204
0.149089947,0,0,1.3239935636520386,0,0,0.8408399820327759
0.150088326,0,0,1.3239935636520386,0,0,0.6879600286483765
0.151364924,0,0,1.3239935636520386,0,0,0.8408399820327759
0.15208912,0,0,1.3239935636520386,0,0,0.9172800183296204
0.153091666,0,0,1.3239935636520386,0,0,0.9172800183296204
0.154091619,0,0,1.3239935636520386,0,0,0.7644000053405762
0.155096164,0,0,1.3239935636520386,0,0,0.8408399820327759
0.156092173,0,0,1.3000515699386597,0,0,0.6879600286483765
0.157092496,0,0,1.3000515699386597,0,0,0.9172800183296204
0.158092171,0,0,1.3000515699386597,0,0,0.9172800183296204
0.159091402,0,0,1.3000515699386597,0,0,0.8408399820327759
0.160091132,0,0,1.3000515699386597,0,0,0.8408399820327759
0.161087771,0,0,1.3000515699386597,0,0,0.7644000053405762
0.162088094,0,0,1.3000515699386597,0,0,1.1466000080108643
0.163088306,0,0,1.3958195447921753,0,0,0.7644000053405762
0.164087963,0,0,1.3958195447921753,0,0,0.611519992351532
0.16509123,0,0,1.3958195447921753,0,0,0.6879600286483765
0.166091109,0,0,1.3958195447921753,0,0,0.6879600286483765
0.167091007,0,0,1.3958195447921753,0,0,0.611519992351532
0.168090811,0,0,1.3958195447921753,0,0,0.8408399820327759
0.169091653,0,0,1.3958195447921753,0,0,0.3822000026702881
0.170090976,0,0,1.3958195447921753,0,0,1.070159912109375
0.171090911,0,0,1.455674648284912,0,0,0.7644000053405762
0.172091012,0,0,1.455674648284912,0,0,0.7644000053405762
0.173091743,0,0,1.455674648284912,0,0,0.611519992351532
0.174091621,0,0,1.455674648284912,0,0,0.8408399820327759
0.175091037,0,0,1.455674648284912,0,0,0.9172800183296204
0.176090916,0,0,1.455674648284912,0,0,0.9937199950218201
0.177091406,0,0,1.455674648284912,0,0,0.8408399820327759
0.178089915,0,0,1.5729905366897583,0,0,0.7644000053405762
0.179087997,0,0,1.5729905366897583,0,0,0.611519992351532
0.180087728,0,0,1.5729905366897583,0,0,0.611519992351532
0.181090662,0,0,1.5729905366897583,0,0,0.7644000053405762
0.182091134,0,0,1.5729905366897583,0,0,0.8408399820327759
0.183091364,0,0,1.5729905366897583,0,0,0.8408399820327759
0.184090799,0,0,1.5729905366897583,0,0,0.5350799560546875
0.185090955,0,0,1.5825673341751099,0,0,0.7644000053405762
0.186092853,0,0,1.5825673341751099,0,0,0.6879600286483765
0.187091065,0,0,1.5825673341751099,0,0,0.8408399820327759
0.188090888,0,0,1.5825673341751099,0,0,0.611519992351532
0.189091156,0,0,1.5825673341751099,0,0,1.070159912109375
0.190090887,0,0,1.5825673341751099,0,0,0.4586400091648102
0.191092673,0,0,1.5825673341751099,0,0,0.8408399820327759
0.192091385,0,0,1.558625340461731,0,0,1.070159912109375
0.193091375,0,0,1.558625340461731,0,0,0.7644000053405762
0.194090865,0,0,1.558625340461731,0,0,0.7644000053405762
0.195090836,0,0,1.558625340461731,0,0,0.8408399820327759
0.196090641,0,0,1.558625340461731,0,0,0.9172800183296204
0.197091372,0,0,1.558625340461731,0,0,0.611519992351532
0.198090639,0,0,1.558625340461731,0,0,1.1466000080108643
0.199090629,0,0,1.5658079385757446,0,0,0.611519992351532
0.200091138,0,0,1.5658079385757446,0,0,0.9172800183296204
0.201091294,0,0,1.5658079385757446,0,0,0.3822000026702881
0.202091007,0,0,1.5658079385757446,0,0,0.8408399820327759
0.203090811,0,0,1.5658079385757446,0,0,0.8408399820327759
0.20409119,0,0,1.5658079385757446,0,0,0.611519992351532
0.205092032,0,0,1.5658079385757446,0,0,1.1466000080108643
0.206091485,0,0,1.5658079385757446,0,0,0.6879600286483765
0.207090771,0,0,1.4269442558288574,0,0,0.7644000053405762
0.208090817,0,0,1.4269442558288574,0,0,0.7644000053405762
0.209091233,0,0,1.4269442558288574,0,0,0.4586400091648102
0.210090667,0,0,1.4269442558288574,0,0,0.8408399820327759
0.211097972,0,0,1.4269442558288574,0,0,0.9172800183296204
0.212091443,0,0,1.4269442558288574,0,0,0.611519992351532
0.2130916,0,0,1.4269442558288574,0,0,0.9937199950218201
0.214091127,0,0,1.359906554222107,0,0,1.1466000080108643
0.215090895,0,0,1.359906554222107,0,0,0.3822000026702881
0.216090625,0,0,1.359906554222107,0,0,1.070159912109375
0.217093467,0,0,1.359906554222107,0,0,0.9172800183296204
0.218091383,0,0,1.359906554222107,0,0,0.611519992351532
0.21909078,0,0,1.359906554222107,0,0,0.611519992351532
0.220090437,0,0,1.359906554222107,0,0,0.7644000053405762
0.221091038,0,0,1.3862427473068237,0,0,0.7644000053405762
0.222090713,0,0,1.3862427473068237,0,0,0.7644000053405762
0.223090981,0,0,1.3862427473068237,0,0,0.5350799560546875
0.224090878,0,0,1.3862427473068237,0,0,0.8408399820327759
0.225091035,0,0,1.3862427473068237,0,0,0.9172800183296204
0.226089358,0,0,1.3862427473068237,0,0,0.8408399820327759
0.227089552,0,0,1.3862427473068237,0,0,1.070159912109375
0.228087875,0,0,1.2521674633026123,0,0,0.4586400091648102
0.229090772,0,0,1.2521674633026123,0,0,0.8408399820327759
0.230090744,0,0,1.2521674633026123,0,0,0.7644000053405762
0.231092863,0,0,1.2521674633026123,0,0,0.611519992351532
0.232091261,0,0,1.2521674633026123,0,0,0.9937199950218201
0.233091195,0,0,1.2521674633026123,0,0,1.070159912109375
0.23409063,0,0,1.2521674633026123,0,0,0.6879600286483765
0.235090712,0,0,1.292868971824646,0,0,0.7644000053405762
0.236091221,0,0,1.292868971824646,0,0,0.9172800183296204
0.237091285,0,0,1.292868971824646,0,0,0.8408399820327759
0.238090775,0,0,1.292868971824646,0,0,0.9937199950218201
0.239090764,0,0,1.292868971824646,0,0,0.9937199950218201
0.240091273,0,0,1.292868971824646,0,0,0.9172800183296204
0.241091374,0,0,1.292868971824646,0,0,0.7644000053405762
0.242090549,0,0,1.460463047027588,0,0,0.611519992351532
0.243090891,0,0,1.460463047027588,0,0,0.9937199950218201
0.244090751,0,0,1.460463047027588,0,0,0.9937199950218201
0.24509163,0,0,1.460463047027588,0,0,0.7644000053405762
0.246091342,0,0,1.460463047027588,0,0,0.7644000053405762
0.247090943,0,0,1.460463047027588,0,0,0.9172800183296204
0.2480931,0,0,1.460463047027588,0,0,0.611519992351532
0.249092738,0,0,1.460463047027588,0,0,0.6879600286483765
0.250091247,0,0,1.4293384552001953,0,0,0.6879600286483765
0.251090792,0,0,1.4293384552001953,0,0,0.6879600286483765
0.252090634,0,0,1.4293384552001953,0,0,0.9172800183296204
0.253091216,0,0,1.4293384552001953,0,0,0.611519992351532
0.254091188,0,0,1.4293384552001953,0,0,0.7644000053405762
0.255090548,0,0,1.4293384552001953,0,0,0.7644000053405762
0.256090575,0,0,1.4293384552001953,0,0,0.3822000026702881
0.257110935,0,0,1.4652514457702637,0,0,0.8408399820327759
0.258092129,0,0,1.4652514457702637,0,0,0.9172800183296204
0.259091341,0,0,1.4652514457702637,0,0,0.9937199950218201
0.260090868,0,0,1.4652514457702637,0,0,0.9937199950218201
0.26109121,0,0,1.4652514457702637,0,0,0.611519992351532
0.262091644,0,0,1.4652514457702637,0,0,0.9172800183296204
0.263090783,0,0,1.4652514457702637,0,0,0.611519992351532
0.26409068,0,0,1.534683346748352,0,0,0.6879600286483765
0.265090892,0,0,1.534683346748352,0,0,0.7644000053405762
0.266090734,0,0,1.534683346748352,0,0,0.9172800183296204
0.267091298,0,0,1.534683346748352,0,0,0.6879600286483765
0.268091047,0,0,1.534683346748352,0,0,0.6879600286483765
0.269091148,0,0,1.534683346748352,0,0,0.8408399820327759
0.270090879,0,0,1.534683346748352,0,0,0.9172800183296204
0.271091924,0,0,1.4460978507995605,0,0,0.7644000053405762
0.272091155,0,0,1.4460978507995605,0,0,0.7644000053405762
0.273091145,0,0,1.4460978507995605,0,0,0.6879600286483765
0.274090783,0,0,1.4460978507995605,0,0,1.070159912109375
0.275090718,0,0,1.4460978507995605,0,0,0.8408399820327759
0.276092967,0,0,1.4460978507995605,0,0,0.611519992351532
0.277118605,0,0,1.4460978507995605,0,0,0.611519992351532
0.278117391,0,0,1.460463047027588,0,0,0.7644000053405762
0.279107825,0,0,1.460463047027588,0,0,0.9172800183296204
0.280113593,0,0,1.460463047027588,0,0,0.6879600286483765
0.281116768,0,0,1.460463047027588,0,0,0.6879600286483765
0.282114943,0,0,1.460463047027588,0,0,0.7644000053405762
0.283117229,0,0,1.460463047027588,0,0,0.7644000053405762
0.284111201,0,0,1.460463047027588,0,0,0.9172800183296204
0.285121857,0,0,1.460463047027588,0,0,0.9172800183296204
0.286294735,0,0,1.479616641998291,0,0,0.6879600286483765
0.287109523,0,0,1.479616641998291,0,0,0.9172800183296204
0.288108939,0,0,1.479616641998291,0,0,0.7644000053405762
0.289116391,0,0,1.479616641998291,0,0,0.7644000053405762
0.290206121,0,0,1.479616641998291,0,0,1.070159912109375
0.291122612,0,0,1.479616641998291,0,0,0.8408399820327759
0.292118546,0,0,1.479616641998291,0,0,1.070159912109375
0.29312261,0,0,1.403002142906189,0,0,0.9172800183296204
0.294112749,0,0,1.403002142906189,0,0,0.7644000053405762
0.295126794,0,0,1.403002142906189,0,0,0.7644000053405762
0.296121747,0,0,1.403002142906189,0,0,0.6879600286483765
0.297114441,0,0,1.403002142906189,0,0,0.9937199950218201
0.298118412,0,0,1.403002142906189,0,0,0.8408399820327759
0.299113735,0,0,1.403002142906189,0,0,0.5350799560546875
0.300122984,0,0,1.3838485479354858,0,0,1.070159912109375
0.301129085,0,0,1.3838485479354858,0,0,0.8408399820327759
0.302131575,0,0,1.3838485479354858,0,0,0.9172800183296204
0.303087288,0,0,1.3838485479354858,0,0,0.7644000053405762
0.304086,0,0,1.3838485479354858,0,0,0.7644000053405762
0.30508699,0,0,1.3838485479354858,0,0,0.8408399820327759
0.306087758,0,0,1.3838485479354858,0,0,0.6879600286483765
0.3070896,0,0,1.3910311460494995,0,0,0.9937199950218201
0.308089071,0,0,1.3910311460494995,0,0,0.3822000026702881
0.309090172,0,0,1.3910311460494995,0,0,0.9172800183296204
0.310098477,0,0,1.3910311460494995,0,0,0.4586400091648102
0.311090578,0,0,1.3910311460494995,0,0,0.6879600286483765
0.312089346,0,0,1.3910311460494995,0,0,1.070159912109375
0.313089262,0,0,1.3910311460494995,0,0,0.611519992351532
0.314089955,0,0,1.3934253454208374,0,0,0.9172800183296204
0.315089353,0,0,1.3934253454208374,0,0,0.9172800183296204
0.316089343,0,0,1.3934253454208374,0,0,0.8408399820327759
0.317090129,0,0,1.3934253454208374,0,0,1.070159912109375
0.318089119,0,0,1.3934253454208374,0,0,0.7644000053405762
0.319089109,0,0,1.3934253454208374,0,0,0.8408399820327759
0.320089062,0,0,1.3934253454208374,0,0,0.7644000053405762
0.321089829,0,0,1.3934253454208374,0,0,0.6879600286483765
0.322088986,0,0,1.4077905416488647,0,0,0.4586400091648102
0.323088939,0,0,1.4077905416488647,0,0,0.7644000053405762
0.324089021,0,0,1.4077905416488647,0,0,0.8408399820327759
0.325089178,0,0,1.4077905416488647,0,0,1.223039984703064
0.326088983,0,0,1.4077905416488647,0,0,0.5350799560546875
0.327088788,0,0,1.4077905416488647,0,0,0.5350799560546875
0.328088833,0,0,1.4077905416488647,0,0,0.7644000053405762
0.32909336,0,0,1.4077905416488647,0,0,0.8408399820327759
0.330086924,0,0,1.4077905416488647,0,0,0.7644000053405762
0.331088636,0,0,1.4077905416488647,0,0,1.070159912109375
0.332089219,0,0,1.4077905416488647,0,0,0.6879600286483765
0.333088894,0,0,1.4077905416488647,0,0,0.9937199950218201
0.334088865,0,0,1.4077905416488647,0,0,0.9937199950218201
0.335088781,0,0,1.4077905416488647,0,0,0.7644000053405762
0.33608879,0,0,1.5322890281677246,0,0,0.9937199950218201
0.337089002,0,0,1.5322890281677246,0,0,0.6879600286483765
0.338097973,0,0,1.5322890281677246,0,0,0.7644000053405762
0.339119611,0,0,1.5322890281677246,0,0,0.5350799560546875
0.340104453,0,0,1.5322890281677246,0,0,0.5350799560546875
0.34109998,0,0,1.5322890281677246,0,0,0.6879600286483765
0.342087304,0,0,1.5322890281677246,0,0,1.070159912109375
0.343092053,0,0,1.5873557329177856,0,0,0.9172800183296204
0.344090135,0,0,1.5873557329177856,0,0,0.7644000053405762
0.345093125,0,0,1.5873557329177856,0,0,0.9937199950218201
0.346090486,0,0,1.5873557329177856,0,0,0.6879600286483765
0.347088031,0,0,1.5873557329177856,0,0,1.223039984703064
0.348088336,0,0,1.5873557329177856,0,0,0.8408399820327759
0.349087548,0,0,1.5873557329177856,0,0,0.9172800183296204
0.350090334,0,0,1.601720929145813,0,0,0.6879600286483765
0.351087639,0,0,1.601720929145813,0,0,0.7644000053405762
0.352087536,0,0,1.601720929145813,0,0,0.6879600286483765
0.353088656,0,0,1.601720929145813,0,0,0.6879600286483765
0.354090683,0,0,1.601720929145813,0,0,0.9172800183296204
0.355087617,0,0,1.601720929145813,0,0,0.611519992351532
0.356091792,0,0,1.601720929145813,0,0,0.611519992351532
0.357090097,0,0,1.6304513216018677,0,0,0.8408399820327759
0.358087958,0,0,1.6304513216018677,0,0,0.8408399820327759
0.359090559,0,0,1.6304513216018677,0,0,0.9172800183296204
0.360087512,0,0,1.6304513216018677,0,0,0.7644000053405762
0.361087613,0,0,1.6304513216018677,0,0,0.8408399820327759
0.36209038,0,0,1.6304513216018677,0,0,0.3822000026702881
0.363087463,0,0,1.6304513216018677,0,0,0.9172800183296204
0.364090194,0,0,1.501164436340332,0,0,0.611519992351532
0.365089258,0,0,1.501164436340332,0,0,0.8408399820327759
0.366088136,0,0,1.501164436340332,0,0,1.070159912109375
0.367090274,0,0,1.501164436340332,0,0,0.9937199950218201
0.36808769,0,0,1.501164436340332,0,0,0.9937199950218201
0.369089143,0,0,1.501164436340332,0,0,0.6879600286483765
0.370088004,0,0,1.501164436340332,0,0,0.9172800183296204
0.371101086,0,0,1.501164436340332,0,0,0.6879600286483765
0.372091483,0,0,1.45806884765625,0,0,0.8408399820327759
0.37308801,0,0,1.45806884765625,0,0,0.7644000053405762
0.374163352,0,0,1.45806884765625,0,0,0.7644000053405762
0.37508862,0,0,1.45806884765625,0,0,0.611519992351532
0.376087277,0,0,1.45806884765625,0,0,0.9937199950218201
0.3770861,0,0,1.45806884765625,0,0,0.8408399820327759
0.37808959,0,0,1.45806884765625,0,0,0.9937199950218201
0.379089524,0,0,1.4053963422775269,0,0,0.6879600286483765
0.380089644,0,0,1.4053963422775269,0,0,1.1466000080108643
0.38109106,0,0,1.4053963422775269,0,0,0.6879600286483765
0.382088402,0,0,1.4053963422775269,0,0,0.611519992351532
0.383087725,0,0,1.4053963422775269,0,0,0.9937199950218201
0.384090141,0,0,1.4053963422775269,0,0,0.7644000053405762
0.385090705,0,0,1.4053963422775269,0,0,0.6879600286483765
0.386087454,0,0,1.3311761617660522,0,0,0.6879600286483765
0.387090759,0,0,1.3311761617660522,0,0,0.6879600286483765
0.388087675,0,0,1.3311761617660522,0,0,1.1466000080108643
0.389090535,0,0,1.3311761617660522,0,0,0.4586400091648102
0.390090654,0,0,1.3311761617660522,0,0,0.9937199950218201
0.391087922,0,0,1.3311761617660522,0,0,0.9937199950218201
0.392088134,0,0,1.3311761617660522,0,0,0.7644000053405762
0.393088606,0,0,1.3455413579940796,0,0,0.7644000053405762
0.394090633,0,0,1.3455413579940796,0,0,0.611519992351532
0.395090234,0,0,1.3455413579940796,0,0,0.8408399820327759
0.396130834,0,0,1.3455413579940796,0,0,0.9937199950218201
0.397089269,0,0,1.3455413579940796,0,0,0.611519992351532
0.398087352,0,0,1.3455413579940796,0,0,0.8408399820327759
0.399091786,0,0,1.3455413579940796,0,0,1.1466000080108643
0.400088461,0,0,1.3766659498214722,0,0,0.6879600286483765
0.401088229,0,0,1.3766659498214722,0,0,0.9172800183296204
0.402088052,0,0,1.3766659498214722,0,0,0.7644000053405762
0.403095579,0,0,1.3766659498214722,0,0,0.8408399820327759
0.404091199,0,0,1.3766659498214722,0,0,0.7644000053405762
0.405089282,0,0,1.3766659498214722,0,0,0.5350799560546875
0.406089012,0,0,1.3766659498214722,0,0,0.611519992351532
0.407090558,0,0,1.4987702369689941,0,0,1.070159912109375
0.408087937,0,0,1.4987702369689941,0,0,0.305759996175766
0.409090964,0,0,1.4987702369689941,0,0,0.7644000053405762
0.410089953,0,0,1.4987702369689941,0,0,0.9937199950218201
0.411087629,0,0,1.4987702369689941,0,0,0.611519992351532
0.4120906,0,0,1.4987702369689941,0,0,0.8408399820327759
0.41308872,0,0,1.4987702369689941,0,0,0.6879600286483765
0.414088913,0,0,1.4987702369689941,0,0,0.611519992351532
0.415088125,0,0,1.5682021379470825,0,0,0.9172800183296204
0.416090467,0,0,1.5682021379470825,0,0,0.7644000053405762
0.417087883,0,0,1.5682021379470825,0,0,0.611519992351532
0.418090577,0,0,1.5682021379470825,0,0,0.6879600286483765
0.419089437,0,0,1.5682021379470825,0,0,0.7644000053405762
0.420090742,0,0,1.5682021379470825,0,0,0.9937199950218201
0.42108801,0,0,1.5514427423477173,0,0,1.070159912109375
0.42209074,0,0,1.5514427423477173,0,0,0.8408399820327759
0.423089323,0,0,1.5514427423477173,0,0,0.8408399820327759
0.42409085,0,0,1.5514427423477173,0,0,1.070159912109375
0.425087636,0,0,1.5514427423477173,0,0,0.7644000053405762
0.426090274,0,0,1.5514427423477173,0,0,0.9172800183296204
0.427087468,0,0,1.5514427423477173,0,0,0.7644000053405762
0.428090532,0,0,1.4987702369689941,0,0,0.611519992351532
0.429088188,0,0,1.4987702369689941,0,0,0.9172800183296204
0.430090327,0,0,1.4987702369689941,0,0,0.8408399820327759
0.431087742,0,0,1.4987702369689941,0,0,0.7644000053405762
0.432087714,0,0,1.4987702369689941,0,0,0.8408399820327759
0.433090815,0,0,1.4987702369689941,0,0,0.7644000053405762
0.434090268,0,0,1.4987702369689941,0,0,1.223039984703064
0.435096258,0,0,1.5849615335464478,0,0,0.5350799560546875
0.43609097,0,0,1.5849615335464478,0,0,0.611519992351532
0.437089367,0,0,1.5849615335464478,0,0,0.7644000053405762
0.438087857,0,0,1.5849615335464478,0,0,0.7644000053405762
0.439090551,0,0,1.5849615335464478,0,0,0.7644000053405762
0.440087708,0,0,1.5849615335464478,0,0,0.7644000053405762
0.441091197,0,0,1.5849615335464478,0,0,0.9172800183296204
0.442088373,0,0,1.4508862495422363,0,0,0.8408399820327759
0.443090529,0,0,1.4508862495422363,0,0,0.9937199950218201
0.444087871,0,0,1.4508862495422363,0,0,0.611519992351532
0.445091676,0,0,1.4508862495422363,0,0,1.2994799613952637
0.446090592,0,0,1.4508862495422363,0,0,1.070159912109375
0.447087674,0,0,1.4508862495422363,0,0,0.8408399820327759
0.448090183,0,0,1.4508862495422363,0,0,0.9937199950218201
0.449087636,0,0,1.400607943534851,0,0,0.4586400091648102
0.450090626,0,0,1.400607943534851,0,0,0.6879600286483765
0.451087893,0,0,1.400607943534851,0,0,0.8408399820327759
0.452090402,0,0,1.400607943534851,0,0,0.9937199950218201
0.453087484,0,0,1.400607943534851,0,0,0.9937199950218201
0.454090678,0,0,1.400607943534851,0,0,0.8408399820327759
0.455088261,0,0,1.400607943534851,0,0,0.9172800183296204
0.456090306,0,0,1.4437036514282227,0,0,0.8408399820327759
0.457087611,0,0,1.4437036514282227,0,0,0.5350799560546875
0.458090564,0,0,1.4437036514282227,0,0,0.8408399820327759
0.459089183,0,0,1.4437036514282227,0,0,0.6879600286483765
0.460090673,0,0,1.4437036514282227,0,0,0.7644000053405762
0.461087756,0,0,1.4437036514282227,0,0,0.8408399820327759
0.462090227,0,0,1.4437036514282227,0,0,0.8408399820327759
0.463088495,0,0,1.4437036514282227,0,0,0.7644000053405762
0.464090429,0,0,1.280897855758667,0,0,0.6879600286483765
0.465090345,0,0,1.280897855758667,0,0,1.070159912109375
0.46608802,0,0,1.280897855758667,0,0,0.9937199950218201
0.467090751,0,0,1.280897855758667,0,0,0.9172800183296204
0.468089519,0,0,1.280897855758667,0,0,0.7644000053405762
0.469087564,0,0,1.280897855758667,0,0,0.9172800183296204
0.470090221,0,0,1.280897855758667,0,0,0.7644000053405762
0.471087655,0,0,1.3766659498214722,0,0,0.6879600286483765
0.472090793,0,0,1.3766659498214722,0,0,0.7644000053405762
0.473087931,0,0,1.3766659498214722,0,0,0.8408399820327759
0.474090477,0,0,1.3766659498214722,0,0,0.9172800183296204
0.475087615,0,0,1.3766659498214722,0,0,0.9172800183296204
0.476090198,0,0,1.3766659498214722,0,0,0.8408399820327759
0.477088614,0,0,1.3766659498214722,0,0,0.9172800183296204
0.478090696,0,0,1.403002142906189,0,0,1.070159912109375
0.479087945,0,0,1.403002142906189,0,0,0.8408399820327759
0.480090361,0,0,1.403002142906189,0,0,0.611519992351532
0.481091388,0,0,1.403002142906189,0,0,0.7644000053405762
0.482088119,0,0,1.403002142906189,0,0,0.9172800183296204
0.483091016,0,0,1.403002142906189,0,0,0.8408399820327759
0.484088006,0,0,1.403002142906189,0,0,0.5350799560546875
0.485088292,0,0,1.5418659448623657,0,0,0.5350799560546875
0.486090486,0,0,1.5418659448623657,0,0,0.9172800183296204
0.487087846,0,0,1.5418659448623657,0,0,0.7644000053405762
0.488090614,0,0,1.5418659448623657,0,0,0.9937199950218201
0.489087974,0,0,1.5418659448623657,0,0,0.611519992351532
0.490087668,0,0,1.5418659448623657,0,0,0.6879600286483765
0.491090343,0,0,1.5418659448623657,0,0,0.9937199950218201
0.492087722,0,0,1.6400281190872192,0,0,0.6879600286483765
0.493090619,0,0,1.6400281190872192,0,0,0.6879600286483765
0.494089017,0,0,1.6400281190872192,0,0,1.1466000080108643
0.495090488,0,0,1.6400281190872192,0,0,0.4586400091648102
0.496090182,0,0,1.6400281190872192,0,0,0.6879600286483765
0.497087913,0,0,1.6400281190872192,0,0,1.070159912109375
0.498090328,0,0,1.6400281190872192,0,0,0.9172800183296204
0.499094837,0,0,1.5538369417190552,0,0,0.8408399820327759
0.500090753,0,0,1.5538369417190552,0,0,0.7644000053405762
0.501087539,0,0,1.5538369417190552,0,0,1.070159912109375
0.50209014,0,0,1.5538369417190552,0,0,1.1466000080108643
0.503088778,0,0,1.5538369417190552,0,0,0.9172800183296204
0.504090601,0,0,1.5538369417190552,0,0,0.5350799560546875
0.505087758,0,0,1.5538369417190552,0,0,0.8408399820327759
0.506090433,0,0,1.5083470344543457,0,0,0.7644000053405762
0.507087756,0,0,1.5083470344543457,0,0,0.7644000053405762
0.508088358,0,0,1.5083470344543457,0,0,0.9937199950218201
0.509091477,0,0,1.5083470344543457,0,0,0.9172800183296204
0.510088245,0,0,1.5083470344543457,0,0,0.9172800183296204
0.511090494,0,0,1.5083470344543457,0,0,0.7644000053405762
0.512089336,0,0,1.5083470344543457,0,0,0.8408399820327759
0.513115511,0,0,1.5083470344543457,0,0,0.5350799560546875
0.514088297,0,0,1.601720929145813,0,0,0.9937199950218201
0.515091028,0,0,1.601720929145813,0,0,0.6879600286483765
0.516089833,0,0,1.601720929145813,0,0,0.7644000053405762
0.51708786,0,0,1.601720929145813,0,0,0.5350799560546875
0.518090294,0,0,1.601720929145813,0,0,0.7644000053405762
0.519087654,0,0,1.601720929145813,0,0,0.9937199950218201
0.520090404,0,0,1.601720929145813,0,0,0.9937199950218201
0.521090931,0,0,1.5083470344543457,0,0,0.9172800183296204
0.522088161,0,0,1.5083470344543457,0,0,0.6879600286483765
0.523090577,0,0,1.5083470344543457,0,0,0.9172800183296204
0.524087734,0,0,1.5083470344543457,0,0,0.7644000053405762
0.525088687,0,0,1.5083470344543457,0,0,0.611519992351532
0.526090714,0,0,1.5083470344543457,0,0,0.6879600286483765
0.527090444,0,0,1.5083470344543457,0,0,0.7644000053405762
0.528090731,0,0,1.3048399686813354,0,0,0.4586400091648102
0.529091665,0,0,1.3048399686813354,0,0,0.7644000053405762
0.530091359,0,0,1.3048399686813354,0,0,0.9172800183296204
0.531088163,0,0,1.3048399686813354,0,0,0.6879600286483765
0.532090931,0,0,1.3048399686813354,0,0,0.9172800183296204
0.53308644,0,0,1.3048399686813354,0,0,0.9172800183296204
0.534088707,0,0,1.3048399686813354,0,0,0.9172800183296204
0.535088716,0,0,1.455674648284912,0,0,0.6879600286483765
0.536088965,0,0,1.455674648284912,0,0,0.5350799560546875
0.537090325,0,0,1.455674648284912,0,0,0.7644000053405762
0.538087704,0,0,1.455674648284912,0,0,0.9172800183296204
0.539090953,0,0,1.455674648284912,0,0,0.5350799560546875
0.540087721,0,0,1.3120225667953491,0,0,0.9172800183296204
0.541090841,0,0,1.3120225667953491,0,0,0.6879600286483765
0.542087608,0,0,1.3120225667953491,0,0,1.070159912109375
0.543090728,0,0,1.3120225667953491,0,0,0.9937199950218201
0.544087718,0,0,1.400607943534851,0,0,0.9937199950218201
0.545090634,0,0,1.400607943534851,0,0,0.611519992351532
0.546087661,0,0,1.400607943534851,0,0,0.7644000053405762
0.547090743,0,0,1.400607943534851,0,0,0.6879600286483765
0.548087696,0,0,1.400607943534851,0,0,0.611519992351532
0.549088483,0,0,1.400607943534851,0,0,0.9937199950218201
0.550104509,0,0,1.400607943534851,0,0,0.8408399820327759
0.551091333,0,0,1.4532804489135742,0,0,1.1466000080108643
0.552091082,0,0,1.4532804489135742,0,0,0.8408399820327759
0.553091387,0,0,1.4532804489135742,0,0,0.8408399820327759
0.554087803,0,0,1.4532804489135742,0,0,0.9937199950218201
0.555090367,0,0,1.4532804489135742,0,0,0.6879600286483765
0.556091301,0,0,1.4532804489135742,0,0,0.9172800183296204
0.557101383,0,0,1.4532804489135742,0,0,0.4586400091648102
0.558094985,0,0,1.4413094520568848,0,0,0.6879600286483765
0.559091067,0,0,1.4413094520568848,0,0,0.8408399820327759
0.560088113,0,0,1.4413094520568848,0,0,0.6879600286483765
0.561090936,0,0,1.4413094520568848,0,0,0.8408399820327759
0.56209013,0,0,1.4413094520568848,0,0,0.8408399820327759
0.563090897,0,0,1.4413094520568848,0,0,0.9172800183296204
0.564087961,0,0,1.4413094520568848,0,0,0.6879600286483765
0.565087451,0,0,1.580173134803772,0,0,0.7644000053405762
0.566094163,0,0,1.580173134803772,0,0,0.5350799560546875
0.567090709,0,0,1.580173134803772,0,0,0.9172800183296204
0.568087662,0,0,1.580173134803772,0,0,0.611519992351532
0.569087559,0,0,1.580173134803772,0,0,0.6879600286483765
0.570092734,0,0,1.580173134803772,0,0,0.9937199950218201
0.571092076,0,0,1.580173134803772,0,0,0.611519992351532
0.572089381,0,0,1.580173134803772,0,0,0.7644000053405762
0.573090538,0,0,1.6352397203445435,0,0,0.6879600286483765
0.574090083,0,0,1.6352397203445435,0,0,0.8408399820327759
0.575090795,0,0,1.6352397203445435,0,0,0.9172800183296204
0.576087693,0,0,1.6352397203445435,0,0,0.8408399820327759
0.577090868,0,0,1.6352397203445435,0,0,0.8408399820327759
0.578091413,0,0,1.6352397203445435,0,0,1.070159912109375
0.579088588,0,0,1.6352397203445435,0,0,0.5350799560546875
0.580090523,0,0,1.6041151285171509,0,0,0.4586400091648102
0.581088235,0,0,1.6041151285171509,0,0,0.9172800183296204
0.582090336,0,0,1.6041151285171509,0,0,0.6879600286483765
0.583089085,0,0,1.6041151285171509,0,0,0.8408399820327759
0.584090575,0,0,1.6041151285171509,0,0,0.9937199950218201
0.585087528,0,0,1.6041151285171509,0,0,0.9172800183296204
0.5860905,0,0,1.6041151285171509,0,0,0.9172800183296204
0.587089267,0,0,1.6496049165725708,0,0,0.9172800183296204
0.588092757,0,0,1.6496049165725708,0,0,0.7644000053405762
0.589126747,0,0,1.6496049165725708,0,0,0.9937199950218201
0.590114126,0,0,1.6496049165725708,0,0,0.9172800183296204
0.591088209,0,0,1.6496049165725708,0,0,0.9172800183296204
0.592092717,0,0,1.6496049165725708,0,0,0.6879600286483765
0.593088263,0,0,1.6496049165725708,0,0,0.4586400091648102
0.594090864,0,0,1.434126853942871,0,0,0.7644000053405762
0.595087872,0,0,1.434126853942871,0,0,1.070159912109375
0.596091121,0,0,1.434126853942871,0,0,0.7644000053405762
0.597088759,0,0,1.434126853942871,0,0,0.8408399820327759
0.598090564,0,0,1.434126853942871,0,0,1.070159912109375
0.599088017,0,0,1.434126853942871,0,0,0.7644000053405762
0.600090303,0,0,1.434126853942871,0,0,0.7644000053405762
0.601087923,0,0,1.2689268589019775,0,0,0.9172800183296204
0.602090265,0,0,1.2689268589019775,0,0,0.6879600286483765
0.603087477,0,0,1.2689268589019775,0,0,1.223039984703064
0.604090189,0,0,1.2689268589019775,0,0,0.152879998087883
0.605099271,0,0,1.2689268589019775,0,0,0.8408399820327759
0.606088058,0,0,1.2689268589019775,0,0,1.070159912109375
0.607090881,0,0,1.2689268589019775,0,0,0.9172800183296204
0.608088112,0,0,1.2689268589019775,0,0,0.9937199950218201
0.609087787,0,0,1.3958195447921753,0,0,0.611519992351532
0.610100351,0,0,1.3958195447921753,0,0,0.6879600286483765
0.6110906,0,0,1.3958195447921753,0,0,0.7644000053405762
0.612088368,0,0,1.3958195447921753,0,0,0.9937199950218201
0.613088265,0,0,1.3958195447921753,0,0,0.7644000053405762
0.614087607,0,0,1.3958195447921753,0,0,0.9172800183296204
0.615090486,0,0,1.3958195447921753,0,0,0.5350799560546875
0.616087606,0,0,1.3096283674240112,0,0,0.7644000053405762
0.617090799,0,0,1.3096283674240112,0,0,0.611519992351532
0.618089271,0,0,1.3096283674240112,0,0,0.611519992351532
0.619090409,0,0,1.3096283674240112,0,0,1.070159912109375
0.620092176,0,0,1.3096283674240112,0,0,0.7644000053405762
0.621087815,0,0,1.3096283674240112,0,0,0.7644000053405762
0.62208686,0,0,1.3096283674240112,0,0,0.7644000053405762
0.623090405,0,0,1.4221558570861816,0,0,0.6879600286483765
0.624088044,0,0,1.4221558570861816,0,0,0.6879600286483765
0.625090682,0,0,1.4221558570861816,0,0,1.1466000080108643
0.626088449,0,0,1.4221558570861816,0,0,0.5350799560546875
0.627087791,0,0,1.4221558570861816,0,0,0.8408399820327759
0.628090392,0,0,1.4221558570861816,0,0,1.070159912109375
0.629088938,0,0,1.4221558570861816,0,0,0.8408399820327759
0.630090668,0,0,1.4173674583435059,0,0,0.8408399820327759
0.631088084,0,0,1.4173674583435059,0,0,0.5350799560546875
0.632087278,0,0,1.4173674583435059,0,0,0.9937199950218201
0.63308762,0,0,1.4173674583435059,0,0,0.9172800183296204
0.634090184,0,0,1.4173674583435059,0,0,0.7644000053405762
0.635087618,0,0,1.4173674583435059,0,0,0.8408399820327759
0.636087479,0,0,1.4173674583435059,0,0,0.7644000053405762
0.63708858,0,0,1.4652514457702637,0,0,0.3822000026702881
0.638090514,0,0,1.4652514457702637,0,0,0.9937199950218201
0.63908756,0,0,1.4652514457702637,0,0,0.8408399820327759
0.640091846,0,0,1.4652514457702637,0,0,0.8408399820327759
0.641090613,0,0,1.4652514457702637,0,0,0.9937199950218201
0.642331083,0,0,1.4652514457702637,0,0,0.9172800183296204
0.643118704,0,0,1.4652514457702637,0,0,0.8408399820327759
0.644223489,0,0,1.4652514457702637,0,0,0.9172800183296204
0.645090833,0,0,1.5298948287963867,0,0,0.5350799560546875
0.646087619,0,0,1.5298948287963867,0,0,0.8408399820327759
0.647091035,0,0,1.5298948287963867,0,0,0.7644000053405762
0.64808821,0,0,1.5298948287963867,0,0,0.7644000053405762
0.649087959,0,0,1.5298948287963867,0,0,0.8408399820327759
0.650090542,0,0,1.5298948287963867,0,0,0.7644000053405762
0.65109468,0,0,1.5298948287963867,0,0,0.5350799560546875
0.652091281,0,0,1.5466543436050415,0,0,0.9172800183296204
0.653090826,0,0,1.5466543436050415,0,0,0.9937199950218201
0.654087724,0,0,1.5466543436050415,0,0,0.7644000053405762
0.655087658,0,0,1.5466543436050415,0,0,0.7644000053405762
0.656090518,0,0,1.5466543436050415,0,0,0.8408399820327759
0.657087675,0,0,1.5466543436050415,0,0,0.8408399820327759
0.658090609,0,0,1.5466543436050415,0,0,1.070159912109375
0.659089099,0,0,1.5682021379470825,0,0,0.7644000053405762
0.660090811,0,0,1.5682021379470825,0,0,0.9937199950218201
0.661088005,0,0,1.5682021379470825,0,0,0.8408399820327759
0.662090514,0,0,1.5682021379470825,0,0,0.6879600286483765
0.663087985,0,0,1.5682021379470825,0,0,0.9937199950218201
0.664087605,0,0,1.5682021379470825,0,0,0.7644000053405762
0.665090798,0,0,1.5682021379470825,0,0,0.6879600286483765
0.666088029,0,0,1.580173134803772,0,0,0.7644000053405762
0.667090426,0,0,1.580173134803772,0,0,0.5350799560546875
0.668088916,0,0,1.580173134803772,0,0,0.8408399820327759
0.66909098,0,0,1.580173134803772,0,0,0.9172800183296204
0.670088248,0,0,1.580173134803772,0,0,0.5350799560546875
0.671090368,0,0,1.580173134803772,0,0,0.8408399820327759
0.672087691,0,0,1.580173134803772,0,0,1.070159912109375
0.673087792,0,0,1.4269442558288574,0,0,1.1466000080108643
0.674090393,0,0,1.4269442558288574,0,0,0.9937199950218201
0.675087568,0,0,1.4269442558288574,0,0,0.7644000053405762
0.676090354,0,0,1.4269442558288574,0,0,0.9937199950218201
0.677089437,0,0,1.4269442558288574,0,0,1.070159912109375
0.67808776,0,0,1.4269442558288574,0,0,0.9172800183296204
0.679090435,0,0,1.4269442558288574,0,0,0.8408399820327759
0.680088166,0,0,1.3431471586227417,0,0,0.611519992351532
0.681090897,0,0,1.3431471586227417,0,0,1.1466000080108643
0.682091387,0,0,1.3431471586227417,0,0,1.070159912109375
0.683088784,0,0,1.3431471586227417,0,0,0.6879600286483765
0.6840907,0,0,1.3431471586227417,0,0,0.9172800183296204
0.685087875,0,0,1.3431471586227417,0,0,0.9172800183296204
0.686087828,0,0,1.3431471586227417,0,0,0.5350799560546875
0.687090688,0,0,1.3862427473068237,0,0,0.6879600286483765
0.688087826,0,0,1.3862427473068237,0,0,0.8408399820327759
0.689097816,0,0,1.3862427473068237,0,0,0.7644000053405762
0.690096769,0,0,1.3862427473068237,0,0,0.8408399820327759
0.691088352,0,0,1.3862427473068237,0,0,0.6879600286483765
0.692087564,0,0,1.3862427473068237,0,0,0.7644000053405762
0.693090554,0,0,1.3862427473068237,0,0,0.4586400091648102
0.694089081,0,0,1.3862427473068237,0,0,0.8408399820327759
0.695088867,0,0,1.3215993642807007,0,0,0.8408399820327759
0.696088987,0,0,1.3215993642807007,0,0,1.070159912109375
0.69709081,0,0,1.3215993642807007,0,0,0.611519992351532
0.698088355,0,0,1.3215993642807007,0,0,0.9172800183296204
0.699087734,0,0,1.3215993642807007,0,0,0.611519992351532
0.700090817,0,0,1.3215993642807007,0,0,0.9172800183296204
0.701090807,0,0,1.3215993642807007,0,0,1.070159912109375
0.702087982,0,0,1.4077905416488647,0,0,0.5350799560546875
0.703090972,0,0,1.4077905416488647,0,0,0.6879600286483765
0.704089166,0,0,1.4077905416488647,0,0,0.9937199950218201
0.705089822,0,0,1.4077905416488647,0,0,0.9172800183296204
0.706088016,0,0,1.4077905416488647,0,0,0.9937199950218201
0.70709045,0,0,1.4077905416488647,0,0,0.611519992351532
0.708089903,0,0,1.4652514457702637,0,0,0.9172800183296204
0.709087708,0,0,1.5490485429763794,0,0,1.070159912109375
0.710090883,0,0,1.5490485429763794,0,0,0.8408399820327759
0.711088725,0,0,1.5490485429763794,0,0,0.7644000053405762
0.712090585,0,0,1.5490485429763794,0,0,0.6879600286483765
0.713094445,0,0,1.5490485429763794,0,0,0.4586400091648102
0.714091213,0,0,1.5490485429763794,0,0,0.9172800183296204
0.715088925,0,0,1.5945383310317993,0,0,0.8408399820327759
0.716090675,0,0,1.5945383310317993,0,0,1.070159912109375
0.71709022,0,0,1.5945383310317993,0,0,1.070159912109375
0.718088043,0,0,1.5945383310317993,0,0,0.9937199950218201
0.719090515,0,0,1.5945383310317993,0,0,1.070159912109375
0.720088023,0,0,1.5945383310317993,0,0,0.7644000053405762
0.721088921,0,0,1.5945383310317993,0,0,0.6879600286483765
0.722088411,0,0,1.5658079385757446,0,0,0.6879600286483765
0.723090771,0,0,1.5658079385757446,0,0,0.9937199950218201
0.724087965,0,0,1.5658079385757446,0,0,0.6879600286483765
0.725091214,0,0,1.5658079385757446,0,0,0.9937199950218201
0.726090019,0,0,1.5658079385757446,0,0,0.8408399820327759
0.727087805,0,0,1.5658079385757446,0,0,0.9937199950218201
0.728090554,0,0,1.5658079385757446,0,0,0.9937199950218201
0.729092396,0,0,1.5658079385757446,0,0,0.7644000053405762
0.730091497,0,0,1.5969325304031372,0,0,0.9172800183296204
0.731088653,0,0,1.5969325304031372,0,0,0.9172800183296204
0.732090588,0,0,1.5969325304031372,0,0,0.5350799560546875
0.733089133,0,0,1.5969325304031372,0,0,0.611519992351532
0.734090864,0,0,1.5969325304031372,0,0,0.5350799560546875
0.735089724,0,0,1.5969325304031372,0,0,0.4586400091648102
0.736090788,0,0,1.580173134803772,0,0,0.6879600286483765
0.737086575,0,0,1.580173134803772,0,0,1.1466000080108643
0.738088602,0,0,1.580173134803772,0,0,0.8408399820327759
0.739088925,0,0,1.580173134803772,0,0,0.7644000053405762
0.740089063,0,0,1.580173134803772,0,0,0.611519992351532
0.741090646,0,0,1.580173134803772,0,0,0.6879600286483765
0.742088191,0,0,1.580173134803772,0,0,0.7644000053405762
0.743090422,0,0,1.4460978507995605,0,0,0.5350799560546875
0.744091726,0,0,1.4460978507995605,0,0,0.5350799560546875
0.745090624,0,0,1.4460978507995605,0,0,0.8408399820327759
0.746087929,0,0,1.4460978507995605,0,0,0.9172800183296204
0.747090567,0,0,1.4460978507995605,0,0,0.8408399820327759
0.748090205,0,0,1.4460978507995605,0,0,0.611519992351532
0.749087861,0,0,1.4460978507995605,0,0,0.8408399820327759
0.7500905,0,0,1.3838485479354858,0,0,0.9172800183296204
0.751087915,0,0,1.3838485479354858,0,0,0.8408399820327759
0.752090887,0,0,1.3838485479354858,0,0,0.6879600286483765
0.753087951,0,0,1.3838485479354858,0,0,0.8408399820327759
0.754097607,0,0,1.3838485479354858,0,0,0.611519992351532
0.755090616,0,0,1.3838485479354858,0,0,0.7644000053405762
0.756087921,0,0,1.3838485479354858,0,0,0.6879600286483765
0.757087651,0,0,1.3934253454208374,0,0,0.6879600286483765
0.758090771,0,0,1.3934253454208374,0,0,0.7644000053405762
0.75908852,0,0,1.3934253454208374,0,0,0.9937199950218201
0.760090473,0,0,1.3934253454208374,0,0,0.6879600286483765
0.76108963,0,0,1.3934253454208374,0,0,0.9937199950218201
0.762087879,0,0,1.3934253454208374,0,0,0.7644000053405762
0.763090313,0,0,1.3934253454208374,0,0,0.611519992351532
0.764087674,0,0,1.2737152576446533,0,0,0.611519992351532
0.765087904,0,0,1.2737152576446533,0,0,0.5350799560546875
0.766087561,0,0,1.2737152576446533,0,0,0.9172800183296204
0.767090588,0,0,1.2737152576446533,0,0,0.8408399820327759
0.768087985,0,0,1.2737152576446533,0,0,0.9937199950218201
0.769091086,0,0,1.2737152576446533,0,0,0.9172800183296204
0.770091558,0,0,1.2737152576446533,0,0,0.9172800183296204
0.771088677,0,0,1.3718775510787964,0,0,0.9172800183296204
0.772090482,0,0,1.3718775510787964,0,0,1.070159912109375
0.773088139,0,0,1.3718775510787964,0,0,0.6879600286483765
0.774090481,0,0,1.3718775510787964,0,0,0.7644000053405762
0.775091396,0,0,1.3718775510787964,0,0,0.6879600286483765
0.776088979,0,0,1.3718775510787964,0,0,0.611519992351532
0.777091154,0,0,1.3718775510787964,0,0,0.6879600286483765
0.778088551,0,0,1.3623007535934448,0,0,0.4586400091648102
0.779087727,0,0,1.3623007535934448,0,0,1.070159912109375
0.780090605,0,0,1.3623007535934448,0,0,0.611519992351532
0.781087929,0,0,1.3623007535934448,0,0,0.6879600286483765
0.782090493,0,0,1.3623007535934448,0,0,0.5350799560546875
0.783089112,0,0,1.3623007535934448,0,0,0.8408399820327759
0.784090528,0,0,1.3623007535934448,0,0,0.611519992351532
0.785088222,0,0,1.479616641998291,0,0,0.6879600286483765
0.786090638,0,0,1.479616641998291,0,0,0.611519992351532
0.78708835,0,0,1.479616641998291,0,0,0.8408399820327759
0.788087858,0,0,1.479616641998291,0,0,0.7644000053405762
0.78909133,0,0,1.479616641998291,0,0,0.6879600286483765
0.79008882,0,0,1.479616641998291,0,0,0.9937199950218201
0.791090902,0,0,1.5729905366897583,0,0,0.8408399820327759
0.792089726,0,0,1.5729905366897583,0,0,0.611519992351532
0.793087697,0,0,1.5729905366897583,0,0,0.7644000053405762
0.794090409,0,0,1.5729905366897583,0,0,0.6879600286483765
0.795087936,0,0,1.5729905366897583,0,0,0.611519992351532
0.79609063,0,0,1.5729905366897583,0,0,0.8408399820327759
0.797089138,0,0,1.5729905366897583,0,0,0.9172800183296204
0.79808761,0,0,1.5466543436050415,0,0,0.9172800183296204
0.79909034,0,0,1.5466543436050415,0,0,0.6879600286483765
0.80008759,0,0,1.5466543436050415,0,0,0.611519992351532
0.801087987,0,0,1.5466543436050415,0,0,0.8408399820327759
0.802090495,0,0,1.5466543436050415,0,0,0.7644000053405762
0.803087893,0,0,1.5466543436050415,0,0,0.8408399820327759
0.804090438,0,0,1.5466543436050415,0,0,0.7644000053405762
0.805087891,0,0,1.6160861253738403,0,0,0.9172800183296204
0.806090159,0,0,1.6160861253738403,0,0,0.5350799560546875
0.807088038,0,0,1.6160861253738403,0,0,1.070159912109375
0.808090676,0,0,1.6160861253738403,0,0,0.611519992351532
0.809088147,0,0,1.6160861253738403,0,0,0.5350799560546875
0.810088174,0,0,1.6160861253738403,0,0,0.6879600286483765
0.811090924,0,0,1.53707754611969,0,0,0.4586400091648102
0.812088654,0,0,1.53707754611969,0,0,0.8408399820327759
0.813091163,0,0,1.53707754611969,0,0,0.9172800183296204
0.814098004,0,0,1.53707754611969,0,0,0.7644000053405762
0.815090772,0,0,1.53707754611969,0,0,0.8408399820327759
0.816088596,0,0,1.53707754611969,0,0,0.8408399820327759
0.817090882,0,0,1.53707754611969,0,0,0.6879600286483765
0.818094038,0,0,1.4317326545715332,0,0,0.5350799560546875
0.819091399,0,0,1.4317326545715332,0,0,0.7644000053405762
0.820089,0,0,1.4317326545715332,0,0,0.7644000053405762
0.821090749,0,0,1.3910311460494995,0,0,0.8408399820327759
0.82208798,0,0,1.3910311460494995,0,0,0.5350799560546875
0.823087636,0,0,1.3910311460494995,0,0,0.9172800183296204
0.8240907,0,0,1.41257905960083,0,0,0.8408399820327759
0.825088209,0,0,1.41257905960083,0,0,0.7644000053405762
0.826090699,0,0,1.41257905960083,0,0,0.8408399820327759
0.827087744,0,0,1.335964560508728,0,0,0.6879600286483765
0.828087623,0,0,1.335964560508728,0,0,0.8408399820327759
0.829091076,0,0,1.335964560508728,0,0,0.7644000053405762
0.830088362,0,0,1.335964560508728,0,0,0.5350799560546875
0.831090611,0,0,1.335964560508728,0,0,0.611519992351532
0.832089083,0,0,1.335964560508728,0,0,0.7644000053405762
0.833091202,0,0,1.335964560508728,0,0,0.7644000053405762
0.834088266,0,0,1.4221558570861816,0,0,1.1466000080108643
0.83509046,0,0,1.4221558570861816,0,0,0.8408399820327759
0.836087913,0,0,1.4221558570861816,0,0,0.9172800183296204
0.837089773,0,0,1.4221558570861816,0,0,0.7644000053405762
0.838087745,0,0,1.4221558570861816,0,0,0.9937199950218201
0.839113642,0,0,1.4221558570861816,0,0,0.8408399820327759
0.840124169,0,0,1.4221558570861816,0,0,0.7644000053405762
0.841091641,0,0,1.381454348564148,0,0,0.611519992351532
0.842087149,0,0,1.381454348564148,0,0,0.7644000053405762
0.843090398,0,0,1.381454348564148,0,0,1.223039984703064
0.844087814,0,0,1.381454348564148,0,0,0.3822000026702881
0.845089989,0,0,1.381454348564148,0,0,1.1466000080108643
0.846087646,0,0,1.381454348564148,0,0,0.9937199950218201
0.847090506,0,0,1.381454348564148,0,0,0.7644000053405762
0.848087792,0,0,1.381454348564148,0,0,0.9172800183296204
0.849087745,0,0,1.5203180313110352,0,0,0.7644000053405762
0.850087921,0,0,1.5203180313110352,0,0,0.8408399820327759
0.851090485,0,0,1.5203180313110352,0,0,0.6879600286483765
0.852087919,0,0,1.5203180313110352,0,0,0.7644000053405762
0.853094298,0,0,1.5203180313110352,0,0,0.9172800183296204
0.85422412,0,0,1.5203180313110352,0,0,1.070159912109375
0.855092611,0,0,1.5203180313110352,0,0,0.611519992351532
0.85608986,0,0,1.623268723487854,0,0,0.6879600286483765
0.857091017,0,0,1.623268723487854,0,0,0.8408399820327759
0.858088636,0,0,1.623268723487854,0,0,0.7644000053405762
0.859088571,0,0,1.623268723487854,0,0,0.9172800183296204
0.86009082,0,0,1.623268723487854,0,0,0.9937199950218201
0.861091051,0,0,1.623268723487854,0,0,0.6879600286483765
0.862088559,0,0,1.623268723487854,0,0,0.3822000026702881
0.863087808,0,0,1.5466543436050415,0,0,0.3822000026702881
0.864090761,0,0,1.5466543436050415,0,0,0.9172800183296204
0.865088473,0,0,1.5466543436050415,0,0,0.6879600286483765
0.866090889,0,0,1.5466543436050415,0,0,0.8408399820327759
0.867088564,0,0,1.5466543436050415,0,0,0.9937199950218201
0.86809261,0,0,1.5466543436050415,0,0,0.9172800183296204
0.869089933,0,0,1.5466543436050415,0,0,1.070159912109375
0.870087757,0,0,1.4891934394836426,0,0,0.9937199950218201
0.871090524,0,0,1.4891934394836426,0,0,0.8408399820327759
0.872090125,0,0,1.4891934394836426,0,0,0.7644000053405762
0.873087893,0,0,1.4891934394836426,0,0,0.9172800183296204
0.874090698,0,0,1.4891934394836426,0,0,0.9172800183296204
0.875088984,0,0,1.4891934394836426,0,0,0.7644000053405762
0.876091215,0,0,1.4891934394836426,0,0,0.5350799560546875
0.877089075,0,0,1.4173674583435059,0,0,0.9937199950218201
0.878091009,0,0,1.4173674583435059,0,0,1.1466000080108643
0.879088888,0,0,1.4173674583435059,0,0,1.070159912109375
0.880090656,0,0,1.4173674583435059,0,0,0.7644000053405762
0.881088887,0,0,1.4173674583435059,0,0,0.611519992351532
0.882098154,0,0,1.357512354850769,0,0,0.7644000053405762
0.883089033,0,0,1.357512354850769,0,0,0.9172800183296204
0.884088931,0,0,1.357512354850769,0,0,0.5350799560546875
0.885091143,0,0,1.357512354850769,0,0,0.4586400091648102
0.88608867,0,0,1.357512354850769,0,0,0.9937199950218201
0.887090752,0,0,1.357512354850769,0,0,0.6879600286483765
0.888088279,0,0,1.357512354850769,0,0,0.4586400091648102
0.889091751,0,0,1.414973258972168,0,0,0.9937199950218201
0.890090889,0,0,1.414973258972168,0,0,0.6879600286483765
0.891088749,0,0,1.414973258972168,0,0,0.9937199950218201
0.892090628,0,0,1.414973258972168,0,0,0.8408399820327759
0.893088303,0,0,1.414973258972168,0,0,0.8408399820327759
0.894091663,0,0,1.414973258972168,0,0,0.8408399820327759
0.895088709,0,0,1.414973258972168,0,0,0.8408399820327759
0.896090662,0,0,1.3646949529647827,0,0,0.611519992351532
0.897087911,0,0,1.3646949529647827,0,0,0.9937199950218201
0.89809079,0,0,1.3646949529647827,0,0,0.4586400091648102
0.899092391,0,0,1.3646949529647827,0,0,0.9172800183296204
0.900089992,0,0,1.3646949529647827,0,0,0.9937199950218201
0.901087945,0,0,1.3646949529647827,0,0,0.9172800183296204
0.902090694,0,0,1.3646949529647827,0,0,0.8408399820327759
0.90309024,0,0,1.3120225667953491,0,0,0.6879600286483765
0.904087933,0,0,1.3120225667953491,0,0,0.7644000053405762
0.905091368,0,0,1.3120225667953491,0,0,0.8408399820327759
0.906088802,0,0,1.3120225667953491,0,0,0.9937199950218201
0.907090977,0,0,1.3120225667953491,0,0,0.8408399820327759
0.908090023,0,0,1.3120225667953491,0,0,0.9172800183296204
0.909087939,0,0,1.3120225667953491,0,0,0.5350799560546875
0.910095058,0,0,1.359906554222107,0,0,0.6879600286483765
0.911089659,0,0,1.359906554222107,0,0,0.9172800183296204
0.912089501,0,0,1.359906554222107,0,0,0.9172800183296204
0.913090491,0,0,1.359906554222107,0,0,1.070159912109375
0.914088074,0,0,1.359906554222107,0,0,0.7644000053405762
0.915096378,0,0,1.359906554222107,0,0,0.9937199950218201
0.916091313,0,0,1.359906554222107,0,0,0.7644000053405762
0.917089877,0,0,1.4460978507995605,0,0,0.9172800183296204
0.918089311,0,0,1.4460978507995605,0,0,0.8408399820327759
0.919087838,0,0,1.4460978507995605,0,0,1.070159912109375
0.920088087,0,0,1.4460978507995605,0,0,0.6879600286483765
0.921088911,0,0,1.4460978507995605,0,0,0.7644000053405762
0.922090882,0,0,1.4460978507995605,0,0,0.6879600286483765
0.923088687,0,0,1.4460978507995605,0,0,0.8408399820327759
0.924090732,0,0,1.4844050407409668,0,0,0.9172800183296204
0.92509013,0,0,1.4844050407409668,0,0,0.7644000053405762
0.926087953,0,0,1.4844050407409668,0,0,0.6879600286483765
0.927090795,0,0,1.4844050407409668,0,0,0.9172800183296204
0.928088563,0,0,1.4844050407409668,0,0,-9.172800064086914
0.929090404,0,0,1.4844050407409668,0,0,0.6879600286483765
0.930096505,0,0,1.4844050407409668,0,0,0.9172800183296204
0.931091236,0,0,1.522712230682373,0,0,0.611519992351532
0.932089133,0,0,1.522712230682373,0,0,0.7644000053405762
0.933091031,0,0,1.522712230682373,0,0,0.8408399820327759
0.934090706,0,0,1.522712230682373,0,0,0.9172800183296204
0.935088029,0,0,1.522712230682373,0,0,1.070159912109375
0.936090778,0,0,1.522712230682373,0,0,1.070159912109375
0.937086805,0,0,1.522712230682373,0,0,1.070159912109375
0.938088758,0,0,1.4317326545715332,0,0,0.5350799560546875
0.939089841,0,0,1.4317326545715332,0,0,0.7644000053405762
0.940089535,0,0,1.4317326545715332,0,0,0.611519992351532
0.941091024,0,0,1.4317326545715332,0,0,1.070159912109375
0.942088218,0,0,1.4317326545715332,0,0,0.5350799560546875
0.943090856,0,0,1.4317326545715332,0,0,0.9172800183296204
0.944088587,0,0,1.4317326545715332,0,0,0.8408399820327759
0.945091503,0,0,1.5466543436050415,0,0,0.8408399820327759
0.946095511,0,0,1.5466543436050415,0,0,0.6879600286483765
0.947091186,0,0,1.5466543436050415,0,0,0.5350799560546875
0.948088528,0,0,1.5466543436050415,0,0,0.7644000053405762
0.949090944,0,0,1.5466543436050415,0,0,0.611519992351532
0.950088286,0,0,1.5466543436050415,0,0,0.9172800183296204
0.951090665,0,0,1.5466543436050415,0,0,0.8408399820327759
0.952090044,0,0,1.558625340461731,0,0,0.4586400091648102
0.953088145,0,0,1.558625340461731,0,0,0.9172800183296204
0.954090746,0,0,1.558625340461731,0,0,0.9172800183296204
0.955088291,0,0,1.558625340461731,0,0,1.223039984703064
0.956087892,0,0,1.558625340461731,0,0,0.9937199950218201
0.957091234,0,0,1.558625340461731,0,0,1.1466000080108643
0.958088724,0,0,1.558625340461731,0,0,0.611519992351532
0.959090807,0,0,1.4101848602294922,0,0,0.7644000053405762
0.960088426,0,0,1.4101848602294922,0,0,0.9937199950218201
0.961090564,0,0,1.4101848602294922,0,0,0.9172800183296204
0.962088221,0,0,1.4101848602294922,0,0,0.6879600286483765
0.963090933,0,0,1.4101848602294922,0,0,0.7644000053405762
0.964088682,0,0,1.4221558570861816,0,0,1.070159912109375
0.965088209,0,0,1.4221558570861816,0,0,0.9172800183296204
0.966090866,0,0,1.4221558570861816,0,0,1.070159912109375
0.967088485,0,0,1.4221558570861816,0,0,0.9172800183296204
0.968090698,0,0,1.4221558570861816,0,0,1.070159912109375
0.969088169,0,0,1.4221558570861816,0,0,0.9172800183296204
0.970087992,0,0,1.4221558570861816,0,0,0.9937199950218201
0.971090519,0,0,1.3407529592514038,0,0,0.6879600286483765
0.972087861,0,0,1.3407529592514038,0,0,0.611519992351532
0.973089795,0,0,1.3407529592514038,0,0,0.9172800183296204
0.97408873,0,0,1.3407529592514038,0,0,0.4586400091648102
0.975089127,0,0,1.3407529592514038,0,0,0.7644000053405762
0.976088784,0,0,1.3407529592514038,0,0,0.8408399820327759
0.977859192,0,0,1.3407529592514038,0,0,0.5350799560546875
0.978087801,0,0,1.2737152576446533,0,0,0.9172800183296204
0.97908705,0,0,1.2737152576446533,0,0,1.070159912109375
0.980099484,0,0,1.2737152576446533,0,0,1.070159912109375
0.981089048,0,0,1.2737152576446533,0,0,0.9172800183296204
0.982087353,0,0,1.2737152576446533,0,0,0.6879600286483765
0.983090676,0,0,1.2737152576446533,0,0,0.611519992351532
0.984090981,0,0,1.2737152576446533,0,0,0.6879600286483765
0.985088749,0,0,1.4269442558288574,0,0,0.611519992351532
0.986088943,0,0,1.4269442558288574,0,0,0.8408399820327759
0.987089025,0,0,1.4269442558288574,0,0,0.8408399820327759
0.988089052,0,0,1.4269442558288574,0,0,0.7644000053405762
0.989090838,0,0,1.4269442558288574,0,0,0.8408399820327759
0.990092884,0,0,1.4269442558288574,0,0,0.9172800183296204
0.991087559,0,0,1.4269442558288574,0,0,0.611519992351532
0.992091549,0,0,1.41257905960083,0,0,0.7644000053405762
0.993091094,0,0,1.41257905960083,0,0,0.6879600286483765
0.994088344,0,0,1.41257905960083,0,0,0.9172800183296204
0.995090389,0,0,1.41257905960083,0,0,0.9172800183296204
0.996087509,0,0,1.41257905960083,0,0,0.5350799560546875
0.997088184,0,0,1.41257905960083,0,0,0.9937199950218201
0.998090415,0,0,1.41257905960083,0,0,1.070159912109375
0.999087479,0,0,1.5658079385757446,0,0,0.6879600286483765
1.000090654,0,0,1.5658079385757446,0,0,0.8408399820327759
1.001088347,0,0,1.5658079385757446,0,0,0.4586400091648102
1.002088004,0,0,1.5658079385757446,0,0,0.9937199950218201
1.003090587,0,0,1.5658079385757446,0,0,0.7644000053405762
1.004088225,0,0,1.5658079385757446,0,0,0.9172800183296204
1.005091215,0,0,1.5658079385757446,0,0,0.611519992351532
1.006090482,0,0,1.5275006294250488,0,0,0.7644000053405762
1.007087824,0,0,1.5275006294250488,0,0,0.152879998087883
1.008090425,0,0,1.5275006294250488,0,0,0.8408399820327759
1.009087545,0,0,1.5275006294250488,0,0,0.7644000053405762
1.010105553,0,0,1.5275006294250488,0,0,0.7644000053405762
1.011091062,0,0,1.5275006294250488,0,0,0.9937199950218201
1.012088033,0,0,1.5275006294250488,0,0,0.9172800183296204
1.01309069,0,0,1.5825673341751099,0,0,0.7644000053405762
1.014088383,0,0,1.5825673341751099,0,0,0.9172800183296204
1.015087799,0,0,1.5825673341751099,0,0,0.7644000053405762
1.016090493,0,0,1.5825673341751099,0,0,0.7644000053405762
1.017087853,0,0,1.5825673341751099,0,0,0.8408399820327759
1.018090028,0,0,1.5825673341751099,0,0,0.5350799560546875
1.019091389,0,0,1.5825673341751099,0,0,0.8408399820327759
1.020087305,0,0,1.623268723487854,0,0,0.8408399820327759
1.021087183,0,0,1.623268723487854,0,0,0.7644000053405762
1.022087155,0,0,1.623268723487854,0,0,1.1466000080108643
1.023093571,0,0,1.623268723487854,0,0,0.7644000053405762
1.024091301,0,0,1.623268723487854,0,0,0.6879600286483765
1.025179902,0,0,1.623268723487854,0,0,0.9172800183296204
1.026088652,0,0,1.623268723487854,0,0,0.8408399820327759
1.027087271,0,0,1.4245500564575195,0,0,0.6879600286483765
1.028087354,0,0,1.4245500564575195,0,0,0.9937199950218201
1.02908701,0,0,1.4245500564575195,0,0,0.7644000053405762
1.030091797,0,0,1.4245500564575195,0,0,0.9172800183296204
1.031090176,0,0,1.4245500564575195,0,0,0.611519992351532
1.032087999,0,0,1.4245500564575195,0,0,0.7644000053405762
1.033091155,0,0,1.4245500564575195,0,0,0.7644000053405762
1.034088664,0,0,1.3910311460494995,0,0,0.9937199950218201
1.035090487,0,0,1.3910311460494995,0,0,0.9937199950218201
1.03608794,0,0,1.3910311460494995,0,0,0.611519992351532
1.037088078,0,0,1.3910311460494995,0,0,0.7644000053405762
1.038090513,0,0,1.3910311460494995,0,0,0.7644000053405762
1.039088577,0,0,1.3910311460494995,0,0,0.5350799560546875
1.040087715,0,0,1.3910311460494995,0,0,0.5350799560546875
1.041091019,0,0,1.3694833517074585,0,0,0.9172800183296204
1.042090121,0,0,1.3694833517074585,0,0,0.6879600286483765
1.043094185,0,0,1.3694833517074585,0,0,0.7644000053405762
1.044091323,0,0,1.3694833517074585,0,0,1.1466000080108643
1.045091072,0,0,1.3694833517074585,0,0,0.8408399820327759
1.046090932,0,0,1.3694833517074585,0,0,0.8408399820327759
1.047088848,0,0,1.3694833517074585,0,0,0.9172800183296204
1.048091097,0,0,1.2641384601593018,0,0,0.7644000053405762
1.049087124,0,0,1.2641384601593018,0,0,0.6879600286483765
1.05008904,0,0,1.2641384601593018,0,0,1.070159912109375
1.051088919,0,0,1.2641384601593018,0,0,0.5350799560546875
1.052088965,0,0,1.2641384601593018,0,0,0.9172800183296204
1.053090862,0,0,1.2641384601593018,0,0,0.8408399820327759
1.05409313,0,0,1.2641384601593018,0,0,0.8408399820327759
1.055091527,0,0,1.357512354850769,0,0,0.9172800183296204
1.056089128,0,0,1.357512354850769,0,0,0.611519992351532
1.057090766,0,0,1.357512354850769,0,0,0.9172800183296204
1.058088275,0,0,1.357512354850769,0,0,0.6879600286483765
1.05908769,0,0,1.357512354850769,0,0,0.5350799560546875
1.0600908470000001,0,0,1.357512354850769,0,0,0.8408399820327759
1.061089189,0,0,1.357512354850769,0,0,0.4586400091648102
1.062087531,0,0,1.3192051649093628,0,0,0.7644000053405762
1.063090335,0,0,1.3192051649093628,0,0,0.7644000053405762
1.064090122,0,0,1.3192051649093628,0,0,0.7644000053405762
1.065087649,0,0,1.3192051649093628,0,0,0.611519992351532
1.066090435,0,0,1.3192051649093628,0,0,0.7644000053405762
1.067088184,0,0,1.3192051649093628,0,0,1.1466000080108643
1.068087767,0,0,1.3192051649093628,0,0,0.6879600286483765
1.069090534,0,0,1.400607943534851,0,0,0.6879600286483765
1.070088043,0,0,1.400607943534851,0,0,0.611519992351532
1.071090662,0,0,1.400607943534851,0,0,0.8408399820327759
1.072088523,0,0,1.400607943534851,0,0,0.5350799560546875
1.073087735,0,0,1.400607943534851,0,0,0.8408399820327759
1.0740908359999999,0,0,1.400607943534851,0,0,0.9937199950218201
1.07508853,0,0,1.400607943534851,0,0,0.9172800183296204
1.076090594,0,0,1.5634137392044067,0,0,0.611519992351532
1.077090047,0,0,1.5634137392044067,0,0,0.6879600286483765
1.078088222,0,0,1.5634137392044067,0,0,0.4586400091648102
1.079090397,0,0,1.5634137392044067,0,0,0.8408399820327759
1.080088183,0,0,1.5634137392044067,0,0,0.6879600286483765
1.081087747,0,0,1.5634137392044067,0,0,0.9172800183296204
1.082090719,0,0,1.5634137392044067,0,0,0.9937199950218201
1.083088412,0,0,1.601720929145813,0,0,0.611519992351532
1.084090847,0,0,1.601720929145813,0,0,0.6879600286483765
1.085090633,0,0,1.601720929145813,0,0,0.7644000053405762
1.086090197,0,0,1.601720929145813,0,0,0.7644000053405762
1.087088594,0,0,1.601720929145813,0,0,0.9937199950218201
1.088111491,0,0,1.601720929145813,0,0,0.9172800183296204
1.089120778,0,0,1.601720929145813,0,0,0.9172800183296204
1.090113638,0,0,1.455674648284912,0,0,0.8408399820327759
1.091105184,0,0,1.455674648284912,0,0,0.9172800183296204
1.0920871,0,0,1.455674648284912,0,0,0.6879600286483765
1.093087293,0,0,1.455674648284912,0,0,1.070159912109375
1.094088635,0,0,1.455674648284912,0,0,0.5350799560546875
1.095089995,0,0,1.455674648284912,0,0,0.8408399820327759
1.09608867,0,0,1.455674648284912,0,0,1.070159912109375
1.097090234,0,0,1.4987702369689941,0,0,0.7644000053405762
1.09808891,0,0,1.4987702369689941,0,0,1.070159912109375
1.0990889,0,0,1.4987702369689941,0,0,0.8408399820327759
1.10008889,0,0,1.4987702369689941,0,0,0.4586400091648102
1.101091342,0,0,1.4987702369689941,0,0,0.8408399820327759
1.102094703,0,0,1.4987702369689941,0,0,0.7644000053405762
1.103091415,0,0,1.4987702369689941,0,0,0.5350799560546875
1.104088831,0,0,1.4508862495422363,0,0,1.070159912109375
1.105091117,0,0,1.4508862495422363,0,0,0.5350799560546875
1.106088922,0,0,1.4508862495422363,0,0,0.8408399820327759
1.107088023,0,0,1.4508862495422363,0,0,0.9172800183296204
1.10808818,0,0,1.4508862495422363,0,0,0.9172800183296204
1.109089688,0,0,1.4508862495422363,0,0,0.9937199950218201
1.110089122,0,0,1.4508862495422363,0,0,0.5350799560546875
1.111089409,0,0,1.357512354850769,0,0,0.6879600286483765
1.112088991,0,0,1.357512354850769,0,0,0.4586400091648102
1.113091092,0,0,1.357512354850769,0,0,0.6879600286483765
1.114088527,0,0,1.357512354850769,0,0,0.6879600286483765
1.1150909979999999,0,0,1.357512354850769,0,0,0.9172800183296204
1.116093969,0,0,1.357512354850769,0,0,0.305759996175766
1.117090571,0,0,1.357512354850769,0,0,0.611519992351532
1.118088486,0,0,1.3958195447921753,0,0,0.6879600286483765
1.119090662,0,0,1.3958195447921753,0,0,0.7644000053405762
1.120088596,0,0,1.3958195447921753,0,0,0.7644000053405762
1.121088308,0,0,1.3958195447921753,0,0,0.7644000053405762
1.122090668,0,0,1.3958195447921753,0,0,1.1466000080108643
1.123088807,0,0,1.3958195447921753,0,0,0.611519992351532
1.124087519,0,0,1.3958195447921753,0,0,0.611519992351532
1.125090898,0,0,1.3311761617660522,0,0,0.5350799560546875
1.126090387,0,0,1.3311761617660522,0,0,0.611519992351532
1.127088377,0,0,1.3311761617660522,0,0,0.611519992351532
1.128135867,0,0,1.3311761617660522,0,0,0.9172800183296204
1.129918442,0,0,1.3311761617660522,0,0,1.605239987373352
1.130116699,0,0,1.3311761617660522,0,0,0.7644000053405762
1.131116504,0,0,1.3311761617660522,0,0,1.070159912109375
1.13212416,0,0,1.290474772453308,0,0,0.8408399820327759
1.133101095,0,0,1.290474772453308,0,0,0.9172800183296204
1.134098085,0,0,1.290474772453308,0,0,0.8408399820327759
1.135094964,0,0,1.290474772453308,0,0,0.8408399820327759
1.13609088,0,0,1.290474772453308,0,0,0.7644000053405762
1.137089684,0,0,1.290474772453308,0,0,1.070159912109375
1.138088656,0,0,1.290474772453308,0,0,0.8408399820327759
1.1390876460000001,0,0,1.3742717504501343,0,0,0.8408399820327759
1.140087654,0,0,1.3742717504501343,0,0,0.8408399820327759
1.141088496,0,0,1.3742717504501343,0,0,0.9172800183296204
1.142087893,0,0,1.3742717504501343,0,0,0.6879600286483765
1.143087754,0,0,1.3742717504501343,0,0,0.9172800183296204
1.144087836,0,0,1.3742717504501343,0,0,0.6879600286483765
1.145089382,0,0,1.3742717504501343,0,0,0.611519992351532
1.146095964,0,0,1.525106430053711,0,0,0.7644000053405762
1.147096862,0,0,1.525106430053711,0,0,0.5350799560546875
1.14809224,0,0,1.525106430053711,0,0,0.7644000053405762
1.149092693,0,0,1.525106430053711,0,0,0.6879600286483765
1.150091387,0,0,1.525106430053711,0,0,0.7644000053405762
1.151092414,0,0,1.525106430053711,0,0,0.9937199950218201
1.1520917370000001,0,0,1.525106430053711,0,0,0.8408399820327759
1.153092598,0,0,1.4748282432556152,0,0,1.1466000080108643
1.154091884,0,0,1.4748282432556152,0,0,0.9172800183296204
1.155107003,0,0,1.4748282432556152,0,0,0.611519992351532
1.156092123,0,0,1.4748282432556152,0,0,0.8408399820327759
1.157092798,0,0,1.4748282432556152,0,0,0.3822000026702881
1.15809164,0,0,1.4748282432556152,0,0,0.7644000053405762
1.1590915,0,0,1.4748282432556152,0,0,0.3822000026702881
1.160091212,0,0,1.5658079385757446,0,0,0.611519992351532
1.161092295,0,0,1.5658079385757446,0,0,0.8408399820327759
1.162091396,0,0,1.5658079385757446,0,0,1.223039984703064
1.16309146,0,0,1.5658079385757446,0,0,0.9937199950218201
1.164090987,0,0,1.5658079385757446,0,0,0.8408399820327759
1.165091199,0,0,1.5658079385757446,0,0,0.8408399820327759
1.166091097,0,0,1.5658079385757446,0,0,0.8408399820327759
1.1670912900000001,0,0,1.4963760375976563,0,0,0.8408399820327759
1.168091206,0,0,1.4963760375976563,0,0,0.8408399820327759
1.169091566,0,0,1.4963760375976563,0,0,0.611519992351532
1.170091205,0,0,1.4963760375976563,0,0,0.0764399990439415
1.171090972,0,0,1.4963760375976563,0,0,0.6879600286483765
1.172091221,0,0,1.4963760375976563,0,0,0.9172800183296204
1.173091304,0,0,1.4963760375976563,0,0,0.7644000053405762
1.174091053,0,0,1.5179238319396973,0,0,1.223039984703064
1.175090988,0,0,1.5179238319396973,0,0,0.9172800183296204
1.176091181,0,0,1.5179238319396973,0,0,0.7644000053405762
1.177091264,0,0,1.5179238319396973,0,0,0.9937199950218201
1.178093346,0,0,1.5179238319396973,0,0,0.5350799560546875
1.179091225,0,0,1.5179238319396973,0,0,0.6879600286483765
1.180091511,0,0,1.5179238319396973,0,0,0.7644000053405762
1.181092964,0,0,1.359906554222107,0,0,0.4586400091648102
1.182091491,0,0,1.359906554222107,0,0,1.070159912109375
1.183091074,0,0,1.359906554222107,0,0,0.611519992351532
1.184090712,0,0,1.359906554222107,0,0,0.6879600286483765
1.185092165,0,0,1.359906554222107,0,0,1.070159912109375
1.186091266,0,0,1.359906554222107,0,0,0.7644000053405762
1.18709096,0,0,1.359906554222107,0,0,0.8408399820327759
1.188091227,0,0,1.2689268589019775,0,0,0.8408399820327759
1.189090569,0,0,1.2689268589019775,0,0,0.7644000053405762
1.190090855,0,0,1.2689268589019775,0,0,0.5350799560546875
1.19109129,0,0,1.2689268589019775,0,0,0.8408399820327759
1.19209102,0,0,1.2689268589019775,0,0,0.305759996175766
1.193091418,0,0,1.2689268589019775,0,0,1.1466000080108643
1.194091278,0,0,1.2689268589019775,0,0,1.070159912109375
1.19509099,0,0,1.3287819623947144,0,0,0.7644000053405762
1.1960912399999999,0,0,1.3287819623947144,0,0,1.2994799613952637
1.197091674,0,0,1.3287819623947144,0,0,0.9172800183296204
1.198091256,0,0,1.3287819623947144,0,0,0.7644000053405762
1.199090672,0,0,1.3287819623947144,0,0,0.8408399820327759
1.20009094,0,0,1.3287819623947144,0,0,0.9937199950218201
1.201091486,0,0,1.3287819623947144,0,0,0.611519992351532
1.202091198,0,0,1.2449848651885986,0,0,0.9937199950218201
1.203091132,0,0,1.2449848651885986,0,0,0.3822000026702881
1.204091085,0,0,1.2449848651885986,0,0,0.6879600286483765
1.205091723,0,0,1.2449848651885986,0,0,0.7644000053405762
1.206090935,0,0,1.2449848651885986,0,0,0.8408399820327759
1.207091203,0,0,1.2449848651885986,0,0,0.6879600286483765
1.208090804,0,0,1.2449848651885986,0,0,0.4586400091648102
1.209093553,0,0,1.3335703611373901,0,0,0.9172800183296204
1.210094136,0,0,1.3335703611373901,0,0,0.9172800183296204
1.21109183,0,0,1.3335703611373901,0,0,0.7644000053405762
1.212089468,0,0,1.3335703611373901,0,0,0.611519992351532
1.213090754,0,0,1.3335703611373901,0,0,0.9172800183296204
1.214090836,0,0,1.3335703611373901,0,0,0.611519992351532
1.215090826,0,0,1.3335703611373901,0,0,0.8408399820327759
1.216091039,0,0,1.3311761617660522,0,0,0.8408399820327759
1.217091528,0,0,1.3311761617660522,0,0,0.6879600286483765
1.218090963,0,0,1.3311761617660522,0,0,0.9937199950218201
1.219090527,0,0,1.3311761617660522,0,0,0.9172800183296204
1.220091313,0,0,1.3311761617660522,0,0,0.9172800183296204
1.221091914,0,0,1.3311761617660522,0,0,0.7644000053405762
1.222091182,0,0,1.3311761617660522,0,0,0.8408399820327759
1.223090802,0,0,1.4724340438842773,0,0,0.611519992351532
1.224090829,0,0,1.4724340438842773,0,0,0.6879600286483765
1.225092504,0,0,1.4724340438842773,0,0,0.6879600286483765
1.22609129,0,0,1.4724340438842773,0,0,0.8408399820327759
1.227091058,0,0,1.4724340438842773,0,0,1.070159912109375
1.228090862,0,0,1.4724340438842773,0,0,0.6879600286483765
1.229092723,0,0,1.4724340438842773,0,0,0.9172800183296204
1.230091453,0,0,1.525106430053711,0,0,0.7644000053405762
1.231091092,0,0,1.525106430053711,0,0,0.7644000053405762
1.232090674,0,0,1.525106430053711,0,0,1.070159912109375
1.233091368,0,0,1.525106430053711,0,0,0.4586400091648102
1.234091043,0,0,1.525106430053711,0,0,1.070159912109375
1.235090625,0,0,1.525106430053711,0,0,0.9172800183296204
1.236090838,0,0,1.525106430053711,0,0,0.4586400091648102
1.23709129,0,0,1.558625340461731,0,0,0.8408399820327759
1.238091743,0,0,1.558625340461731,0,0,0.9172800183296204
1.239091344,0,0,1.558625340461731,0,0,0.8408399820327759
1.240094168,0,0,1.558625340461731,0,0,0.8408399820327759
1.241092472,0,0,1.558625340461731,0,0,0.7644000053405762
1.242091722,0,0,1.558625340461731,0,0,0.8408399820327759
1.243091063,0,0,1.558625340461731,0,0,0.8408399820327759
1.244090813,0,0,1.5107412338256836,0,0,0.611519992351532
1.245090988,0,0,1.5107412338256836,0,0,0.7644000053405762
1.246091033,0,0,1.5107412338256836,0,0,0.8408399820327759
1.247091412,0,0,1.5107412338256836,0,0,0.7644000053405762
1.248091069,0,0,1.5107412338256836,0,0,0.9172800183296204
1.249091281,0,0,1.5107412338256836,0,0,0.9172800183296204
1.2500912149999999,0,0,1.5107412338256836,0,0,0.9937199950218201
1.251091205,0,0,1.5682021379470825,0,0,0.9172800183296204
1.252090658,0,0,1.5682021379470825,0,0,0.6879600286483765
1.253091259,0,0,1.5682021379470825,0,0,0.7644000053405762
1.25409112,0,0,1.5682021379470825,0,0,0.8408399820327759
1.255091073,0,0,1.5682021379470825,0,0,0.6879600286483765
1.2560911,0,0,1.5682021379470825,0,0,0.7644000053405762
1.257091608,0,0,1.5682021379470825,0,0,0.9937199950218201
1.258091061,0,0,1.4460978507995605,0,0,0.6879600286483765
1.259090773,0,0,1.4460978507995605,0,0,0.8408399820327759
1.260091633,0,0,1.4460978507995605,0,0,0.8408399820327759
1.2610909750000001,0,0,1.4460978507995605,0,0,0.8408399820327759
1.26209115,0,0,1.4460978507995605,0,0,0.9937199950218201
1.263090788,0,0,1.4460978507995605,0,0,0.6879600286483765
1.264090852,0,0,1.4460978507995605,0,0,0.7644000053405762
1.2650924159999999,0,0,1.3670891523361206,0,0,0.611519992351532
1.26609148,0,0,1.3670891523361206,0,0,0.6879600286483765
1.2670910819999999,0,0,1.3670891523361206,0,0,0.9172800183296204
1.2680907750000001,0,0,1.3670891523361206,0,0,0.6879600286483765
1.2690920430000001,0,0,1.3670891523361206,0,0,1.070159912109375
1.2700910699999999,0,0,1.3670891523361206,0,0,0.9172800183296204
1.271093412,0,0,1.3670891523361206,0,0,0.9937199950218201
1.2720913280000001,0,0,1.4053963422775269,0,0,0.7644000053405762
1.273092447,0,0,1.4053963422775269,0,0,1.2994799613952637
1.274091474,0,0,1.4053963422775269,0,0,0.6879600286483765
1.275091149,0,0,1.4053963422775269,0,0,0.8408399820327759
1.276090473,0,0,1.4053963422775269,0,0,1.070159912109375
1.277091092,0,0,1.4053963422775269,0,0,0.7644000053405762
1.278091101,0,0,1.4053963422775269,0,0,0.5350799560546875
1.279090813,0,0,1.290474772453308,0,0,0.6879600286483765
1.280090618,0,0,1.290474772453308,0,0,0.5350799560546875
1.281091145,0,0,1.290474772453308,0,0,0.6879600286483765
1.282091505,0,0,1.290474772453308,0,0,0.9937199950218201
1.283091476,0,0,1.290474772453308,0,0,1.1466000080108643
1.284090707,0,0,1.290474772453308,0,0,0.5350799560546875
1.285091438,0,0,1.290474772453308,0,0,0.9172800183296204
1.286111631,0,0,1.3479355573654175,0,0,0.5350799560546875
1.287133788,0,0,1.3479355573654175,0,0,1.1466000080108643
1.288117741,0,0,1.3479355573654175,0,0,0.5350799560546875
1.289117971,0,0,1.3479355573654175,0,0,1.070159912109375
1.290149202,0,0,1.3479355573654175,0,0,0.4586400091648102
1.291115488,0,0,1.3479355573654175,0,0,0.5350799560546875
1.292126348,0,0,1.3479355573654175,0,0,0.9937199950218201
1.293123079,0,0,1.4221558570861816,0,0,0.7644000053405762
1.294140958,0,0,1.4221558570861816,0,0,0.8408399820327759
1.295119578,0,0,1.4221558570861816,0,0,0.5350799560546875
1.296149678,0,0,1.4221558570861816,0,0,0.9172800183296204
1.2971280570000001,0,0,1.4221558570861816,0,0,0.6879600286483765
1.298141195,0,0,1.4221558570861816,0,0,0.5350799560546875
1.299131185,0,0,1.4221558570861816,0,0,0.611519992351532
1.300105602,0,0,1.5418659448623657,0,0,0.7644000053405762
1.301122591,0,0,1.5418659448623657,0,0,0.6879600286483765
1.3024275410000001,0,0,1.5418659448623657,0,0,0.7644000053405762
1.303116849,0,0,1.5418659448623657,0,0,0.9172800183296204
1.305283476,0,0,1.5418659448623657,0,0,0.9172800183296204
1.305307216,0,0,1.5418659448623657,0,0,0.7644000053405762
1.306128689,0,0,1.5418659448623657,0,0,0.7644000053405762
1.307115679,0,0,1.6112977266311646,0,0,0.9172800183296204
1.308124688,0,0,1.6112977266311646,0,0,0.611519992351532
1.309117844,0,0,1.6112977266311646,0,0,0.7644000053405762
1.310139982,0,0,1.6112977266311646,0,0,0.6879600286483765
1.311119954,0,0,1.6112977266311646,0,0,0.9937199950218201
1.312107222,0,0,1.6112977266311646,0,0,0.5350799560546875
1.313123674,0,0,1.6112977266311646,0,0,1.070159912109375
1.314141961,0,0,1.580173134803772,0,0,0.7644000053405762
1.315136414,0,0,1.580173134803772,0,0,0.7644000053405762
1.316121311,0,0,1.580173134803772,0,0,1.1466000080108643
1.3171277080000001,0,0,1.580173134803772,0,0,0.8408399820327759
1.318127476,0,0,1.580173134803772,0,0,0.9937199950218201
1.319131318,0,0,1.580173134803772,0,0,0.8408399820327759
1.32012853,0,0,1.580173134803772,0,0,0.611519992351532
1.3211228529999999,0,0,1.5682021379470825,0,0,0.8408399820327759
1.3221519910000001,0,0,1.5682021379470825,0,0,0.9937199950218201
1.32314574,0,0,1.5682021379470825,0,0,0.5350799560546875
1.324125545,0,0,1.5682021379470825,0,0,0.8408399820327759
1.325159739,0,0,1.5682021379470825,0,0,0.9172800183296204
1.326132544,0,0,1.5682021379470825,0,0,0.8408399820327759
1.327111627,0,0,1.5682021379470825,0,0,0.9172800183296204
1.32813095,0,0,1.5825673341751099,0,0,0.6879600286483765
1.329128995,0,0,1.5825673341751099,0,0,0.6879600286483765
1.330132689,0,0,1.5825673341751099,0,0,0.9937199950218201
1.331138253,0,0,1.5825673341751099,0,0,0.611519992351532
1.33210665,0,0,1.5825673341751099,0,0,0.7644000053405762
1.333098492,0,0,1.5825673341751099,0,0,1.070159912109375
1.334089927,0,0,1.5825673341751099,0,0,0.8408399820327759
1.335101139,0,0,1.4508862495422363,0,0,1.070159912109375
1.33608737,0,0,1.4508862495422363,0,0,0.6879600286483765
1.337091878,0,0,1.4508862495422363,0,0,0.4586400091648102
1.338087794,0,0,1.4508862495422363,0,0,0.8408399820327759
1.339090728,0,0,1.4508862495422363,0,0,0.7644000053405762
1.3406991750000001,0,0,1.4508862495422363,0,0,1.1466000080108643
1.34126204,0,0,1.4508862495422363,0,0,0.6879600286483765
1.342118957,0,0,1.290474772453308,0,0,0.6879600286483765
1.343100114,0,0,1.290474772453308,0,0,0.8408399820327759
1.344108604,0,0,1.290474772453308,0,0,0.8408399820327759
1.345088261,0,0,1.290474772453308,0,0,0.6879600286483765
1.346086251,0,0,1.290474772453308,0,0,0.8408399820327759
1.3470874259999999,0,0,1.290474772453308,0,0,0.6879600286483765
1.348089471,0,0,1.290474772453308,0,0,0.7644000053405762
1.349089591,0,0,1.3503297567367554,0,0,0.8408399820327759
1.3500890810000001,0,0,1.3503297567367554,0,0,0.8408399820327759
1.351089108,0,0,1.3503297567367554,0,0,0.8408399820327759
1.3520897459999999,0,0,1.3503297567367554,0,0,0.611519992351532
1.353089328,0,0,1.3503297567367554,0,0,0.611519992351532
1.354088967,0,0,1.3503297567367554,0,0,0.6879600286483765
1.355088938,0,0,1.3503297567367554,0,0,0.6879600286483765
1.356089243,0,0,1.2617442607879639,0,0,0.6879600286483765
1.35708714,0,0,1.2617442607879639,0,0,0.9172800183296204
1.358087019,0,0,1.2617442607879639,0,0,1.1466000080108643
1.359095268,0,0,1.2617442607879639,0,0,0.8408399820327759
1.360088369,0,0,1.2617442607879639,0,0,0.9937199950218201
1.361090026,0,0,1.2617442607879639,0,0,0.8408399820327759
1.362089386,0,0,1.2617442607879639,0,0,0.9937199950218201
1.3630892829999999,0,0,1.3886369466781616,0,0,0.611519992351532
1.364093422,0,0,1.3886369466781616,0,0,0.8408399820327759
1.36509206,0,0,1.3886369466781616,0,0,0.9937199950218201
1.3660919009999999,0,0,1.3886369466781616,0,0,0.9172800183296204
1.367089854,0,0,1.3886369466781616,0,0,0.7644000053405762
1.368087992,0,0,1.3886369466781616,0,0,1.070159912109375
1.3690880939999999,0,0,1.3886369466781616,0,0,0.8408399820327759
1.370090843,0,0,1.4437036514282227,0,0,0.9172800183296204
1.371089333,0,0,1.4437036514282227,0,0,1.070159912109375
1.372091008,0,0,1.4437036514282227,0,0,0.611519992351532
1.373089424,0,0,1.4437036514282227,0,0,0.8408399820327759
1.374088062,0,0,1.4437036514282227,0,0,0.6879600286483765
1.3750880699999999,0,0,1.4437036514282227,0,0,0.6879600286483765
1.37609056,0,0,1.4437036514282227,0,0,0.6879600286483765
1.377088976,0,0,1.4748282432556152,0,0,0.5350799560546875
1.378091429,0,0,1.4748282432556152,0,0,0.8408399820327759
1.379089715,0,0,1.4748282432556152,0,0,0.7644000053405762
1.3800888900000001,0,0,1.4748282432556152,0,0,0.9937199950218201
1.381089788,0,0,1.4748282432556152,0,0,1.070159912109375
1.382089093,0,0,1.4748282432556152,0,0,0.6879600286483765
1.383088971,0,0,1.4748282432556152,0,0,0.9937199950218201
1.384088869,0,0,1.5538369417190552,0,0,0.7644000053405762
1.385091192,0,0,1.5538369417190552,0,0,0.9172800183296204
1.386089126,0,0,1.5538369417190552,0,0,0.5350799560546875
1.3870878389999999,0,0,1.5538369417190552,0,0,1.070159912109375
1.388087754,0,0,1.5538369417190552,0,0,0.5350799560546875
1.389091504,0,0,1.5538369417190552,0,0,0.9172800183296204
1.390089771,0,0,1.5538369417190552,0,0,0.8408399820327759
1.391087835,0,0,1.5705963373184204,0,0,0.8408399820327759
1.392090622,0,0,1.5705963373184204,0,0,1.1466000080108643
1.393088871,0,0,1.5705963373184204,0,0,0.611519992351532
1.394092064,0,0,1.5705963373184204,0,0,0.7644000053405762
1.395093369,0,0,1.5705963373184204,0,0,0.7644000053405762
1.396091341,0,0,1.5705963373184204,0,0,0.611519992351532
1.3970885339999999,0,0,1.5705963373184204,0,0,0.7644000053405762
1.398088228,0,0,1.5418659448623657,0,0,0.611519992351532
1.399090792,0,0,1.5418659448623657,0,0,0.6879600286483765
1.400088245,0,0,1.5418659448623657,0,0,0.7644000053405762
1.401090068,0,0,1.5418659448623657,0,0,0.8408399820327759
1.402086855,0,0,1.5418659448623657,0,0,0.6879600286483765
1.403089844,0,0,1.5418659448623657,0,0,1.070159912109375
1.404088816,0,0,1.5418659448623657,0,0,0.8408399820327759
1.405092565,0,0,1.5083470344543457,0,0,0.9937199950218201
1.406092055,0,0,1.5083470344543457,0,0,0.7644000053405762
1.4070904149999999,0,0,1.5083470344543457,0,0,0.7644000053405762
1.408088331,0,0,1.5083470344543457,0,0,0.8408399820327759
1.409093395,0,0,1.5083470344543457,0,0,0.9172800183296204
1.410092144,0,0,1.5083470344543457,0,0,0.8408399820327759
1.411089894,0,0,1.5083470344543457,0,0,1.070159912109375
1.412088198,0,0,1.3479355573654175,0,0,0.7644000053405762
1.413090244,0,0,1.3479355573654175,0,0,0.8408399820327759
1.4140891039999999,0,0,1.3479355573654175,0,0,0.8408399820327759
1.415088909,0,0,1.3479355573654175,0,0,0.7644000053405762
1.416089047,0,0,1.3479355573654175,0,0,0.6879600286483765
1.417091241,0,0,1.3479355573654175,0,0,0.8408399820327759
1.4180890640000001,0,0,1.3479355573654175,0,0,0.6879600286483765
1.419088461,0,0,1.3048399686813354,0,0,0.611519992351532
1.420090859,0,0,1.3048399686813354,0,0,0.8408399820327759
1.421090071,0,0,1.3048399686813354,0,0,0.611519992351532
1.422089376,0,0,1.3048399686813354,0,0,0.9172800183296204
1.423089329,0,0,1.3048399686813354,0,0,1.070159912109375
1.424088874,0,0,1.3048399686813354,0,0,0.7644000053405762
1.4250903830000001,0,0,1.3048399686813354,0,0,1.070159912109375
1.426091058,0,0,1.338358759880066,0,0,0.8408399820327759
1.427089455,0,0,1.338358759880066,0,0,0.7644000053405762
1.4280890560000001,0,0,1.338358759880066,0,0,0.8408399820327759
1.430307701,0,0,1.338358759880066,0,0,0.8408399820327759
1.430330867,0,0,1.338358759880066,0,0,0.6879600286483765
1.431095748,0,0,1.338358759880066,0,0,0.4586400091648102
1.432092071,0,0,1.338358759880066,0,0,0.4586400091648102
1.433087636,0,0,1.2952631711959839,0,0,0.9172800183296204
1.434090922,0,0,1.2952631711959839,0,0,0.6879600286483765
1.435089115,0,0,1.2952631711959839,0,0,0.9937199950218201
1.436088217,0,0,1.2952631711959839,0,0,1.1466000080108643
1.437090892,0,0,1.2952631711959839,0,0,0.8408399820327759
1.438088678,0,0,1.2952631711959839,0,0,0.9172800183296204
1.439088038,0,0,1.2952631711959839,0,0,0.9172800183296204
1.440090787,0,0,1.4628572463989258,0,0,0.6879600286483765
1.4410894810000001,0,0,1.4628572463989258,0,0,0.7644000053405762
1.44208773,0,0,1.4628572463989258,0,0,0.6879600286483765
1.443087887,0,0,1.4628572463989258,0,0,0.611519992351532
1.4440915429999999,0,0,1.4628572463989258,0,0,0.8408399820327759
1.445088978,0,0,1.4628572463989258,0,0,0.611519992351532
1.446087764,0,0,1.4628572463989258,0,0,0.9172800183296204
1.447090921,0,0,1.4652514457702637,0,0,0.8408399820327759
1.448088929,0,0,1.4652514457702637,0,0,0.9172800183296204
1.449090827,0,0,1.4652514457702637,0,0,0.7644000053405762
1.450088131,0,0,1.4652514457702637,0,0,0.9937199950218201
1.451090881,0,0,1.4652514457702637,0,0,0.6879600286483765
1.452090056,0,0,1.4652514457702637,0,0,0.6879600286483765
1.453088138,0,0,1.4652514457702637,0,0,0.611519992351532
1.454090702,0,0,1.5849615335464478,0,0,0.8408399820327759
1.4550880259999999,0,0,1.5849615335464478,0,0,0.9172800183296204
1.456087738,0,0,1.5849615335464478,0,0,0.8408399820327759
1.457091931,0,0,1.5849615335464478,0,0,0.6879600286483765
1.4580975139999999,0,0,1.5849615335464478,0,0,0.611519992351532
1.459090967,0,0,1.5849615335464478,0,0,0.7644000053405762
1.460088846,0,0,1.5849615335464478,0,0,0.9937199950218201
1.46108915,0,0,1.6711528301239014,0,0,0.8408399820327759
1.462087789,0,0,1.6711528301239014,0,0,0.7644000053405762
1.4630904820000001,0,0,1.6711528301239014,0,0,0.6879600286483765
1.464088305,0,0,1.6711528301239014,0,0,0.6879600286483765
1.465088351,0,0,1.6711528301239014,0,0,0.6879600286483765
1.466091063,0,0,1.6711528301239014,0,0,1.070159912109375
1.467088498,0,0,1.6711528301239014,0,0,0.8408399820327759
1.468087691,0,0,1.5490485429763794,0,0,0.9172800183296204
1.469090922,0,0,1.5490485429763794,0,0,0.9937199950218201
1.470090097,0,0,1.5490485429763794,0,0,0.6879600286483765
1.4710880130000001,0,0,1.5490485429763794,0,0,0.8408399820327759
1.472090484,0,0,1.5490485429763794,0,0,0.611519992351532
1.473088308,0,0,1.5490485429763794,0,0,0.6879600286483765
1.474088038,0,0,1.5490485429763794,0,0,0.8408399820327759
1.475090621,0,0,1.5682021379470825,0,0,0.7644000053405762
1.476088444,0,0,1.5682021379470825,0,0,0.611519992351532
1.477087749,0,0,1.5682021379470825,0,0,0.8408399820327759
1.478087998,0,0,1.5682021379470825,0,0,0.9937199950218201
1.479090673,0,0,1.5682021379470825,0,0,0.8408399820327759
1.480088108,0,0,1.5682021379470825,0,0,0.7644000053405762
1.48109082,0,0,1.5682021379470825,0,0,0.8408399820327759
1.482088291,0,0,1.5275006294250488,0,0,0.8408399820327759
1.4830910400000001,0,0,1.5275006294250488,0,0,0.6879600286483765
1.484090623,0,0,1.5275006294250488,0,0,0.8408399820327759
1.485089094,0,0,1.5275006294250488,0,0,0.9937199950218201
1.4860911030000001,0,0,1.5275006294250488,0,0,0.611519992351532
1.487090111,0,0,1.5275006294250488,0,0,0.611519992351532
1.4880904529999999,0,0,1.5275006294250488,0,0,0.7644000053405762
1.48908811,0,0,1.5275006294250488,0,0,0.611519992351532
1.490090544,0,0,1.3958195447921753,0,0,0.9172800183296204
1.4910880899999999,0,0,1.3958195447921753,0,0,0.5350799560546875
1.492087802,0,0,1.3958195447921753,0,0,0.8408399820327759
1.493091051,0,0,1.3958195447921753,0,0,0.7644000053405762
1.4940886340000001,0,0,1.3958195447921753,0,0,0.9172800183296204
1.495090494,0,0,1.3958195447921753,0,0,0.8408399820327759
1.496095817,0,0,1.3958195447921753,0,0,0.7644000053405762
1.497087566,0,0,1.400607943534851,0,0,0.4586400091648102
1.498087742,0,0,1.400607943534851,0,0,0.4586400091648102
1.499090694,0,0,1.400607943534851,0,0,1.070159912109375
1.500088536,0,0,1.400607943534851,0,0,0.9172800183296204
1.501088008,0,0,1.400607943534851,0,0,0.8408399820327759
1.5020906090000001,0,0,1.400607943534851,0,0,0.9172800183296204
1.503088414,0,0,1.400607943534851,0,0,0.8408399820327759
1.504090663,0,0,1.4077905416488647,0,0,0.611519992351532
1.5050896900000001,0,0,1.4077905416488647,0,0,0.8408399820327759
1.50608742,0,0,1.4077905416488647,0,0,0.7644000053405762
1.507087244,0,0,1.4077905416488647,0,0,0.5350799560546875
1.508087197,0,0,1.4077905416488647,0,0,0.611519992351532
1.509091909,0,0,1.4077905416488647,0,0,0.9172800183296204
1.510089177,0,0,1.4077905416488647,0,0,0.7644000053405762
1.5110925370000001,0,0,1.3551181554794312,0,0,0.7644000053405762
1.512090638,0,0,1.3551181554794312,0,0,0.6879600286483765
1.513091072,0,0,1.3551181554794312,0,0,0.7644000053405762
1.514090988,0,0,1.3551181554794312,0,0,0.9937199950218201
1.5150890339999998,0,0,1.3551181554794312,0,0,0.5350799560546875
1.516087616,0,0,1.3551181554794312,0,0,0.4586400091648102
1.5170879579999998,0,0,1.3551181554794312,0,0,0.7644000053405762
1.518087744,0,0,1.3718775510787964,0,0,0.7644000053405762
1.5190935300000001,0,0,1.3718775510787964,0,0,0.3822000026702881
1.5200908910000002,0,0,1.3718775510787964,0,0,0.6879600286483765
1.521088918,0,0,1.3718775510787964,0,0,0.7644000053405762
1.522098704,0,0,1.3718775510787964,0,0,0.7644000053405762
1.523088601,0,0,1.3718775510787964,0,0,0.9172800183296204
1.524090536,0,0,1.4460978507995605,0,0,0.9937199950218201
1.5250887290000001,0,0,1.4460978507995605,0,0,0.8408399820327759
1.5260876639999998,0,0,1.4460978507995605,0,0,0.8408399820327759
1.527087672,0,0,1.4460978507995605,0,0,0.611519992351532
1.528090514,0,0,1.4460978507995605,0,0,0.6879600286483765
1.529088893,0,0,1.4460978507995605,0,0,1.070159912109375
1.5300933460000001,0,0,1.4460978507995605,0,0,0.5350799560546875
1.5310912060000001,0,0,1.4460978507995605,0,0,0.9937199950218201
1.532090511,0,0,1.5873557329177856,0,0,0.7644000053405762
1.533088316,0,0,1.5873557329177856,0,0,0.6879600286483765
1.534090398,0,0,1.5873557329177856,0,0,0.9172800183296204
1.535087573,0,0,1.5873557329177856,0,0,0.7644000053405762
1.53609123,0,0,1.5873557329177856,0,0,0.8408399820327759
1.5370862939999999,0,0,1.5873557329177856,0,0,0.4586400091648102
1.5380863580000002,0,0,1.5873557329177856,0,0,0.4586400091648102
1.539088607,0,0,1.6112977266311646,0,0,0.4586400091648102
1.5400891159999999,0,0,1.6112977266311646,0,0,0.9172800183296204
1.541091143,0,0,1.6112977266311646,0,0,0.5350799560546875
1.542088985,0,0,1.6112977266311646,0,0,0.8408399820327759
1.5430878080000001,0,0,1.6112977266311646,0,0,0.6879600286483765
1.5440905379999998,0,0,1.6112977266311646,0,0,0.8408399820327759
1.545088399,0,0,1.6112977266311646,0,0,0.9172800183296204
1.546091018,0,0,1.5298948287963867,0,0,0.6879600286483765
1.5470885079999999,0,0,1.5298948287963867,0,0,0.6879600286483765
1.548090795,0,0,1.5298948287963867,0,0,1.070159912109375
1.549086951,0,0,1.5298948287963867,0,0,0.8408399820327759
1.550091978,0,0,1.5298948287963867,0,0,0.8408399820327759
1.551089505,0,0,1.5298948287963867,0,0,0.7644000053405762
1.552089866,0,0,1.5298948287963867,0,0,0.611519992351532
1.55309117,0,0,1.534683346748352,0,0,1.070159912109375
1.5540906049999998,0,0,1.534683346748352,0,0,0.6879600286483765
1.555088595,0,0,1.534683346748352,0,0,0.7644000053405762
1.556091085,0,0,1.534683346748352,0,0,0.9172800183296204
1.557106611,0,0,1.534683346748352,0,0,0.7644000053405762
1.558088083,0,0,1.534683346748352,0,0,0.9172800183296204
1.559089777,0,0,1.534683346748352,0,0,0.9937199950218201
1.560087896,0,0,1.5442601442337036,0,0,0.7644000053405762
1.5610910709999999,0,0,1.5442601442337036,0,0,0.8408399820327759
1.562088895,0,0,1.5442601442337036,0,0,0.611519992351532
1.563087922,0,0,1.5442601442337036,0,0,0.8408399820327759
1.56409056,0,0,1.5442601442337036,0,0,0.9172800183296204
1.5650886609999999,0,0,1.5442601442337036,0,0,0.9172800183296204
1.5660910399999999,0,0,1.5442601442337036,0,0,0.611519992351532
1.56708827,0,0,1.436521053314209,0,0,1.1466000080108643
1.568087705,0,0,1.436521053314209,0,0,0.8408399820327759
1.5690897320000001,0,0,1.436521053314209,0,0,0.9172800183296204
1.5700891110000001,0,0,1.436521053314209,0,0,0.6879600286483765
1.571093082,0,0,1.436521053314209,0,0,0.611519992351532
1.5720895160000001,0,0,1.436521053314209,0,0,0.9937199950218201
1.573091191,0,0,1.436521053314209,0,0,0.7644000053405762
1.5740890520000002,0,0,1.3958195447921753,0,0,0.611519992351532
1.575087653,0,0,1.3958195447921753,0,0,0.9172800183296204
1.5760878649999999,0,0,1.3958195447921753,0,0,0.7644000053405762
1.57709104,0,0,1.3958195447921753,0,0,0.8408399820327759
1.578088771,0,0,1.3958195447921753,0,0,0.9172800183296204
1.579090668,0,0,1.3958195447921753,0,0,0.7644000053405762
1.580090325,0,0,1.3958195447921753,0,0,0.8408399820327759
1.581093315,0,0,1.3000515699386597,0,0,0.7644000053405762
1.582091064,0,0,1.3000515699386597,0,0,0.8408399820327759
1.583088887,0,0,1.3000515699386597,0,0,0.9937199950218201
1.584087674,0,0,1.3000515699386597,0,0,0.6879600286483765
1.5850886260000001,0,0,1.3000515699386597,0,0,0.8408399820327759
1.586097172,0,0,1.3000515699386597,0,0,1.1466000080108643
1.587090662,0,0,1.3000515699386597,0,0,0.6879600286483765
1.58808843,0,0,1.2665326595306396,0,0,0.8408399820327759
1.58908879,0,0,1.2665326595306396,0,0,0.9172800183296204
1.590112076,0,0,1.2665326595306396,0,0,0.8408399820327759
1.5911263249999998,0,0,1.2665326595306396,0,0,0.6879600286483765
1.5921070560000001,0,0,1.2665326595306396,0,0,0.8408399820327759
1.593087935,0,0,1.2665326595306396,0,0,0.611519992351532
1.594087258,0,0,1.2665326595306396,0,0,0.9172800183296204
1.5950873780000001,0,0,1.4173674583435059,0,0,0.3822000026702881
1.59608722,0,0,1.4173674583435059,0,0,0.6879600286483765
1.597090135,0,0,1.4173674583435059,0,0,0.9937199950218201
1.598089885,0,0,1.4173674583435059,0,0,0.8408399820327759
1.599088412,0,0,1.4173674583435059,0,0,1.223039984703064
1.600090828,0,0,1.4173674583435059,0,0,0.611519992351532
1.6010880950000002,0,0,1.4173674583435059,0,0,0.9172800183296204
1.602087215,0,0,1.414973258972168,0,0,0.6879600286483765
1.6030886309999999,0,0,1.414973258972168,0,0,0.9172800183296204
1.604087658,0,0,1.414973258972168,0,0,0.9172800183296204
1.6050899809999999,0,0,1.414973258972168,0,0,1.070159912109375
1.606089378,0,0,1.414973258972168,0,0,0.305759996175766
1.607086979,0,0,1.414973258972168,0,0,0.611519992351532
1.608089321,0,0,1.414973258972168,0,0,1.070159912109375
1.609090996,0,0,1.53707754611969,0,0,0.7644000053405762
1.6100888009999998,0,0,1.53707754611969,0,0,0.7644000053405762
1.61108831,0,0,1.53707754611969,0,0,0.7644000053405762
1.612095762,0,0,1.53707754611969,0,0,0.7644000053405762
1.6130902520000001,0,0,1.53707754611969,0,0,0.611519992351532
1.614087909,0,0,1.53707754611969,0,0,0.611519992351532
1.6150905469999999,0,0,1.53707754611969,0,0,0.8408399820327759
1.616090259,0,0,1.5945383310317993,0,0,0.7644000053405762
1.617088249,0,0,1.5945383310317993,0,0,0.5350799560546875
1.6180910910000001,0,0,1.5945383310317993,0,0,1.070159912109375
1.6190889510000002,0,0,1.5945383310317993,0,0,0.9172800183296204
1.620087812,0,0,1.5945383310317993,0,0,0.8408399820327759
1.6210912830000002,0,0,1.5945383310317993,0,0,0.8408399820327759
1.6220890319999999,0,0,1.5945383310317993,0,0,0.9937199950218201
1.623087819,0,0,1.4460978507995605,0,0,0.6879600286483765
1.6240904010000001,0,0,1.4460978507995605,0,0,0.7644000053405762
1.6250892430000001,0,0,1.4460978507995605,0,0,0.6879600286483765
1.626087825,0,0,1.4460978507995605,0,0,0.7644000053405762
1.627090519,0,0,1.4460978507995605,0,0,1.070159912109375
1.628088268,0,0,1.4460978507995605,0,0,0.611519992351532
1.62908811,0,0,1.4460978507995605,0,0,0.7644000053405762
1.63009073,0,0,1.5538369417190552,0,0,0.8408399820327759
1.63108859,0,0,1.5538369417190552,0,0,0.611519992351532
1.632101024,0,0,1.5538369417190552,0,0,0.8408399820327759
1.633106792,0,0,1.5538369417190552,0,0,0.7644000053405762
1.6340931520000002,0,0,1.5538369417190552,0,0,0.9172800183296204
1.6350875679999999,0,0,1.5538369417190552,0,0,0.6879600286483765
1.636090947,0,0,1.5538369417190552,0,0,0.6879600286483765
1.637087771,0,0,1.4197616577148438,0,0,0.6879600286483765
1.638090464,0,0,1.4197616577148438,0,0,0.7644000053405762
1.6391087130000002,0,0,1.4197616577148438,0,0,0.8408399820327759
1.6400887769999999,0,0,1.4197616577148438,0,0,0.6879600286483765
1.641095693,0,0,1.4197616577148438,0,0,0.8408399820327759
1.6420914789999999,0,0,1.4197616577148438,0,0,0.7644000053405762
1.643095951,0,0,1.3766659498214722,0,0,0.9172800183296204
1.6440917000000002,0,0,1.3766659498214722,0,0,0.4586400091648102
1.645091005,0,0,1.3766659498214722,0,0,0.9172800183296204
1.646089032,0,0,1.3766659498214722,0,0,0.7644000053405762
1.647089207,0,0,1.3766659498214722,0,0,0.5350799560546875
1.6480877710000001,0,0,1.3766659498214722,0,0,0.611519992351532
1.649091168,0,0,1.3766659498214722,0,0,0.6879600286483765
1.65010564,0,0,1.3766659498214722,0,0,0.7644000053405762
1.651091259,0,0,1.3623007535934448,0,0,0.9937199950218201
1.652088083,0,0,1.3623007535934448,0,0,0.7644000053405762
1.653091165,0,0,1.3623007535934448,0,0,0.5350799560546875
1.654088785,0,0,1.3623007535934448,0,0,0.611519992351532
1.65508859,0,0,1.3623007535934448,0,0,0.6879600286483765
1.6560880980000001,0,0,1.3623007535934448,0,0,0.7644000053405762
1.6570912359999999,0,0,1.3623007535934448,0,0,0.7644000053405762
1.658088856,0,0,1.3000515699386597,0,0,0.611519992351532
1.659091383,0,0,1.3000515699386597,0,0,0.9172800183296204
1.660088817,0,0,1.3000515699386597,0,0,0.6879600286483765
1.6610889549999999,0,0,1.3000515699386597,0,0,0.611519992351532
1.662088056,0,0,1.3000515699386597,0,0,0.8408399820327759
1.663090768,0,0,1.3000515699386597,0,0,0.8408399820327759
1.6640885920000001,0,0,1.3000515699386597,0,0,0.8408399820327759
1.665089267,0,0,1.3407529592514038,0,0,0.9172800183296204
1.6660877570000001,0,0,1.3407529592514038,0,0,0.6879600286483765
1.667096691,0,0,1.3407529592514038,0,0,0.5350799560546875
1.668090996,0,0,1.3407529592514038,0,0,0.9172800183296204
1.6690905040000001,0,0,1.3407529592514038,0,0,0.5350799560546875
1.670088254,0,0,1.3407529592514038,0,0,0.8408399820327759
1.671090688,0,0,1.3407529592514038,0,0,0.611519992351532
1.672088493,0,0,1.3239935636520386,0,0,0.8408399820327759
1.673091353,0,0,1.3239935636520386,0,0,1.070159912109375
1.674093473,0,0,1.3239935636520386,0,0,0.7644000053405762
1.6750911290000001,0,0,1.3239935636520386,0,0,0.9172800183296204
1.676088786,0,0,1.3239935636520386,0,0,0.5350799560546875
1.677089702,0,0,1.3239935636520386,0,0,0.9937199950218201
1.6780894320000002,0,0,1.3239935636520386,0,0,0.4586400091648102
1.679088663,0,0,1.3742717504501343,0,0,0.8408399820327759
1.680088838,0,0,1.3742717504501343,0,0,0.7644000053405762
1.681092662,0,0,1.3742717504501343,0,0,0.8408399820327759
1.68209067,0,0,1.3742717504501343,0,0,0.611519992351532
1.683090067,0,0,1.3742717504501343,0,0,1.1466000080108643
1.684088131,0,0,1.3742717504501343,0,0,0.9937199950218201
1.685091307,0,0,1.3742717504501343,0,0,0.6879600286483765
1.686089037,0,0,1.580173134803772,0,0,1.070159912109375
1.687088916,0,0,1.580173134803772,0,0,0.7644000053405762
1.688088054,0,0,1.580173134803772,0,0,0.7644000053405762
1.689091026,0,0,1.580173134803772,0,0,0.7644000053405762
1.690088867,0,0,1.580173134803772,0,0,0.7644000053405762
1.691087672,0,0,1.580173134803772,0,0,0.6879600286483765
1.692091366,0,0,1.580173134803772,0,0,0.9937199950218201
1.693090004,0,0,1.50355863571167,0,0,0.5350799560546875
1.694087994,0,0,1.50355863571167,0,0,0.7644000053405762
1.695090669,0,0,1.50355863571167,0,0,0.6879600286483765
1.696090344,0,0,1.50355863571167,0,0,0.611519992351532
1.697088612,0,0,1.50355863571167,0,0,0.8408399820327759
1.698087824,0,0,1.50355863571167,0,0,0.7644000053405762
1.699213739,0,0,1.50355863571167,0,0,0.9937199950218201
1.7001046930000001,0,0,1.534683346748352,0,0,0.611519992351532
1.7010880529999999,0,0,1.534683346748352,0,0,0.8408399820327759
1.7020872649999998,0,0,1.534683346748352,0,0,0.8408399820327759
1.703087496,0,0,1.534683346748352,0,0,0.8408399820327759
1.704087301,0,0,1.534683346748352,0,0,0.6879600286483765
1.705093272,0,0,1.534683346748352,0,0,1.1466000080108643
1.7060911509999999,0,0,1.6424223184585571,0,0,0.8408399820327759
1.7070889930000002,0,0,1.6424223184585571,0,0,0.9937199950218201
1.708087779,0,0,1.6424223184585571,0,0,0.8408399820327759
1.709091065,0,0,1.6424223184585571,0,0,0.7644000053405762
1.710090481,0,0,1.6424223184585571,0,0,1.1466000080108643
1.711088045,0,0,1.6424223184585571,0,0,0.7644000053405762
1.71209048,0,0,1.6424223184585571,0,0,0.7644000053405762
1.71308897,0,0,1.6424223184585571,0,0,0.7644000053405762
1.714098589,0,0,1.460463047027588,0,0,0.8408399820327759
1.7150908569999999,0,0,1.460463047027588,0,0,0.6879600286483765
1.7160879580000001,0,0,1.460463047027588,0,0,1.2994799613952637
1.717090929,0,0,1.460463047027588,0,0,1.070159912109375
1.718088512,0,0,1.460463047027588,0,0,0.9172800183296204
1.7190876689999999,0,0,1.460463047027588,0,0,0.9172800183296204
1.720090473,0,0,1.460463047027588,0,0,0.6879600286483765
1.721088241,0,0,1.3551181554794312,0,0,0.9172800183296204
1.7220907680000002,0,0,1.3551181554794312,0,0,0.8408399820327759
1.7230898510000001,0,0,1.3551181554794312,0,0,0.7644000053405762
1.724087878,0,0,1.3551181554794312,0,0,0.7644000053405762
1.725091368,0,0,1.3551181554794312,0,0,0.9172800183296204
1.726089172,0,0,1.3551181554794312,0,0,0.611519992351532
1.727088014,0,0,1.3551181554794312,0,0,0.6879600286483765
1.728090634,0,0,1.3766659498214722,0,0,1.070159912109375
1.729092624,0,0,1.3766659498214722,0,0,0.6879600286483765
1.730090465,0,0,1.3766659498214722,0,0,0.8408399820327759
1.731088067,0,0,1.3766659498214722,0,0,0.5350799560546875
1.732087705,0,0,1.3766659498214722,0,0,0.7644000053405762
1.73308788,0,0,1.3766659498214722,0,0,0.8408399820327759
1.734091184,0,0,1.3766659498214722,0,0,0.6879600286483765
1.73508836,0,0,1.278503656387329,0,0,0.6879600286483765
1.736091109,0,0,1.278503656387329,0,0,0.9172800183296204
1.737087858,0,0,1.278503656387329,0,0,0.8408399820327759
1.7380890519999999,0,0,1.278503656387329,0,0,0.9937199950218201
1.7390891160000002,0,0,1.278503656387329,0,0,0.6879600286483765
1.740088828,0,0,1.278503656387329,0,0,1.070159912109375
1.741091188,0,0,1.278503656387329,0,0,0.7644000053405762
1.742089012,0,0,1.3694833517074585,0,0,0.7644000053405762
1.743090761,0,0,1.3694833517074585,0,0,0.8408399820327759
1.74408801,0,0,1.3694833517074585,0,0,0.6879600286483765
1.745091222,0,0,1.3694833517074585,0,0,0.611519992351532
1.746088471,0,0,1.3694833517074585,0,0,0.8408399820327759
1.747090961,0,0,1.3694833517074585,0,0,0.9172800183296204
1.748088007,0,0,1.3694833517074585,0,0,0.9172800183296204
1.749090756,0,0,1.3766659498214722,0,0,0.7644000053405762
1.75008919,0,0,1.3766659498214722,0,0,0.9937199950218201
1.7510907169999999,0,0,1.3766659498214722,0,0,0.8408399820327759
1.752088096,0,0,1.3766659498214722,0,0,0.7644000053405762
1.75309079,0,0,1.3766659498214722,0,0,0.6879600286483765
1.754090021,0,0,1.3766659498214722,0,0,1.070159912109375
1.755087585,0,0,1.3766659498214722,0,0,0.611519992351532
1.756090223,0,0,1.4484920501708984,0,0,0.8408399820327759
1.757088231,0,0,1.4484920501708984,0,0,0.9937199950218201
1.7580879249999999,0,0,1.4484920501708984,0,0,0.9172800183296204
1.759090692,0,0,1.4484920501708984,0,0,0.9172800183296204
1.760087905,0,0,1.4484920501708984,0,0,0.9172800183296204
1.761090876,0,0,1.4484920501708984,0,0,0.9172800183296204
1.762088144,0,0,1.4484920501708984,0,0,0.8408399820327759
1.763087745,0,0,1.5131354331970215,0,0,0.9172800183296204
1.764090661,0,0,1.5131354331970215,0,0,0.6879600286483765
1.765088225,0,0,1.5131354331970215,0,0,0.7644000053405762
1.766090733,0,0,1.5131354331970215,0,0,0.611519992351532
1.767091945,0,0,1.5131354331970215,0,0,0.7644000053405762
1.7680895460000001,0,0,1.5131354331970215,0,0,0.8408399820327759
1.769087629,0,0,1.5131354331970215,0,0,0.4586400091648102
1.770090323,0,0,1.5514427423477173,0,0,0.6879600286483765
1.77109659,0,0,1.5514427423477173,0,0,0.6879600286483765
1.7721813389999999,0,0,1.5514427423477173,0,0,0.7644000053405762
1.773089033,0,0,1.5514427423477173,0,0,0.8408399820327759
1.7740870420000001,0,0,1.5514427423477173,0,0,0.611519992351532
1.775087013,0,0,1.5514427423477173,0,0,0.7644000053405762
1.7760875029999998,0,0,1.5514427423477173,0,0,0.5350799560546875
1.777087012,0,0,1.525106430053711,0,0,0.6879600286483765
1.778093316,0,0,1.525106430053711,0,0,1.070159912109375
1.77908688,0,0,1.525106430053711,0,0,0.7644000053405762
1.780088833,0,0,1.525106430053711,0,0,0.611519992351532
1.781087434,0,0,1.525106430053711,0,0,1.1466000080108643
1.782093943,0,0,1.525106430053711,0,0,0.7644000053405762
1.783090896,0,0,1.525106430053711,0,0,0.6879600286483765
1.784088626,0,0,1.680729627609253,0,0,0.9172800183296204
1.785088931,0,0,1.680729627609253,0,0,0.6879600286483765
1.786087625,0,0,1.680729627609253,0,0,0.9937199950218201
1.787090541,0,0,1.680729627609253,0,0,0.7644000053405762
1.7880877530000001,0,0,1.680729627609253,0,0,0.8408399820327759
1.7890912239999999,0,0,1.680729627609253,0,0,0.4586400091648102
1.790090196,0,0,1.680729627609253,0,0,0.9937199950218201
1.79108763,0,0,1.5275006294250488,0,0,0.5350799560546875
1.7920905459999998,0,0,1.5275006294250488,0,0,0.8408399820327759
1.793088666,0,0,1.5275006294250488,0,0,0.9172800183296204
1.7940881929999999,0,0,1.5275006294250488,0,0,0.6879600286483765
1.795087627,0,0,1.5275006294250488,0,0,0.8408399820327759
1.79609058,0,0,1.5275006294250488,0,0,1.070159912109375
1.7970879960000001,0,0,1.5275006294250488,0,0,0.6879600286483765
1.798092226,0,0,1.316810965538025,0,0,0.5350799560546875
1.7990903459999998,0,0,1.316810965538025,0,0,0.6879600286483765
1.800088688,0,0,1.316810965538025,0,0,0.4586400091648102
1.8010878259999998,0,0,1.316810965538025,0,0,0.5350799560546875
1.80209039,0,0,1.316810965538025,0,0,0.305759996175766
1.803090787,0,0,1.316810965538025,0,0,0.6879600286483765
1.804088685,0,0,1.316810965538025,0,0,0.7644000053405762
1.805089749,0,0,1.4077905416488647,0,0,0.8408399820327759
1.80608785,0,0,1.4077905416488647,0,0,1.070159912109375
1.807087136,0,0,1.4077905416488647,0,0,0.8408399820327759
1.8080871630000002,0,0,1.4077905416488647,0,0,0.9937199950218201
1.809089894,0,0,1.4077905416488647,0,0,0.7644000053405762
1.8100967909999999,0,0,1.4077905416488647,0,0,0.7644000053405762
1.811091411,0,0,1.4077905416488647,0,0,0.611519992351532
1.8120910860000001,0,0,1.3335703611373901,0,0,1.070159912109375
1.813087946,0,0,1.3335703611373901,0,0,0.6879600286483765
1.814094473,0,0,1.3335703611373901,0,0,0.6879600286483765
1.815091148,0,0,1.3335703611373901,0,0,1.070159912109375
1.81608799,0,0,1.3335703611373901,0,0,0.8408399820327759
1.817090795,0,0,1.3335703611373901,0,0,0.8408399820327759
1.818088803,0,0,1.3335703611373901,0,0,0.611519992351532
1.819088386,0,0,1.3623007535934448,0,0,0.7644000053405762
1.820090709,0,0,1.3623007535934448,0,0,0.6879600286483765
1.821091051,0,0,1.3623007535934448,0,0,0.6879600286483765
1.822088911,0,0,1.3623007535934448,0,0,0.8408399820327759
1.823087586,0,0,1.3623007535934448,0,0,0.6879600286483765
1.824090817,0,0,1.3623007535934448,0,0,0.5350799560546875
1.8250900479999999,0,0,1.3623007535934448,0,0,0.7644000053405762
1.826087871,0,0,1.3527239561080933,0,0,0.9937199950218201
1.827090676,0,0,1.3527239561080933,0,0,0.6879600286483765
1.828088462,0,0,1.3527239561080933,0,0,0.9937199950218201
1.829091915,0,0,1.3527239561080933,0,0,0.7644000053405762
1.830089868,0,0,1.3527239561080933,0,0,1.070159912109375
1.83108771,0,0,1.3527239561080933,0,0,0.8408399820327759
1.832090718,0,0,1.3527239561080933,0,0,0.611519992351532
1.833088504,0,0,1.5179238319396973,0,0,0.8408399820327759
1.834088365,0,0,1.5179238319396973,0,0,0.9937199950218201
1.835087595,0,0,1.5179238319396973,0,0,0.4586400091648102
1.836090437,0,0,1.5179238319396973,0,0,0.8408399820327759
1.837096131,0,0,1.5179238319396973,0,0,0.8408399820327759
1.838090621,0,0,1.5179238319396973,0,0,0.9937199950218201
1.839088314,0,0,1.5179238319396973,0,0,1.1466000080108643
1.840620651,0,0,1.6112977266311646,0,0,1.223039984703064
1.8411028310000002,0,0,1.6112977266311646,0,0,0.6879600286483765
1.842125469,0,0,1.6112977266311646,0,0,0.6879600286483765
1.8430899410000001,0,0,1.6112977266311646,0,0,0.5350799560546875
1.8440861530000001,0,0,1.6112977266311646,0,0,0.9172800183296204
1.845086217,0,0,1.6112977266311646,0,0,0.6879600286483765
1.8460860399999999,0,0,1.5921441316604614,0,0,0.3822000026702881
1.847086049,0,0,1.5921441316604614,0,0,0.8408399820327759
1.84808578,0,0,1.5921441316604614,0,0,0.8408399820327759
1.849085973,0,0,1.5921441316604614,0,0,0.611519992351532
1.8500857960000001,0,0,1.5921441316604614,0,0,1.070159912109375
1.851085879,0,0,1.5921441316604614,0,0,0.8408399820327759
1.85208585,0,0,1.5921441316604614,0,0,0.5350799560546875
1.8530954880000001,0,0,1.5921441316604614,0,0,1.223039984703064
1.854088164,0,0,1.5514427423477173,0,0,0.7644000053405762
1.855086913,0,0,1.5514427423477173,0,0,0.611519992351532
1.8560865880000001,0,0,1.5514427423477173,0,0,0.9172800183296204
1.8570863,0,0,1.5514427423477173,0,0,0.9172800183296204
1.858086272,0,0,1.5514427423477173,0,0,0.5350799560546875
1.859086225,0,0,1.5514427423477173,0,0,0.9172800183296204
1.860091418,0,0,1.5514427423477173,0,0,0.8408399820327759
1.861086667,0,0,1.558625340461731,0,0,0.8408399820327759
1.8620863239999998,0,0,1.558625340461731,0,0,0.6879600286483765
1.8630861840000001,0,0,1.558625340461731,0,0,0.6879600286483765
1.864086193,0,0,1.558625340461731,0,0,0.3822000026702881
1.8650859789999998,0,0,1.558625340461731,0,0,0.7644000053405762
1.866086228,0,0,1.558625340461731,0,0,0.6879600286483765
1.8670860519999999,0,0,1.558625340461731,0,0,0.5350799560546875
1.86808606,0,0,1.3982137441635132,0,0,0.611519992351532
1.86908642,0,0,1.3982137441635132,0,0,0.7644000053405762
1.870086262,0,0,1.3982137441635132,0,0,0.6879600286483765
1.871085919,0,0,1.3982137441635132,0,0,1.1466000080108643
1.872086149,0,0,1.3982137441635132,0,0,0.9172800183296204
1.873086288,0,0,1.3982137441635132,0,0,0.7644000053405762
1.874086722,0,0,1.3982137441635132,0,0,0.9937199950218201
1.875086249,0,0,1.290474772453308,0,0,0.8408399820327759
1.876086054,0,0,1.290474772453308,0,0,0.6879600286483765
1.877086099,0,0,1.290474772453308,0,0,0.9937199950218201
1.8780861450000002,0,0,1.290474772453308,0,0,0.9172800183296204
1.879086635,0,0,1.290474772453308,0,0,0.9172800183296204
1.880086995,0,0,1.290474772453308,0,0,0.8408399820327759
1.881086152,0,0,1.290474772453308,0,0,0.7644000053405762
1.882086216,0,0,1.3886369466781616,0,0,0.7644000053405762
1.8830860390000002,0,0,1.3886369466781616,0,0,0.6879600286483765
1.8840860099999999,0,0,1.3886369466781616,0,0,0.7644000053405762
1.88508626,0,0,1.3886369466781616,0,0,0.6879600286483765
1.886086212,0,0,1.3886369466781616,0,0,0.5350799560546875
1.887086091,0,0,1.3886369466781616,0,0,0.7644000053405762
1.888086118,0,0,1.3886369466781616,0,0,0.6879600286483765
1.8890861270000001,0,0,1.2497732639312744,0,0,0.7644000053405762
1.8900976539999998,0,0,1.2497732639312744,0,0,0.7644000053405762
1.891093107,0,0,1.2497732639312744,0,0,0.9172800183296204
1.8920869850000002,0,0,1.2497732639312744,0,0,0.9172800183296204
1.8930862899999998,0,0,1.2497732639312744,0,0,1.1466000080108643
1.8940860019999999,0,0,1.2497732639312744,0,0,0.7644000053405762
1.89508627,0,0,1.2497732639312744,0,0,0.7644000053405762
1.896086279,0,0,1.2761094570159912,0,0,0.9937199950218201
1.89708625,0,0,1.2761094570159912,0,0,0.6879600286483765
1.898086147,0,0,1.2761094570159912,0,0,0.8408399820327759
1.8990860999999999,0,0,1.2761094570159912,0,0,0.6879600286483765
1.900094294,0,0,1.2761094570159912,0,0,0.4586400091648102
1.901087914,0,0,1.2761094570159912,0,0,0.9172800183296204
1.902090255,0,0,1.2761094570159912,0,0,0.8408399820327759
1.903088745,0,0,1.3431471586227417,0,0,0.7644000053405762
1.904086828,0,0,1.3431471586227417,0,0,0.9172800183296204
1.905086818,0,0,1.3431471586227417,0,0,0.9937199950218201
1.906095863,0,0,1.3431471586227417,0,0,0.9937199950218201
1.9070865750000001,0,0,1.4652514457702637,0,0,0.9937199950218201
1.908086306,0,0,1.4652514457702637,0,0,0.7644000053405762
1.9090863329999999,0,0,1.4652514457702637,0,0,0.8408399820327759
1.910086175,0,0,1.4652514457702637,0,0,0.6879600286483765
1.911086091,0,0,1.4652514457702637,0,0,0.9172800183296204
1.912086284,0,0,1.4652514457702637,0,0,0.8408399820327759
1.9130861449999998,0,0,1.4652514457702637,0,0,0.7644000053405762
1.914085727,0,0,1.558625340461731,0,0,0.7644000053405762
1.915086069,0,0,1.558625340461731,0,0,1.1466000080108643
1.9160862810000001,0,0,1.558625340461731,0,0,0.6879600286483765
1.9170861970000002,0,0,1.558625340461731,0,0,0.8408399820327759
1.9180861500000002,0,0,1.558625340461731,0,0,0.5350799560546875
1.91908627,0,0,1.558625340461731,0,0,0.5350799560546875
1.920086167,0,0,1.558625340461731,0,0,0.9172800183296204
1.92108612,0,0,1.558625340461731,0,0,1.1466000080108643
1.9220904619999999,0,0,1.5490485429763794,0,0,0.611519992351532
1.9230867109999998,0,0,1.5490485429763794,0,0,0.9172800183296204
1.924086164,0,0,1.5490485429763794,0,0,0.8408399820327759
1.925086135,0,0,1.5490485429763794,0,0,0.9937199950218201
1.926086181,0,0,1.50355863571167,0,0,1.1466000080108643
1.9270860779999999,0,0,1.50355863571167,0,0,0.9172800183296204
1.928086161,0,0,1.50355863571167,0,0,0.9172800183296204
1.9290863169999999,0,0,1.50355863571167,0,0,1.070159912109375
1.930088085,0,0,1.50355863571167,0,0,0.6879600286483765
1.9310863710000001,0,0,1.5514427423477173,0,0,0.611519992351532
1.932086139,0,0,1.5514427423477173,0,0,0.8408399820327759
1.9330862770000001,0,0,1.5514427423477173,0,0,0.6879600286483765
1.934086174,0,0,1.5514427423477173,0,0,0.9172800183296204
1.9350863870000001,0,0,1.5514427423477173,0,0,1.070159912109375
1.9360859320000001,0,0,1.5514427423477173,0,0,0.8408399820327759
1.9370858850000001,0,0,1.5514427423477173,0,0,0.8408399820327759
1.9380864309999999,0,0,1.460463047027588,0,0,0.6879600286483765
1.939086476,0,0,1.460463047027588,0,0,0.9172800183296204
1.940086207,0,0,1.460463047027588,0,0,0.7644000053405762
1.941086289,0,0,1.460463047027588,0,0,0.6879600286483765
1.942086261,0,0,1.460463047027588,0,0,0.7644000053405762
1.943086195,0,0,1.460463047027588,0,0,0.6879600286483765
1.944086259,0,0,1.460463047027588,0,0,0.5350799560546875
1.945086008,0,0,1.414973258972168,0,0,0.611519992351532
1.9460860169999998,0,0,1.414973258972168,0,0,0.8408399820327759
1.947086192,0,0,1.414973258972168,0,0,0.7644000053405762
1.9480863670000002,0,0,1.414973258972168,0,0,0.9172800183296204
1.949086061,0,0,1.414973258972168,0,0,0.6879600286483765
1.950086199,0,0,1.414973258972168,0,0,0.9172800183296204
1.9510863,0,0,1.414973258972168,0,0,0.9172800183296204
1.952085901,0,0,1.403002142906189,0,0,0.6879600286483765
1.953088835,0,0,1.403002142906189,0,0,1.070159912109375
1.954086325,0,0,1.403002142906189,0,0,0.8408399820327759
1.9550860559999999,0,0,1.403002142906189,0,0,0.5350799560546875
1.956086268,0,0,1.403002142906189,0,0,0.9172800183296204
1.95708611,0,0,1.403002142906189,0,0,0.8408399820327759
1.958085989,0,0,1.403002142906189,0,0,1.1466000080108643
1.959086164,0,0,1.2545616626739502,0,0,0.9172800183296204
1.9600862650000002,0,0,1.2545616626739502,0,0,0.611519992351532
1.961086144,0,0,1.2545616626739502,0,0,0.9937199950218201
1.962086115,0,0,1.2545616626739502,0,0,0.9172800183296204
1.963086198,0,0,1.2545616626739502,0,0,0.611519992351532
1.964086151,0,0,1.2545616626739502,0,0,0.7644000053405762
1.965086474,0,0,1.4245500564575195,0,0,0.9172800183296204
1.966086168,0,0,1.4245500564575195,0,0,0.6879600286483765
1.9670861579999999,0,0,1.4245500564575195,0,0,0.7644000053405762
1.9680862399999999,0,0,1.4245500564575195,0,0,0.9172800183296204
1.969086156,0,0,1.4245500564575195,0,0,0.8408399820327759
1.970092757,0,0,1.4245500564575195,0,0,0.4586400091648102
1.971086951,0,0,1.4245500564575195,0,0,0.611519992351532
1.972086237,0,0,1.403002142906189,0,0,0.8408399820327759
1.973086245,0,0,1.403002142906189,0,0,0.6879600286483765
1.974086217,0,0,1.403002142906189,0,0,0.3822000026702881
1.975086096,0,0,1.403002142906189,0,0,0.8408399820327759
1.9760863450000001,0,0,1.403002142906189,0,0,0.9937199950218201
1.977086261,0,0,1.403002142906189,0,0,0.8408399820327759
1.9780864729999998,0,0,1.403002142906189,0,0,1.1466000080108643
1.97908587,0,0,1.4389152526855469,0,0,0.9937199950218201
1.980086083,0,0,1.4389152526855469,0,0,1.1466000080108643
1.9810861279999998,0,0,1.4389152526855469,0,0,1.1466000080108643
1.982084896,0,0,1.4389152526855469,0,0,0.7644000053405762
1.9830848300000001,0,0,1.4389152526855469,0,0,0.7644000053405762
1.984087376,0,0,1.4389152526855469,0,0,0.7644000053405762
1.985087643,0,0,1.4389152526855469,0,0,0.611519992351532
1.986086189,0,0,1.4628572463989258,0,0,0.8408399820327759
1.987086216,0,0,1.4628572463989258,0,0,0.9172800183296204
1.988086224,0,0,1.4628572463989258,0,0,0.9172800183296204
1.989086251,0,0,1.4628572463989258,0,0,0.7644000053405762
1.990086112,0,0,1.4628572463989258,0,0,0.9172800183296204
1.99108625,0,0,1.4628572463989258,0,0,0.8408399820327759
1.99208611,0,0,1.4628572463989258,0,0,0.6879600286483765
1.993085989,0,0,1.4867992401123047,0,0,0.611519992351532
1.9940864230000002,0,0,1.4867992401123047,0,0,0.9937199950218201
1.99508621,0,0,1.4867992401123047,0,0,0.611519992351532
1.9960863660000001,0,0,1.4867992401123047,0,0,0.7644000053405762
1.99708593,0,0,1.4867992401123047,0,0,0.6879600286483765
1.998084939,0,0,1.4867992401123047,0,0,0.5350799560546875
1.999084892,0,0,1.4867992401123047,0,0,0.9937199950218201
2.00008503,0,0,1.482010841369629,0,0,0.9937199950218201
2.001907882,0,0,1.482010841369629,0,0,0.9937199950218201
2.002087195,0,0,1.482010841369629,0,0,0.6879600286483765
2.003086314,0,0,1.482010841369629,0,0,0.9172800183296204
2.004086008,0,0,1.482010841369629,0,0,0.7644000053405762
2.005086591,0,0,1.482010841369629,0,0,0.6879600286483765
2.006086117,0,0,1.482010841369629,0,0,0.8408399820327759
2.007085867,0,0,1.5514427423477173,0,0,0.611519992351532
2.008086171,0,0,1.5514427423477173,0,0,1.070159912109375
2.009086291,0,0,1.5514427423477173,0,0,0.305759996175766
2.010085874,0,0,1.5514427423477173,0,0,0.611519992351532
2.01108603,0,0,1.5514427423477173,0,0,1.070159912109375
2.012085946,0,0,1.5514427423477173,0,0,0.9172800183296204
2.013085973,0,0,1.5514427423477173,0,0,1.070159912109375
2.014086019,0,0,1.460463047027588,0,0,0.7644000053405762
2.01508886,0,0,1.460463047027588,0,0,0.7644000053405762
2.016086128,0,0,1.460463047027588,0,0,0.9172800183296204
2.017085988,0,0,1.460463047027588,0,0,0.611519992351532
2.018086071,0,0,1.460463047027588,0,0,0.611519992351532
2.019085894,0,0,1.460463047027588,0,0,0.7644000053405762
2.020085903,0,0,1.460463047027588,0,0,0.5350799560546875
2.021085948,0,0,1.3479355573654175,0,0,0.9172800183296204
2.02208566,0,0,1.3479355573654175,0,0,0.611519992351532
2.02308578,0,0,1.3479355573654175,0,0,0.9172800183296204
2.024086085,0,0,1.3479355573654175,0,0,0.9937199950218201
2.025086001,0,0,1.3479355573654175,0,0,0.7644000053405762
2.026085954,0,0,1.3479355573654175,0,0,0.9937199950218201
2.027085869,0,0,1.3479355573654175,0,0,0.9172800183296204
2.028086026,0,0,1.3479355573654175,0,0,0.7644000053405762
2.02908596,0,0,1.41257905960083,0,0,0.8408399820327759
2.030085876,0,0,1.41257905960083,0,0,1.223039984703064
2.031085903,0,0,1.41257905960083,0,0,0.9172800183296204
2.032085893,0,0,1.41257905960083,0,0,0.6879600286483765
2.033086198,0,0,1.41257905960083,0,0,0.8408399820327759
2.034091929,0,0,1.41257905960083,0,0,0.6879600286483765
2.035086233,0,0,1.41257905960083,0,0,1.1466000080108643
2.036086168,0,0,1.3192051649093628,0,0,0.8408399820327759
2.037086121,0,0,1.3192051649093628,0,0,0.9172800183296204
2.038085907,0,0,1.3192051649093628,0,0,0.9172800183296204
2.03908599,0,0,1.3192051649093628,0,0,0.6879600286483765
2.040086035,0,0,1.3192051649093628,0,0,0.9172800183296204
2.041086081,0,0,1.3192051649093628,0,0,0.6879600286483765
2.0420857,0,0,1.3192051649093628,0,0,0.7644000053405762
2.043085783,0,0,1.37906014919281,0,0,0.5350799560546875
2.044085569,0,0,1.37906014919281,0,0,1.070159912109375
2.045085818,0,0,1.37906014919281,0,0,0.5350799560546875
2.046088049,0,0,1.37906014919281,0,0,0.9172800183296204
2.047086391,0,0,1.37906014919281,0,0,0.7644000053405762
2.04808601,0,0,1.37906014919281,0,0,0.611519992351532
2.04919161,0,0,1.37906014919281,0,0,0.9172800183296204
2.050089916,0,0,1.4389152526855469,0,0,0.6879600286483765
2.051086313,0,0,1.4389152526855469,0,0,0.9937199950218201
2.052086359,0,0,1.4389152526855469,0,0,0.8408399820327759
2.053085793,0,0,1.4389152526855469,0,0,0.5350799560546875
2.054086042,0,0,1.4389152526855469,0,0,0.9172800183296204
2.055086107,0,0,1.4389152526855469,0,0,0.8408399820327759
2.056085856,0,0,1.4389152526855469,0,0,0.9937199950218201
2.057086123,0,0,1.5394717454910278,0,0,1.1466000080108643
2.05808591,0,0,1.5394717454910278,0,0,0.6879600286483765
2.059086029,0,0,1.5394717454910278,0,0,0.7644000053405762
2.06008589,0,0,1.5394717454910278,0,0,0.7644000053405762
2.061086139,0,0,1.5394717454910278,0,0,0.6879600286483765
2.062085888,0,0,1.5394717454910278,0,0,0.611519992351532
2.063085693,0,0,1.5394717454910278,0,0,0.8408399820327759
2.064086016,0,0,1.6089035272598267,0,0,0.6879600286483765
