Time,AccelX1,AccelY1,AccelZ1,AccelX2,AccelY2,AccelZ2
0.00042859,0,0,1.3623007535934448,0,0,0.611519992351532
0.0013029,0,0,1.4844050407409668,0,0,0.9172800183296204
0.001681176,0,0,1.4844050407409668,0,0,0.8408399820327759
0.002214821,0,0,1.4221558570861816,0,0,0.8408399820327759
0.002523023,0,0,1.4221558570861816,0,0,0.9937199950218201
0.002902298,0,0,1.4221558570861816,0,0,0.6879600286483765
0.003275852,0,0,1.4460978507995605,0,0,9.096360206604004
0.003651609,0,0,1.4460978507995605,0,0,0.7644000053405762
0.00402807,0,0,1.45806884765625,0,0,0.7644000053405762
0.004407123,0,0,1.45806884765625,0,0,0.5350799560546875
0.004783325,0,0,1.45806884765625,0,0,1.070159912109375
0.005162008,0,0,1.3287819623947144,0,0,0.4586400091648102
0.005537932,0,0,1.3287819623947144,0,0,0.152879998087883
0.005913929,0,0,1.3287819623947144,0,0,0.9172800183296204
0.006297298,0,0,1.316810965538025,0,0,0.7644000053405762
0.006677184,0,0,1.316810965538025,0,0,0.4586400091648102
0.00787114,0,0,1.278503656387329,0,0,0.6879600286483765
0.008259842,0,0,1.2306196689605713,0,0,0.7644000053405762
0.008635562,0,0,1.2306196689605713,0,0,1.1466000080108643
0.010758087,0,0,1.3215993642807007,0,0,0.6879600286483765
0.01115614,0,0,1.4197616577148438,0,0,0.8408399820327759
0.011540879,0,0,1.4197616577148438,0,0,0.7644000053405762
0.011925099,0,0,1.4197616577148438,0,0,0.9937199950218201
0.012306245,0,0,1.5298948287963867,0,0,0
0.012688835,0,0,1.5298948287963867,0,0,0.9172800183296204
0.013069722,0,0,1.4676456451416016,0,0,0.5350799560546875
0.013450942,0,0,1.4676456451416016,0,0,0.2293200045824051
0.01383631,0,0,1.4676456451416016,0,0,0.7644000053405762
0.014219271,0,0,1.4293384552001953,0,0,0.8408399820327759
0.01459562,0,0,1.4293384552001953,0,0,0.611519992351532
0.014973285,0,0,1.5610195398330688,0,0,0.7644000053405762
0.015396801,0,0,1.5610195398330688,0,0,0.611519992351532
0.015766929,0,0,1.5610195398330688,0,0,0.9172800183296204
0.016168074,0,0,1.403002142906189,0,0,0.4586400091648102
0.016520424,0,0,1.403002142906189,0,0,1.223039984703064
0.016898274,0,0,1.403002142906189,0,0,0.9172800183296204
0.017273401,0,0,1.3742717504501343,0,0,0.6879600286483765
0.017649177,0,0,1.3742717504501343,0,0,0.7644000053405762
0.018048971,0,0,1.3646949529647827,0,0,0.9937199950218201
0.018411821,0,0,1.3646949529647827,0,0,1.070159912109375
0.018795226,0,0,1.3646949529647827,0,0,9.631440162658691
0.019176539,0,0,1.2282254695892334,0,0,0.8408399820327759
0.019557055,0,0,1.2282254695892334,0,0,0.9172800183296204
0.019951775,0,0,1.3048399686813354,0,0,0.9172800183296204
0.020344514,0,0,1.3048399686813354,0,0,0.7644000053405762
0.020732141,0,0,1.3048399686813354,0,0,0.0764399990439415
0.021115324,0,0,1.314416766166687,0,0,0
0.021498211,0,0,1.314416766166687,0,0,0.5350799560546875
0.021886357,0,0,1.314416766166687,0,0,0.5350799560546875
0.022277632,0,0,1.4724340438842773,0,0,0.3822000026702881
0.022655426,0,0,1.4724340438842773,0,0,1.070159912109375
0.023036998,0,0,1.5107412338256836,0,0,0.2293200045824051
0.023417959,0,0,1.5107412338256836,0,0,0.8408399820327759
0.023799068,0,0,1.5107412338256836,0,0,0.8408399820327759
0.024179714,0,0,1.4077905416488647,0,0,0.611519992351532
0.024562749,0,0,1.4077905416488647,0,0,0.9172800183296204
0.024943839,0,0,1.403002142906189,0,0,0.4586400091648102
0.025328985,0,0,1.403002142906189,0,0,1.2994799613952637
0.02571002,0,0,1.403002142906189,0,0,0.7644000053405762
0.026096536,0,0,1.3934253454208374,0,0,0.9937199950218201
0.026478256,0,0,1.3934253454208374,0,0,1.070159912109375
0.026859161,0,0,1.3934253454208374,0,0,0.3822000026702881
0.027256807,0,0,1.314416766166687,0,0,-8.714159965515137
0.027631157,0,0,1.314416766166687,0,0,0.611519992351532
0.028011618,0,0,1.3024457693099976,0,0,0.8408399820327759
0.028428152,0,0,1.3024457693099976,0,0,0.9937199950218201
0.028777484,0,0,1.3024457693099976,0,0,1.1466000080108643
0.02915563,0,0,1.2832920551300049,0,0,0.5350799560546875
0.029539257,0,0,1.2832920551300049,0,0,1.070159912109375
0.029918737,0,0,1.2832920551300049,0,0,0.611519992351532
0.030305086,0,0,1.3024457693099976,0,0,0.6879600286483765
0.030686325,0,0,1.3024457693099976,0,0,0.7644000053405762
0.031067174,0,0,1.3024457693099976,0,0,0.9172800183296204
0.031449283,0,0,1.3024457693099976,0,0,0.4586400091648102
0.031831244,0,0,1.3024457693099976,0,0,0.8408399820327759
0.032211909,0,0,1.314416766166687,0,0,0.7644000053405762
0.032594443,0,0,1.314416766166687,0,0,0.9172800183296204
0.032975812,0,0,1.3982137441635132,0,0,0.7644000053405762
0.033356884,0,0,1.3982137441635132,0,0,0.3822000026702881
0.033740085,0,0,1.3982137441635132,0,0,1.223039984703064
0.034122305,0,0,1.4484920501708984,0,0,0.9937199950218201
0.034502433,0,0,1.4484920501708984,0,0,1.070159912109375
0.03488343,0,0,1.4484920501708984,0,0,0.8408399820327759
0.035264947,0,0,1.4293384552001953,0,0,0.7644000053405762
0.035646982,0,0,1.4293384552001953,0,0,0
0.036027776,0,0,1.5155296325683594,0,0,1.375920057296753
0.036408477,0,0,1.5155296325683594,0,0,0.611519992351532
0.036791123,0,0,1.5155296325683594,0,0,0.9172800183296204
0.037172028,0,0,1.4389152526855469,0,0,0.6879600286483765
0.037553841,0,0,1.4389152526855469,0,0,0.4586400091648102
0.037938802,0,0,1.3551181554794312,0,0,0.9937199950218201
0.0383203,0,0,1.3551181554794312,0,0,0.7644000053405762
0.03870126,0,0,1.3551181554794312,0,0,0.611519992351532
0.039092166,0,0,1.316810965538025,0,0,0.2293200045824051
0.039467793,0,0,1.316810965538025,0,0,1.070159912109375
0.039849939,0,0,1.316810965538025,0,0,1.1466000080108643
0.040231344,0,0,1.2066776752471924,0,0,1.9109998941421509
0.040612749,0,0,1.2066776752471924,0,0,0.611519992351532
0.040994692,0,0,1.216254472732544,0,0,0.7644000053405762
0.041375986,0,0,1.216254472732544,0,0,0.9937199950218201
0.041756336,0,0,1.216254472732544,0,0,0.6879600286483765
0.042143426,0,0,1.2617442607879639,0,0,1.452359914779663
0.042523498,0,0,1.2617442607879639,0,0,1.2994799613952637
0.042905736,0,0,1.2617442607879639,0,0,1.1466000080108643
0.043286679,0,0,1.3048399686813354,0,0,0.2293200045824051
0.043667232,0,0,1.3048399686813354,0,0,0.611519992351532
0.044049508,0,0,1.4221558570861816,0,0,0.3822000026702881
0.044430691,0,0,1.4221558570861816,0,0,1.1466000080108643
0.044812522,0,0,1.4221558570861816,0,0,0.8408399820327759
0.045194223,0,0,1.4293384552001953,0,0,0.9937199950218201
0.045574221,0,0,1.4293384552001953,0,0,0.7644000053405762
0.045955478,0,0,1.403002142906189,0,0,0.2293200045824051
0.046340365,0,0,1.403002142906189,0,0,0.4586400091648102
0.046720455,0,0,1.403002142906189,0,0,1.1466000080108643
0.047103231,0,0,1.479616641998291,0,0,0.611519992351532
0.047484006,0,0,1.479616641998291,0,0,0.9172800183296204
0.047865282,0,0,1.479616641998291,0,0,0.9172800183296204
0.048246854,0,0,1.4197616577148438,0,0,0.7644000053405762
0.04862813,0,0,1.4197616577148438,0,0,1.2994799613952637
0.04900859,0,0,1.278503656387329,0,0,1.758120059967041
0.049390866,0,0,1.278503656387329,0,0,0.7644000053405762
0.049770771,0,0,1.278503656387329,0,0,0.6879600286483765
0.050157121,0,0,1.3239935636520386,0,0,0.7644000053405762
0.050540693,0,0,1.3239935636520386,0,0,1.070159912109375
0.050929635,0,0,1.2665326595306396,0,0,0.305759996175766
0.051306448,0,0,1.2665326595306396,0,0,0.9172800183296204
0.051688519,0,0,1.2665326595306396,0,0,0.9172800183296204
0.05208811,0,0,1.335964560508728,0,0,0.9172800183296204
0.052451034,0,0,1.335964560508728,0,0,0.9172800183296204
0.052853013,0,0,1.335964560508728,0,0,0.9172800183296204
0.05321364,0,0,1.359906554222107,0,0,1.5288000106811523
0.05359486,0,0,1.359906554222107,0,0,0.7644000053405762
0.053973951,0,0,1.335964560508728,0,0,0.7644000053405762
0.054359837,0,0,1.335964560508728,0,0,0.305759996175766
0.054741039,0,0,1.335964560508728,0,0,0.305759996175766
0.055122426,0,0,1.5322890281677246,0,0,0.7644000053405762
0.055505109,0,0,1.5322890281677246,0,0,0.8408399820327759
0.055885421,0,0,1.5322890281677246,0,0,0.611519992351532
0.056266456,0,0,1.5131354331970215,0,0,0.6879600286483765
0.056648213,0,0,1.5131354331970215,0,0,0.6879600286483765
0.057029341,0,0,1.4628572463989258,0,0,0.9172800183296204
0.057409987,0,0,1.4628572463989258,0,0,1.2994799613952637
0.057792336,0,0,1.4628572463989258,0,0,0.7644000053405762
0.058175649,0,0,1.4867992401123047,0,0,0.7644000053405762
0.058556943,0,0,1.4867992401123047,0,0,1.070159912109375
0.058940478,0,0,1.4484920501708984,0,0,0.611519992351532
0.05932105,0,0,1.4484920501708984,0,0,0.2293200045824051
0.059703714,0,0,1.4484920501708984,0,0,0.5350799560546875
0.060084064,0,0,1.3000515699386597,0,0,0.9172800183296204
0.06046458,0,0,1.3000515699386597,0,0,0.6879600286483765
0.0608473,0,0,1.3000515699386597,0,0,0.9172800183296204
0.061228465,0,0,1.2521674633026123,0,0,0.4586400091648102
0.061609018,0,0,1.2521674633026123,0,0,1.2994799613952637
0.061991664,0,0,1.2210428714752197,0,0,1.1466000080108643
0.062372903,0,0,1.2210428714752197,0,0,0.7644000053405762
0.062763623,0,0,1.2210428714752197,0,0,0.9172800183296204
0.063141639,0,0,1.2689268589019775,0,0,0.3822000026702881
0.063521804,0,0,1.2689268589019775,0,0,1.1466000080108643
0.063904246,0,0,1.2473790645599365,0,0,0
0.064284929,0,0,1.2473790645599365,0,0,0.4586400091648102
0.064665834,0,0,1.2473790645599365,0,0,0.611519992351532
0.065048684,0,0,1.3096283674240112,0,0,0.9937199950218201
0.065429478,0,0,1.3096283674240112,0,0,0.7644000053405762
0.065809846,0,0,1.3096283674240112,0,0,0.3822000026702881
0.066196492,0,0,1.41257905960083,0,0,1.2994799613952637
0.06657699,0,0,1.41257905960083,0,0,0.7644000053405762
0.066957858,0,0,1.3958195447921753,0,0,0.9172800183296204
0.067340448,0,0,1.3958195447921753,0,0,0.5350799560546875
0.067720909,0,0,1.3958195447921753,0,0,0.611519992351532
0.068104037,0,0,1.3958195447921753,0,0,0.611519992351532
0.068484442,0,0,1.3958195447921753,0,0,0.611519992351532
0.068865458,0,0,1.3958195447921753,0,0,0.611519992351532
0.069247919,0,0,1.5514427423477173,0,0,0.8408399820327759
0.069629139,0,0,1.5514427423477173,0,0,0.611519992351532
0.070048748,0,0,1.4867992401123047,0,0,0.8408399820327759
0.070412394,0,0,1.4867992401123047,0,0,9.631440162658691
0.070797947,0,0,1.4867992401123047,0,0,0.8408399820327759
0.071181445,0,0,1.2952631711959839,0,0,0.6879600286483765
0.071562609,0,0,1.2952631711959839,0,0,0.8408399820327759
0.071942829,0,0,1.290474772453308,0,0,1.1466000080108643
0.072325031,0,0,1.290474772453308,0,0,1.2994799613952637
0.072705751,0,0,1.290474772453308,0,0,0.7644000053405762
0.073087045,0,0,1.2330138683319092,0,0,0.611519992351532
0.073581876,0,0,1.2330138683319092,0,0,0.611519992351532
0.073853578,0,0,1.2330138683319092,0,0,0.3822000026702881
0.074237668,0,0,1.292868971824646,0,0,1.070159912109375
0.074633814,0,0,1.292868971824646,0,0,0.6879600286483765
0.07500596,0,0,1.2689268589019775,0,0,0.9937199950218201
0.075388421,0,0,1.2689268589019775,0,0,0.8408399820327759
0.075769474,0,0,1.2689268589019775,0,0,0.5350799560546875
0.076150028,0,0,1.5083470344543457,0,0,0.611519992351532
0.076532025,0,0,1.5083470344543457,0,0,0.3822000026702881
0.076905783,0,0,1.5083470344543457,0,0,1.1466000080108643
0.077117189,0,0,1.479616641998291,0,0,0.8408399820327759
0.077390169,0,0,1.479616641998291,0,0,0.8408399820327759
0.077664741,0,0,1.479616641998291,0,0,0.8408399820327759
0.077938166,0,0,1.400607943534851,0,0,0.6879600286483765
0.078213164,0,0,1.400607943534851,0,0,0.5350799560546875
0.078484977,0,0,1.400607943534851,0,0,0.5350799560546875
0.078759216,0,0,1.400607943534851,0,0,0.7644000053405762
0.079032993,0,0,1.4221558570861816,0,0,0.9172800183296204
0.079306121,0,0,1.4221558570861816,0,0,0.7644000053405762
0.079580527,0,0,1.4221558570861816,0,0,0.6879600286483765
0.079853525,0,0,1.4221558570861816,0,0,0.6879600286483765
0.080127079,0,0,1.460463047027588,0,0,0.6879600286483765
0.080400522,0,0,1.460463047027588,0,0,1.1466000080108643
0.080674557,0,0,1.460463047027588,0,0,0.5350799560546875
0.080967556,0,0,1.237802267074585,0,0,0.8408399820327759
0.081237036,0,0,1.237802267074585,0,0,0.4586400091648102
0.08151396,0,0,1.237802267074585,0,0,0.9172800183296204
0.081788792,0,0,1.237802267074585,0,0,0.5350799560546875
0.082064105,0,0,1.1851298809051514,0,0,0.5350799560546875
0.082337752,0,0,1.1851298809051514,0,0,0.6879600286483765
0.082610343,0,0,1.1851298809051514,0,0,0.9172800183296204
0.082885008,0,0,1.2880805730819702,0,0,0.9937199950218201
0.083158451,0,0,1.2880805730819702,0,0,0.9937199950218201
0.083431486,0,0,1.2880805730819702,0,0,0.6879600286483765
0.086247081,0,0,1.2234370708465576,0,0,1.070159912109375
0.086512505,0,0,1.2234370708465576,0,0,0.5350799560546875
0.086792745,0,0,1.2234370708465576,0,0,0.6879600286483765
0.08707528,0,0,1.3910311460494995,0,0,0.9937199950218201
0.087356149,0,0,1.3910311460494995,0,0,0.9937199950218201
0.087653647,0,0,1.3910311460494995,0,0,0.8408399820327759
0.087938645,0,0,1.3886369466781616,0,0,0.4586400091648102
0.08822307,0,0,1.3886369466781616,0,0,0.4586400091648102
0.088505198,0,0,1.3886369466781616,0,0,0.9937199950218201
0.088787603,0,0,1.3886369466781616,0,0,9.019920349121094
0.089069472,0,0,1.3694833517074585,0,0,1.070159912109375
0.089349452,0,0,1.3694833517074585,0,0,0.8408399820327759
0.089629506,0,0,1.3694833517074585,0,0,1.070159912109375
0.089909616,0,0,1.4772224426269531,0,0,1.070159912109375
0.090198429,0,0,1.4772224426269531,0,0,1.070159912109375
0.090479242,0,0,1.4772224426269531,0,0,2.446079969406128
0.090759426,0,0,1.4772224426269531,0,0,-29.888038635253906
0.091039591,0,0,1.3886369466781616,0,0,0.3822000026702881
0.091321145,0,0,1.3886369466781616,0,0,0.0764399990439415
0.091602106,0,0,1.3886369466781616,0,0,1.223039984703064
0.091881938,0,0,1.2545616626739502,0,0,0.8408399820327759
0.092164399,0,0,1.2545616626739502,0,0,0.7644000053405762
0.092444712,0,0,1.2545616626739502,0,0,0.7644000053405762
0.092725433,0,0,1.2545616626739502,0,0,-0.4586400091648102
0.093006561,0,0,1.2761094570159912,0,0,0.3822000026702881
0.093288189,0,0,1.2761094570159912,0,0,0.3822000026702881
0.093568798,0,0,1.2761094570159912,0,0,0.0764399990439415
0.093849371,0,0,1.192312479019165,0,0,0.9172800183296204
0.09413174,0,0,1.192312479019165,0,0,0.8408399820327759
0.094413979,0,0,1.192312479019165,0,0,0.8408399820327759
0.094694125,0,0,1.192312479019165,0,0,2.14031982421875
0.094989012,0,0,1.1971008777618408,0,0,0.611519992351532
0.095264233,0,0,1.1971008777618408,0,0,1.758120059967041
0.095546769,0,0,1.1971008777618408,0,0,1.5288000106811523
0.0958281,0,0,1.1971008777618408,0,0,0.8408399820327759
0.096107617,0,0,1.3096283674240112,0,0,0.6879600286483765
0.096389671,0,0,1.3096283674240112,0,0,0.4586400091648102
0.096670058,0,0,1.3096283674240112,0,0,0.4586400091648102
0.096950464,0,0,1.280897855758667,0,0,0.6879600286483765
0.097230851,0,0,1.280897855758667,0,0,0.9937199950218201
0.097558201,0,0,1.280897855758667,0,0,1.452359914779663
0.097794941,0,0,1.280897855758667,0,0,0.8408399820327759
0.098077347,0,0,1.3862427473068237,0,0,0.6879600286483765
0.098358104,0,0,1.3862427473068237,0,0,0.7644000053405762
0.098640566,0,0,1.3862427473068237,0,0,0.7644000053405762
0.098920749,0,0,1.4197616577148438,0,0,0.611519992351532
0.099201396,0,0,1.4197616577148438,0,0,1.5288000106811523
0.099481931,0,0,1.4197616577148438,0,0,0.6879600286483765
0.099762707,0,0,1.4197616577148438,0,0,1.452359914779663
0.100042909,0,0,1.3742717504501343,0,0,0.305759996175766
0.100323463,0,0,1.3742717504501343,0,0,0.7644000053405762
0.100605777,0,0,1.3742717504501343,0,0,0.305759996175766
0.100886071,0,0,1.4628572463989258,0,0,0.305759996175766
0.101166996,0,0,1.4628572463989258,0,0,0.9937199950218201
0.101447438,0,0,1.4628572463989258,0,0,0.8408399820327759
0.101728937,0,0,1.4628572463989258,0,0,1.6816799640655518
0.102009306,0,0,1.4389152526855469,0,0,0.3822000026702881
0.102290897,0,0,1.4389152526855469,0,0,0.9937199950218201
0.102570395,0,0,1.4389152526855469,0,0,0.7644000053405762
0.102855467,0,0,1.292868971824646,0,0,0.7644000053405762
0.103139781,0,0,1.292868971824646,0,0,0.7644000053405762
0.103426094,0,0,1.292868971824646,0,0,8.40839958190918
0.103727833,0,0,1.292868971824646,0,0,0.611519992351532
0.104005739,0,0,1.357512354850769,0,0,0.611519992351532
0.104293589,0,0,1.357512354850769,0,0,1.070159912109375
0.104598235,0,0,1.357512354850769,0,0,0.5350799560546875
0.105151325,0,0,1.2401964664459229,0,0,0.7644000053405762
0.106328133,0,0,1.256955862045288,0,0,0.7644000053405762
0.106880778,0,0,1.256955862045288,0,0,0.9937199950218201
0.106934074,0,0,1.256955862045288,0,0,0.9937199950218201
0.107422941,0,0,1.280897855758667,0,0,1.070159912109375
0.107477756,0,0,1.280897855758667,0,0,1.070159912109375
0.110183722,0,0,1.359906554222107,0,0,0.9172800183296204
0.110460072,0,0,1.359906554222107,0,0,0.5350799560546875
0.110729311,0,0,1.359906554222107,0,0,0.4586400091648102
0.110999439,0,0,1.41257905960083,0,0,0.7644000053405762
0.11127053,0,0,1.41257905960083,0,0,0.7644000053405762
0.111539362,0,0,1.41257905960083,0,0,0.6879600286483765
0.11180875,0,0,1.41257905960083,0,0,-29.582279205322266
0.112078248,0,0,1.4939818382263184,0,0,0.8408399820327759
0.112349709,0,0,1.4939818382263184,0,0,0.4586400091648102
0.112619467,0,0,1.4939818382263184,0,0,0.8408399820327759
0.112888503,0,0,1.3646949529647827,0,0,0.8408399820327759
0.113156705,0,0,1.3646949529647827,0,0,0.0764399990439415
0.113427481,0,0,1.3646949529647827,0,0,0.7644000053405762
0.113694998,0,0,1.3646949529647827,0,0,1.1466000080108643
0.113964274,0,0,1.2641384601593018,0,0,0.8408399820327759
0.11424181,0,0,1.2641384601593018,0,0,0.3822000026702881
0.11451229,0,0,1.2641384601593018,0,0,0.3822000026702881
0.114779159,0,0,1.2641384601593018,0,0,0.611519992351532
0.115048138,0,0,1.2689268589019775,0,0,0.8408399820327759
0.115316341,0,0,1.2689268589019775,0,0,1.6816799640655518
0.115585117,0,0,1.2689268589019775,0,0,1.070159912109375
0.115884967,0,0,1.2282254695892334,0,0,0.6879600286483765
0.11614254,0,0,1.2282254695892334,0,0,0.6879600286483765
0.11641076,0,0,1.2282254695892334,0,0,2.14031982421875
0.116681481,0,0,1.2282254695892334,0,0,1.1466000080108643
0.116949831,0,0,1.3072341680526733,0,0,0.3822000026702881
0.117218219,0,0,1.3072341680526733,0,0,0.4586400091648102
0.117486736,0,0,1.3072341680526733,0,0,0.7644000053405762
0.117756586,0,0,1.3072341680526733,0,0,0.7644000053405762
0.118074177,0,0,1.3287819623947144,0,0,1.070159912109375
0.118355397,0,0,1.3287819623947144,0,0,0.8408399820327759
0.118628488,0,0,1.3287819623947144,0,0,0.7644000053405762
0.118898505,0,0,1.4245500564575195,0,0,0.611519992351532
0.119170467,0,0,1.4245500564575195,0,0,1.1466000080108643
0.119441243,0,0,1.4245500564575195,0,0,0.9172800183296204
0.120356219,0,0,1.5155296325683594,0,0,0.5350799560546875
0.12073255,0,0,1.5155296325683594,0,0,0.6879600286483765
0.121013512,0,0,1.4389152526855469,0,0,0.6879600286483765
0.121291343,0,0,1.4389152526855469,0,0,1.1466000080108643
0.12156962,0,0,1.4389152526855469,0,0,0.7644000053405762
0.121846137,0,0,1.414973258972168,0,0,0.5350799560546875
0.122124598,0,0,1.414973258972168,0,0,1.1466000080108643
0.1223943,0,0,1.414973258972168,0,0,0.9937199950218201
0.12266565,0,0,1.414973258972168,0,0,0.4586400091648102
0.122938816,0,0,1.4269442558288574,0,0,0.4586400091648102
0.123210832,0,0,1.4269442558288574,0,0,0.8408399820327759
0.123570793,0,0,1.4269442558288574,0,0,0.5350799560546875
0.123849421,0,0,1.4077905416488647,0,0,0.152879998087883
0.124122309,0,0,1.4077905416488647,0,0,0.9172800183296204
0.124394122,0,0,1.4077905416488647,0,0,0.6879600286483765
0.124668083,0,0,1.4077905416488647,0,0,0.611519992351532
0.12494573,0,0,1.3192051649093628,0,0,0.7644000053405762
0.125248617,0,0,1.3192051649093628,0,0,0.611519992351532
0.125514208,0,0,1.3192051649093628,0,0,0.611519992351532
0.12578691,0,0,1.3192051649093628,0,0,1.2994799613952637
0.126069205,0,0,1.3527239561080933,0,0,0.7644000053405762
0.126341407,0,0,1.3527239561080933,0,0,0.6879600286483765
0.126610165,0,0,1.3527239561080933,0,0,0.8408399820327759
0.126882645,0,0,1.213860273361206,0,0,0.4586400091648102
0.127162495,0,0,1.213860273361206,0,0,0.4586400091648102
0.127442512,0,0,1.213860273361206,0,0,0.5350799560546875
0.127714751,0,0,1.213860273361206,0,0,0.8408399820327759
0.127988638,0,0,1.3096283674240112,0,0,1.758120059967041
0.128260193,0,0,1.3096283674240112,0,0,0.305759996175766
0.128534487,0,0,1.3096283674240112,0,0,0.9937199950218201
0.128806578,0,0,1.278503656387329,0,0,0.8408399820327759
0.129108188,0,0,1.278503656387329,0,0,0.8408399820327759
0.129396519,0,0,1.278503656387329,0,0,0.9172800183296204
0.129703018,0,0,1.278503656387329,0,0,1.1466000080108643
0.129987609,0,0,1.3623007535934448,0,0,1.5288000106811523
0.130272348,0,0,1.3623007535934448,0,0,0.5350799560546875
0.13055992,0,0,1.3623007535934448,0,0,0.611519992351532
0.130845122,0,0,1.4939818382263184,0,0,0.5350799560546875
0.131128213,0,0,1.4939818382263184,0,0,0.9172800183296204
0.131411137,0,0,1.4939818382263184,0,0,0.9172800183296204
0.132519724,0,0,1.4939818382263184,0,0,0.9172800183296204
0.134202362,0,0,1.479616641998291,0,0,0.9172800183296204
0.134250621,0,0,1.479616641998291,0,0,0.9172800183296204
0.134311825,0,0,1.479616641998291,0,0,0.9172800183296204
0.134357806,0,0,1.4389152526855469,0,0,2.14031982421875
0.134402435,0,0,1.4389152526855469,0,0,2.14031982421875
0.134446898,0,0,1.4389152526855469,0,0,2.14031982421875
0.134490805,0,0,1.4389152526855469,0,0,2.14031982421875
0.134544342,0,0,1.4293384552001953,0,0,2.14031982421875
0.134589879,0,0,1.4293384552001953,0,0,2.14031982421875
0.1346346,0,0,1.4293384552001953,0,0,2.14031982421875
0.13481847,0,0,1.3263877630233765,0,0,1.6816799640655518
0.135101857,0,0,1.3263877630233765,0,0,0.3822000026702881
0.135387133,0,0,1.3263877630233765,0,0,0.2293200045824051
0.135664317,0,0,1.3263877630233765,0,0,0.5350799560546875
0.135940463,0,0,1.3263877630233765,0,0,0.7644000053405762
0.136212832,0,0,1.3263877630233765,0,0,0.7644000053405762
0.136487405,0,0,1.3263877630233765,0,0,0.8408399820327759
0.136767162,0,0,1.3263877630233765,0,0,0.4586400091648102
0.137041976,0,0,1.338358759880066,0,0,0.9172800183296204
0.137318363,0,0,1.338358759880066,0,0,0.8408399820327759
0.137592287,0,0,1.338358759880066,0,0,0.611519992351532
0.137871026,0,0,1.2521674633026123,0,0,0.611519992351532
0.138728114,0,0,1.2521674633026123,0,0,0.8408399820327759
0.13880478,0,0,1.2521674633026123,0,0,0.8408399820327759
0.138850206,0,0,1.2521674633026123,0,0,1.375920057296753
0.139089186,0,0,1.259350061416626,0,0,1.375920057296753
0.139294018,0,0,1.259350061416626,0,0,2.14031982421875
0.139625683,0,0,1.259350061416626,0,0,0.9172800183296204
0.140347123,0,0,1.3215993642807007,0,0,0.6879600286483765
0.142259353,0,0,1.479616641998291,0,0,0.6879600286483765
0.142464167,0,0,1.479616641998291,0,0,0.305759996175766
0.142743184,0,0,1.479616641998291,0,0,0.305759996175766
0.143016256,0,0,1.4221558570861816,0,0,0.8408399820327759
0.143297662,0,0,1.4221558570861816,0,0,-29.582279205322266
0.143572623,0,0,1.4221558570861816,0,0,0.611519992351532
0.143841807,0,0,1.414973258972168,0,0,0.611519992351532
0.144113768,0,0,1.414973258972168,0,0,0.305759996175766
0.144383637,0,0,1.414973258972168,0,0,0.7644000053405762
0.144674321,0,0,1.414973258972168,0,0,0.7644000053405762
0.14493619,0,0,1.4844050407409668,0,0,1.070159912109375
0.145205707,0,0,1.4844050407409668,0,0,9.325679779052734
0.145476113,0,0,1.4844050407409668,0,0,0.152879998087883
0.145748815,0,0,1.4844050407409668,0,0,0.8408399820327759
0.146254441,0,0,1.3048399686813354,0,0,0.5350799560546875
0.147266825,0,0,1.3048399686813354,0,0,0.8408399820327759
0.147353639,0,0,1.3048399686813354,0,0,0.8408399820327759
0.147399639,0,0,1.2234370708465576,0,0,0.8408399820327759
0.148058913,0,0,1.290474772453308,0,0,1.070159912109375
0.148365726,0,0,1.290474772453308,0,0,0.9172800183296204
0.14866152,0,0,1.290474772453308,0,0,0.9937199950218201
0.148940815,0,0,1.2521674633026123,0,0,0.9172800183296204
0.149224906,0,0,1.2521674633026123,0,0,0.9172800183296204
0.149506423,0,0,1.2521674633026123,0,0,0.9937199950218201
0.149786347,0,0,1.2880805730819702,0,0,0.6879600286483765
0.150123938,0,0,1.2880805730819702,0,0,0.152879998087883
0.150401492,0,0,1.2880805730819702,0,0,-29.582279205322266
0.150682175,0,0,1.2880805730819702,0,0,0.7644000053405762
0.150970359,0,0,1.3239935636520386,0,0,1.375920057296753
0.151249024,0,0,1.3239935636520386,0,0,0.9172800183296204
0.151529208,0,0,1.3239935636520386,0,0,0.8408399820327759
0.152004538,0,0,1.4269442558288574,0,0,0.4586400091648102
0.152195296,0,0,1.4269442558288574,0,0,0.6879600286483765
0.153561214,0,0,1.4269442558288574,0,0,0.7644000053405762
0.153649269,0,0,1.381454348564148,0,0,0.7644000053405762
0.153694788,0,0,1.381454348564148,0,0,0.7644000053405762
0.153918194,0,0,1.381454348564148,0,0,0
0.154234599,0,0,1.381454348564148,0,0,0.611519992351532
0.154501783,0,0,1.381454348564148,0,0,0.6879600286483765
0.155126705,0,0,1.4891934394836426,0,0,0.611519992351532
0.155212946,0,0,1.4891934394836426,0,0,0.611519992351532
0.157706061,0,0,1.3455413579940796,0,0,-0.5350799560546875
0.157976023,0,0,1.2665326595306396,0,0,9.249239921569824
0.15827391,0,0,1.2665326595306396,0,0,0.611519992351532
0.159667828,0,0,1.1468225717544556,0,0,1.070159912109375
0.159755235,0,0,1.1468225717544556,0,0,1.070159912109375
0.160024789,0,0,1.256955862045288,0,0,0.611519992351532
0.160421527,0,0,1.256955862045288,0,0,0.6879600286483765
0.160828543,0,0,1.3694833517074585,0,0,0.9172800183296204
0.161214652,0,0,1.3694833517074585,0,0,1.5288000106811523
0.161510947,0,0,1.3694833517074585,0,0,1.070159912109375
0.161803464,0,0,1.3000515699386597,0,0,1.452359914779663
0.162385775,0,0,1.3000515699386597,0,0,0.7644000053405762
0.162704162,0,0,1.3000515699386597,0,0,0.7644000053405762
0.163006938,0,0,1.4652514457702637,0,0,0.4586400091648102
0.16331777,0,0,1.4652514457702637,0,0,0.7644000053405762
0.163610268,0,0,1.4652514457702637,0,0,0.611519992351532
0.163909952,0,0,1.4724340438842773,0,0,0.9937199950218201
0.164203431,0,0,1.4724340438842773,0,0,0.6879600286483765
0.164497707,0,0,1.4724340438842773,0,0,0.9172800183296204
0.164787872,0,0,1.3838485479354858,0,0,0.9172800183296204
0.165089963,0,0,1.3838485479354858,0,0,0.9937199950218201
0.165388888,0,0,1.3838485479354858,0,0,0.611519992351532
0.165685534,0,0,1.3838485479354858,0,0,1.2994799613952637
0.165969477,0,0,1.4389152526855469,0,0,9.402119636535645
0.166262605,0,0,1.4389152526855469,0,0,1.070159912109375
0.166559362,0,0,1.4389152526855469,0,0,1.375920057296753
0.166849546,0,0,1.3263877630233765,0,0,0
0.167137285,0,0,1.3263877630233765,0,0,0.7644000053405762
0.167429061,0,0,1.3263877630233765,0,0,0.611519992351532
0.167708263,0,0,1.3263877630233765,0,0,0.611519992351532
0.168007132,0,0,1.278503656387329,0,0,2.2932000160217285
0.16828413,0,0,1.278503656387329,0,0,0.3822000026702881
0.168568147,0,0,1.278503656387329,0,0,9.478560447692871
0.168855812,0,0,1.3862427473068237,0,0,0
0.169138736,0,0,1.3862427473068237,0,0,0.9937199950218201
0.16942505,0,0,1.3862427473068237,0,0,0.611519992351532
0.169721807,0,0,1.3862427473068237,0,0,0.9172800183296204
0.16999388,0,0,1.2282254695892334,0,0,0.8408399820327759
0.170282637,0,0,1.2282254695892334,0,0,0.8408399820327759
0.170768227,0,0,1.2282254695892334,0,0,0.8408399820327759
0.171315798,0,0,1.2641384601593018,0,0,0.9172800183296204
0.171380687,0,0,1.2641384601593018,0,0,0.9172800183296204
0.171424797,0,0,1.2641384601593018,0,0,0.9172800183296204
0.171730296,0,0,1.2952631711959839,0,0,0.8408399820327759
0.17202085,0,0,1.2952631711959839,0,0,1.1466000080108643
0.172305033,0,0,1.2952631711959839,0,0,0.6879600286483765
0.172589457,0,0,1.2952631711959839,0,0,0.611519992351532
0.172876845,0,0,1.41257905960083,0,0,0.611519992351532
0.173171602,0,0,1.41257905960083,0,0,2.06387996673584
0.173452823,0,0,1.41257905960083,0,0,0.9172800183296204
0.173746858,0,0,1.5418659448623657,0,0,-29.582279205322266
0.174091171,0,0,1.5418659448623657,0,0,0.9937199950218201
0.174366466,0,0,1.5418659448623657,0,0,1.2994799613952637
0.17464652,0,0,1.5418659448623657,0,0,0.2293200045824051
0.174930537,0,0,1.6065093278884888,0,0,0.9172800183296204
0.175220072,0,0,1.6065093278884888,0,0,0.8408399820327759
0.175510218,0,0,1.6065093278884888,0,0,0.9172800183296204
0.175808735,0,0,1.5514427423477173,0,0,0.9172800183296204
0.176103215,0,0,1.5514427423477173,0,0,0.7644000053405762
0.176391232,0,0,1.5514427423477173,0,0,1.452359914779663
0.176642249,0,0,1.5514427423477173,0,0,0.4586400091648102
0.176801174,0,0,1.4891934394836426,0,0,0.4586400091648102
0.176951451,0,0,1.4891934394836426,0,0,0.9172800183296204
0.177104876,0,0,1.4891934394836426,0,0,0.9172800183296204
0.177262301,0,0,1.4891934394836426,0,0,0.2293200045824051
0.177418541,0,0,1.4891934394836426,0,0,0.2293200045824051
0.177569836,0,0,1.4891934394836426,0,0,0.0764399990439415
0.177724743,0,0,1.357512354850769,0,0,0.0764399990439415
0.177883927,0,0,1.357512354850769,0,0,0.3822000026702881
0.178130555,0,0,1.357512354850769,0,0,0.7644000053405762
0.178288369,0,0,1.357512354850769,0,0,0.7644000053405762
0.178441887,0,0,1.357512354850769,0,0,0.4586400091648102
0.178595608,0,0,1.357512354850769,0,0,0.5350799560546875
0.178751107,0,0,1.3646949529647827,0,0,0.5350799560546875
0.178912977,0,0,1.3646949529647827,0,0,0.4586400091648102
0.179061994,0,0,1.3646949529647827,0,0,0.4586400091648102
0.179218142,0,0,1.3646949529647827,0,0,0.6879600286483765
0.179374196,0,0,1.3646949529647827,0,0,0.6879600286483765
0.179561381,0,0,1.3646949529647827,0,0,0.7644000053405762
0.179683046,0,0,1.3646949529647827,0,0,0.7644000053405762
0.179843249,0,0,1.338358759880066,0,0,1.605239987373352
0.179992378,0,0,1.338358759880066,0,0,1.605239987373352
0.180146988,0,0,1.338358759880066,0,0,0.611519992351532
0.180301395,0,0,1.338358759880066,0,0,0.611519992351532
0.18046019,0,0,1.338358759880066,0,0,1.5288000106811523
0.180610541,0,0,1.338358759880066,0,0,1.5288000106811523
0.180765522,0,0,1.2617442607879639,0,0,0.5350799560546875
0.180924373,0,0,1.2617442607879639,0,0,0.5350799560546875
0.181078983,0,0,1.2617442607879639,0,0,0.611519992351532
0.181233797,0,0,1.2617442607879639,0,0,0.611519992351532
0.181388926,0,0,1.2617442607879639,0,0,1.070159912109375
0.18154348,0,0,1.2617442607879639,0,0,1.070159912109375
0.181706109,0,0,1.2617442607879639,0,0,0.4586400091648102
0.181858293,0,0,1.2976573705673218,0,0,0.4586400091648102
0.182037663,0,0,1.2976573705673218,0,0,0.0764399990439415
0.182170458,0,0,1.2976573705673218,0,0,0.0764399990439415
0.182325272,0,0,1.2976573705673218,0,0,0.152879998087883
0.182480197,0,0,1.2976573705673218,0,0,0.152879998087883
0.182633437,0,0,1.2976573705673218,0,0,0.152879998087883
0.182793825,0,0,1.314416766166687,0,0,2.522519826889038
0.182947157,0,0,1.314416766166687,0,0,2.522519826889038
0.183102675,0,0,1.314416766166687,0,0,1.605239987373352
0.183260378,0,0,1.314416766166687,0,0,1.605239987373352
0.183412618,0,0,1.314416766166687,0,0,1.6816799640655518
0.183570024,0,0,1.314416766166687,0,0,1.6816799640655518
0.183721968,0,0,1.3646949529647827,0,0,0.611519992351532
0.183876597,0,0,1.3646949529647827,0,0,0.611519992351532
0.184032855,0,0,1.3646949529647827,0,0,1.2994799613952637
0.184185613,0,0,1.3646949529647827,0,0,1.2994799613952637
0.184340483,0,0,1.3646949529647827,0,0,1.1466000080108643
0.184498741,0,0,1.3646949529647827,0,0,1.1466000080108643
0.184649203,0,0,1.3646949529647827,0,0,1.223039984703064
0.184807684,0,0,1.4772224426269531,0,0,1.223039984703064
0.184958683,0,0,1.4772224426269531,0,0,0.3822000026702881
0.185112904,0,0,1.4772224426269531,0,0,0.3822000026702881
0.1852692,0,0,1.4772224426269531,0,0,0.4586400091648102
0.185421421,0,0,1.4772224426269531,0,0,0.4586400091648102
0.18557542,0,0,1.4772224426269531,0,0,1.223039984703064
0.185731327,0,0,1.4652514457702637,0,0,1.223039984703064
0.185883492,0,0,1.4652514457702637,0,0,1.223039984703064
0.186063806,0,0,1.4652514457702637,0,0,0.7644000053405762
0.186221602,0,0,1.4652514457702637,0,0,0.0764399990439415
0.186372842,0,0,1.4652514457702637,0,0,0.0764399990439415
0.186537526,0,0,1.4652514457702637,0,0,0.7644000053405762
0.186689118,0,0,1.4652514457702637,0,0,0.7644000053405762
0.186848061,0,0,1.3694833517074585,0,0,0.5350799560546875
0.187102689,0,0,1.3694833517074585,0,0,1.070159912109375
0.187428317,0,0,1.3694833517074585,0,0,0.152879998087883
0.187761778,0,0,1.3694833517074585,0,0,1.1466000080108643
0.188132109,0,0,1.3694833517074585,0,0,1.8345600366592407
0.188441367,0,0,1.3694833517074585,0,0,0.0764399990439415
0.188770643,0,0,1.4844050407409668,0,0,1.070159912109375
0.189117844,0,0,1.4844050407409668,0,0,1.223039984703064
0.189443676,0,0,1.4844050407409668,0,0,1.452359914779663
0.189760452,0,0,1.4844050407409668,0,0,0.305759996175766
0.190114653,0,0,1.4844050407409668,0,0,0.8408399820327759
0.190466985,0,0,1.4844050407409668,0,0,0.8408399820327759
0.19075815,0,0,1.4844050407409668,0,0,0.9172800183296204
0.191556867,0,0,1.316810965538025,0,0,0.9172800183296204
0.191580256,0,0,1.316810965538025,0,0,1.1466000080108643
0.191759589,0,0,1.316810965538025,0,0,0.6879600286483765
0.192092827,0,0,1.316810965538025,0,0,0.9937199950218201
0.19243577,0,0,1.316810965538025,0,0,0.6879600286483765
0.192811823,0,0,1.316810965538025,0,0,0.7644000053405762
0.193094655,0,0,1.316810965538025,0,0,0.7644000053405762
0.193427949,0,0,1.314416766166687,0,0,0.7644000053405762
0.193761392,0,0,1.314416766166687,0,0,0.8408399820327759
0.194085723,0,0,1.314416766166687,0,0,0.7644000053405762
0.194432536,0,0,1.314416766166687,0,0,0.6879600286483765
0.19478459,0,0,1.314416766166687,0,0,0.6879600286483765
0.195144199,0,0,1.314416766166687,0,0,0.611519992351532
0.195445586,0,0,1.314416766166687,0,0,0.6879600286483765
0.195764436,0,0,1.314416766166687,0,0,0.7644000053405762
0.196142063,0,0,1.314416766166687,0,0,0.6879600286483765
0.196494598,0,0,1.314416766166687,0,0,0.6879600286483765
0.196772301,0,0,1.314416766166687,0,0,0.152879998087883
0.19713115,0,0,1.314416766166687,0,0,1.223039984703064
0.1974645,0,0,1.314416766166687,0,0,0.9172800183296204
0.197795073,0,0,1.1994950771331787,0,0,0.9172800183296204
0.198085719,0,0,1.1994950771331787,0,0,0.5350799560546875
0.19846855,0,0,1.1994950771331787,0,0,0.5350799560546875
0.19876953,0,0,1.1994950771331787,0,0,1.223039984703064
0.199134806,0,0,1.1994950771331787,0,0,1.223039984703064
0.199450915,0,0,1.2521674633026123,0,0,0.4586400091648102
0.199764728,0,0,1.2521674633026123,0,0,0.4586400091648102
0.200140355,0,0,1.2521674633026123,0,0,0
0.200461872,0,0,1.2521674633026123,0,0,0.5350799560546875
0.200781741,0,0,1.2521674633026123,0,0,0
0.20113285,0,0,1.2521674633026123,0,0,-0.4586400091648102
0.201466626,0,0,1.2521674633026123,0,0,1.2994799613952637
0.201763309,0,0,1.2114660739898682,0,0,1.070159912109375
0.202144474,0,0,1.2114660739898682,0,0,0.9937199950218201
0.202463027,0,0,1.2114660739898682,0,0,0.9937199950218201
0.202764692,0,0,1.2114660739898682,0,0,0.0764399990439415
0.20309282,0,0,1.2114660739898682,0,0,1.9874399900436401
0.20342667,0,0,1.2114660739898682,0,0,0.7644000053405762
0.203797649,0,0,1.338358759880066,0,0,0.7644000053405762
0.204124703,0,0,1.338358759880066,0,0,0.6879600286483765
0.204440923,0,0,1.338358759880066,0,0,0.9172800183296204
0.204770273,0,0,1.338358759880066,0,0,0.611519992351532
0.20509329,0,0,1.338358759880066,0,0,0.7644000053405762
0.205461121,0,0,1.338358759880066,0,0,0.7644000053405762
0.205795842,0,0,1.338358759880066,0,0,0.7644000053405762
0.206072433,0,0,1.403002142906189,0,0,0.3822000026702881
0.206464301,0,0,1.403002142906189,0,0,0.611519992351532
0.206803539,0,0,1.403002142906189,0,0,0.7644000053405762
0.207129334,0,0,1.403002142906189,0,0,0.611519992351532
0.207452258,0,0,1.403002142906189,0,0,0.8408399820327759
0.207771775,0,0,1.403002142906189,0,0,0.9172800183296204
0.208092643,0,0,1.403002142906189,0,0,0.8408399820327759
0.208427308,0,0,1.5083470344543457,0,0,0.4586400091648102
0.208769695,0,0,1.5083470344543457,0,0,0.9172800183296204
0.209092841,0,0,1.5083470344543457,0,0,0.6879600286483765
0.209450135,0,0,1.5083470344543457,0,0,1.223039984703064
0.209759078,0,0,1.5083470344543457,0,0,0.4586400091648102
0.21012065,0,0,1.5083470344543457,0,0,0.4586400091648102
0.210443722,0,0,1.5083470344543457,0,0,0.611519992351532
0.210764221,0,0,1.580173134803772,0,0,1.223039984703064
0.211120959,0,0,1.580173134803772,0,0,1.070159912109375
0.211426161,0,0,1.580173134803772,0,0,0.7644000053405762
0.211760196,0,0,1.580173134803772,0,0,0.8408399820327759
0.212092713,0,0,1.580173134803772,0,0,1.375920057296753
0.212480192,0,0,1.580173134803772,0,0,1.2994799613952637
0.212791376,0,0,1.580173134803772,0,0,1.375920057296753
0.213148337,0,0,1.400607943534851,0,0,1.758120059967041
0.21343202,0,0,1.400607943534851,0,0,0.9937199950218201
0.213764537,0,0,1.400607943534851,0,0,1.605239987373352
0.214115553,0,0,1.400607943534851,0,0,9.631440162658691
0.214428311,0,0,1.400607943534851,0,0,0.6879600286483765
0.214805642,0,0,1.400607943534851,0,0,0.6879600286483765
0.215099066,0,0,1.3503297567367554,0,0,1.1466000080108643
0.215430657,0,0,1.3503297567367554,0,0,0.9937199950218201
0.215762655,0,0,1.3503297567367554,0,0,0.6879600286483765
0.216118227,0,0,1.3503297567367554,0,0,0.5350799560546875
0.216461929,0,0,1.3503297567367554,0,0,0.6879600286483765
0.216783705,0,0,1.3503297567367554,0,0,0.8408399820327759
0.217135573,0,0,1.3503297567367554,0,0,0.7644000053405762
0.21745283,0,0,1.3934253454208374,0,0,0.9172800183296204
0.217780329,0,0,1.3934253454208374,0,0,0.9937199950218201
0.218121975,0,0,1.3934253454208374,0,0,0.7644000053405762
0.218459954,0,0,1.3934253454208374,0,0,0.9172800183296204
0.218771508,0,0,1.3934253454208374,0,0,0.8408399820327759
0.219096284,0,0,1.3934253454208374,0,0,0.5350799560546875
0.219433115,0,0,1.3934253454208374,0,0,0.7644000053405762
0.219764651,0,0,1.3455413579940796,0,0,0.7644000053405762
0.220100056,0,0,1.3455413579940796,0,0,0.611519992351532
0.220724052,0,0,1.3455413579940796,0,0,0.611519992351532
0.220748756,0,0,1.3455413579940796,0,0,0.7644000053405762
0.221093236,0,0,1.3455413579940796,0,0,1.1466000080108643
0.221442771,0,0,1.3455413579940796,0,0,1.070159912109375
0.22177375,0,0,1.3455413579940796,0,0,0.9937199950218201
0.22208373,0,0,1.3718775510787964,0,0,0.2293200045824051
0.222428672,0,0,1.3718775510787964,0,0,0.6879600286483765
0.222760004,0,0,1.3718775510787964,0,0,0.7644000053405762
0.223094576,0,0,1.3718775510787964,0,0,0.611519992351532
0.223486351,0,0,1.3718775510787964,0,0,1.605239987373352
0.223757739,0,0,1.3718775510787964,0,0,1.2994799613952637
0.224093737,0,0,1.3718775510787964,0,0,1.6816799640655518
0.224427328,0,0,1.338358759880066,0,0,1.5288000106811523
0.224762789,0,0,1.338358759880066,0,0,1.605239987373352
0.225091083,0,0,1.338358759880066,0,0,0.4586400091648102
0.225437451,0,0,1.338358759880066,0,0,0.8408399820327759
0.225798394,0,0,1.338358759880066,0,0,0.3822000026702881
0.2260678,0,0,1.338358759880066,0,0,1.452359914779663
0.226429224,0,0,1.290474772453308,0,0,9.402119636535645
0.226758629,0,0,1.290474772453308,0,0,0.0764399990439415
0.227088109,0,0,1.290474772453308,0,0,1.375920057296753
0.227426403,0,0,1.290474772453308,0,0,0.7644000053405762
0.227755123,0,0,1.290474772453308,0,0,0.5350799560546875
0.228097455,0,0,1.290474772453308,0,0,0.7644000053405762
0.228420731,0,0,1.290474772453308,0,0,0.611519992351532
0.22875384,0,0,1.4628572463989258,0,0,0.7644000053405762
0.229093893,0,0,1.4628572463989258,0,0,0.4586400091648102
0.229421725,0,0,1.4628572463989258,0,0,0.4586400091648102
0.229755704,0,0,1.4628572463989258,0,0,0.6879600286483765
0.230075499,0,0,1.4628572463989258,0,0,0.6879600286483765
0.23042333,0,0,1.4628572463989258,0,0,0.611519992351532
0.230757514,0,0,1.4628572463989258,0,0,0.8408399820327759
0.231094845,0,0,1.41257905960083,0,0,1.070159912109375
0.23142201,0,0,1.41257905960083,0,0,1.1466000080108643
0.231756286,0,0,1.41257905960083,0,0,1.2994799613952637
0.232096136,0,0,1.41257905960083,0,0,0.9172800183296204
0.232420708,0,0,1.41257905960083,0,0,0.5350799560546875
0.232756021,0,0,1.41257905960083,0,0,0.7644000053405762
0.233098,0,0,1.41257905960083,0,0,0.9937199950218201
0.233423609,0,0,1.3335703611373901,0,0,0.611519992351532
0.233755515,0,0,1.3335703611373901,0,0,0.6879600286483765
0.234071291,0,0,1.3335703611373901,0,0,0.8408399820327759
0.234422493,0,0,1.3335703611373901,0,0,1.1466000080108643
0.234754935,0,0,1.3335703611373901,0,0,1.375920057296753
0.235095785,0,0,1.3335703611373901,0,0,0.2293200045824051
0.235425024,0,0,1.3407529592514038,0,0,1.6816799640655518
0.235756411,0,0,1.3407529592514038,0,0,1.375920057296753
0.236104279,0,0,1.3407529592514038,0,0,1.070159912109375
0.236439629,0,0,1.3407529592514038,0,0,0.9172800183296204
0.236757442,0,0,1.3407529592514038,0,0,0.9172800183296204
0.237095607,0,0,1.3407529592514038,0,0,0.305759996175766
0.237423087,0,0,1.3407529592514038,0,0,1.2994799613952637
0.237762992,0,0,1.400607943534851,0,0,1.375920057296753
0.238087361,0,0,1.400607943534851,0,0,0
0.238425507,0,0,1.400607943534851,0,0,2.14031982421875
0.238762283,0,0,1.400607943534851,0,0,1.223039984703064
0.23909841,0,0,1.400607943534851,0,0,1.605239987373352
0.239427168,0,0,1.400607943534851,0,0,0.9172800183296204
0.239761129,0,0,1.400607943534851,0,0,0.611519992351532
0.240096182,0,0,1.3838485479354858,0,0,0.9937199950218201
0.240439384,0,0,1.3838485479354858,0,0,0.611519992351532
0.240779938,0,0,1.3838485479354858,0,0,0.5350799560546875
0.241125343,0,0,1.3838485479354858,0,0,0.5350799560546875
0.24144473,0,0,1.3838485479354858,0,0,0.6879600286483765
0.241771025,0,0,1.3838485479354858,0,0,0.9937199950218201
0.242095875,0,0,1.3838485479354858,0,0,0.9172800183296204
0.242441891,0,0,1.3527239561080933,0,0,0.8408399820327759
0.242788334,0,0,1.3527239561080933,0,0,0.9937199950218201
0.243109887,0,0,1.3527239561080933,0,0,0.611519992351532
0.243457034,0,0,1.3527239561080933,0,0,0.9172800183296204
0.243786772,0,0,1.3527239561080933,0,0,0.611519992351532
0.244104752,0,0,1.3527239561080933,0,0,0.8408399820327759
0.244423176,0,0,1.3527239561080933,0,0,1.1466000080108643
0.244756989,0,0,1.3287819623947144,0,0,0.9937199950218201
0.245086969,0,0,1.3287819623947144,0,0,0.3822000026702881
0.245442948,0,0,1.3287819623947144,0,0,0.611519992351532
0.245762187,0,0,1.3287819623947144,0,0,1.1466000080108643
0.246071278,0,0,1.3287819623947144,0,0,0.8408399820327759
0.246422276,0,0,1.3287819623947144,0,0,0.8408399820327759
0.2467617,0,0,1.1827356815338135,0,0,0.611519992351532
0.247091846,0,0,1.1827356815338135,0,0,0.9172800183296204
0.247429696,0,0,1.1827356815338135,0,0,0.4586400091648102
0.247780564,0,0,1.1827356815338135,0,0,0.4586400091648102
0.248116711,0,0,1.1827356815338135,0,0,0.9937199950218201
0.248429727,0,0,1.1827356815338135,0,0,1.452359914779663
0.24876704,0,0,1.1827356815338135,0,0,1.8345600366592407
0.249117575,0,0,1.2018892765045166,0,0,0.7644000053405762
0.249484573,0,0,1.2018892765045166,0,0,0.611519992351532
0.249813127,0,0,1.2018892765045166,0,0,0.9937199950218201
0.250243198,0,0,1.2018892765045166,0,0,0.9172800183296204
0.25048466,0,0,1.2018892765045166,0,0,0.9172800183296204
0.250759307,0,0,1.2018892765045166,0,0,2.2167599201202393
0.251093156,0,0,1.2018892765045166,0,0,0.2293200045824051
0.251424877,0,0,1.338358759880066,0,0,0.6879600286483765
0.251758245,0,0,1.338358759880066,0,0,0.611519992351532
0.252087632,0,0,1.338358759880066,0,0,0.6879600286483765
0.252422834,0,0,1.338358759880066,0,0,0.7644000053405762
0.252753314,0,0,1.338358759880066,0,0,0.7644000053405762
0.253087441,0,0,1.338358759880066,0,0,0.9937199950218201
0.253423199,0,0,1.338358759880066,0,0,1.070159912109375
0.253752752,0,0,1.4317326545715332,0,0,0.8408399820327759
0.254063769,0,0,1.4317326545715332,0,0,0.7644000053405762
0.254422712,0,0,1.4317326545715332,0,0,0.6879600286483765
0.254755265,0,0,1.4317326545715332,0,0,0.8408399820327759
0.255086578,0,0,1.4317326545715332,0,0,0.9937199950218201
0.255420261,0,0,1.4317326545715332,0,0,1.070159912109375
0.255778407,0,0,1.4317326545715332,0,0,0.9172800183296204
0.256089109,0,0,1.4101848602294922,0,0,0.9937199950218201
0.256420126,0,0,1.4101848602294922,0,0,0.5350799560546875
0.256756661,0,0,1.4101848602294922,0,0,1.070159912109375
0.25708727,0,0,1.4101848602294922,0,0,0.611519992351532
0.257420805,0,0,1.4101848602294922,0,0,0.2293200045824051
0.257753174,0,0,1.4101848602294922,0,0,1.1466000080108643
0.25806545,0,0,1.4173674583435059,0,0,0.8408399820327759
0.258428115,0,0,1.4173674583435059,0,0,0.8408399820327759
0.258753261,0,0,1.4173674583435059,0,0,0.9172800183296204
0.259091407,0,0,1.4173674583435059,0,0,0.5350799560546875
0.259420498,0,0,1.4173674583435059,0,0,0.3822000026702881
0.259753107,0,0,1.4173674583435059,0,0,0.7644000053405762
0.260089864,0,0,1.4173674583435059,0,0,0.0764399990439415
0.260420677,0,0,1.4460978507995605,0,0,0
0.260752953,0,0,1.4460978507995605,0,0,1.070159912109375
0.261086581,0,0,1.4460978507995605,0,0,1.375920057296753
0.261424097,0,0,1.4460978507995605,0,0,1.2994799613952637
0.261753003,0,0,1.4460978507995605,0,0,1.452359914779663
0.262058038,0,0,1.4460978507995605,0,0,0.9937199950218201
0.262425388,0,0,1.4460978507995605,0,0,2.2167599201202393
0.262753423,0,0,1.4053963422775269,0,0,0.611519992351532
0.263085977,0,0,1.4053963422775269,0,0,9.478560447692871
0.263419734,0,0,1.4053963422775269,0,0,0.8408399820327759
0.263755121,0,0,1.4053963422775269,0,0,0.9172800183296204
0.264085823,0,0,1.4053963422775269,0,0,0.9937199950218201
0.264419599,0,0,1.4053963422775269,0,0,0.8408399820327759
0.264758134,0,0,1.4053963422775269,0,0,0.611519992351532
0.265086169,0,0,1.3120225667953491,0,0,0.9172800183296204
0.265419445,0,0,1.3120225667953491,0,0,0.6879600286483765
0.265756258,0,0,1.3120225667953491,0,0,0.9172800183296204
0.266077626,0,0,1.3120225667953491,0,0,0.9172800183296204
0.266421384,0,0,1.3120225667953491,0,0,0.6879600286483765
0.266753345,0,0,1.3120225667953491,0,0,0.8408399820327759
0.267090546,0,0,1.3048399686813354,0,0,0.9172800183296204
0.26741973,0,0,1.3048399686813354,0,0,0.6879600286483765
0.267762394,0,0,1.3048399686813354,0,0,0.611519992351532
0.268092726,0,0,1.3048399686813354,0,0,0.611519992351532
0.268419965,0,0,1.3048399686813354,0,0,0.3822000026702881
0.268758092,0,0,1.3048399686813354,0,0,0.611519992351532
0.269090424,0,0,1.3048399686813354,0,0,0.305759996175766
0.269422385,0,0,1.2761094570159912,0,0,0.7644000053405762
0.269753253,0,0,1.2761094570159912,0,0,0.6879600286483765
0.27007677,0,0,1.2761094570159912,0,0,0.4586400091648102
0.270441231,0,0,1.2761094570159912,0,0,1.070159912109375
0.270758933,0,0,1.2761094570159912,0,0,0.305759996175766
0.271087153,0,0,1.2761094570159912,0,0,0.9937199950218201
0.271432114,0,0,1.2761094570159912,0,0,0.8408399820327759
0.271758223,0,0,1.161187767982483,0,0,1.5288000106811523
0.272089573,0,0,1.161187767982483,0,0,0.5350799560546875
0.272419942,0,0,1.161187767982483,0,0,0.0764399990439415
0.272753755,0,0,1.161187767982483,0,0,1.1466000080108643
0.273192697,0,0,1.161187767982483,0,0,0.6879600286483765
0.273422844,0,0,1.161187767982483,0,0,0.9172800183296204
0.273752712,0,0,1.161187767982483,0,0,0.4586400091648102
0.274060599,0,0,1.278503656387329,0,0,1.375920057296753
0.274421597,0,0,1.278503656387329,0,0,0.152879998087883
0.274755058,0,0,1.278503656387329,0,0,0.3822000026702881
0.275087445,0,0,1.278503656387329,0,0,9.172800064086914
0.275419462,0,0,1.278503656387329,0,0,0.611519992351532
0.275756275,0,0,1.278503656387329,0,0,0.8408399820327759
0.276086921,0,0,1.278503656387329,0,0,0.5350799560546875
0.276419549,0,0,1.3120225667953491,0,0,1.070159912109375
0.276756713,0,0,1.3120225667953491,0,0,0.9937199950218201
0.277086711,0,0,1.3120225667953491,0,0,0.9937199950218201
0.277419506,0,0,1.3120225667953491,0,0,0.7644000053405762
0.277752874,0,0,1.3120225667953491,0,0,0.611519992351532
0.278070761,0,0,1.3120225667953491,0,0,0.6879600286483765
0.278424796,0,0,1.3120225667953491,0,0,1.070159912109375
0.278755035,0,0,1.4628572463989258,0,0,0.611519992351532
0.279097385,0,0,1.4628572463989258,0,0,0.4586400091648102
0.279422124,0,0,1.4628572463989258,0,0,0.7644000053405762
0.279754604,0,0,1.4628572463989258,0,0,1.452359914779663
0.280090898,0,0,1.4628572463989258,0,0,0.8408399820327759
0.280422692,0,0,1.4628572463989258,0,0,0.9937199950218201
0.280756431,0,0,1.4867992401123047,0,0,0.5350799560546875
0.281089522,0,0,1.4867992401123047,0,0,0.5350799560546875
0.281426224,0,0,1.4867992401123047,0,0,0.8408399820327759
0.281769444,0,0,1.4867992401123047,0,0,0.6879600286483765
0.282070739,0,0,1.4867992401123047,0,0,0.5350799560546875
0.282435459,0,0,1.4867992401123047,0,0,0.6879600286483765
0.28275542,0,0,1.4867992401123047,0,0,1.2994799613952637
0.283096325,0,0,1.436521053314209,0,0,0.2293200045824051
0.283432027,0,0,1.436521053314209,0,0,0.152879998087883
0.283757414,0,0,1.436521053314209,0,0,1.2994799613952637
0.284136616,0,0,1.436521053314209,0,0,0.9937199950218201
0.284485299,0,0,1.436521053314209,0,0,0.6879600286483765
0.284761649,0,0,1.436521053314209,0,0,1.070159912109375
0.285094388,0,0,1.436521053314209,0,0,0.4586400091648102
0.285449053,0,0,1.4173674583435059,0,0,0.9172800183296204
0.285775236,0,0,1.4173674583435059,0,0,1.1466000080108643
0.286072382,0,0,1.4173674583435059,0,0,1.223039984703064
0.286420399,0,0,1.4173674583435059,0,0,0.5350799560546875
0.286763027,0,0,1.4173674583435059,0,0,1.375920057296753
0.28709308,0,0,1.4173674583435059,0,0,0.0764399990439415
0.287426078,0,0,1.4173674583435059,0,0,0.8408399820327759
0.287786317,0,0,1.2880805730819702,0,0,0.9172800183296204
0.288088556,0,0,1.2880805730819702,0,0,0.8408399820327759
0.288424665,0,0,1.2880805730819702,0,0,0.8408399820327759
0.2887712,0,0,1.2880805730819702,0,0,0.7644000053405762
0.289087032,0,0,1.2880805730819702,0,0,0.611519992351532
0.289452715,0,0,1.2880805730819702,0,0,0.7644000053405762
0.289754213,0,0,1.2880805730819702,0,0,0.6879600286483765
0.29006373,0,0,1.3311761617660522,0,0,0.9172800183296204
0.290444728,0,0,1.3311761617660522,0,0,0.611519992351532
0.290753578,0,0,1.3311761617660522,0,0,1.070159912109375
0.29108678,0,0,1.3311761617660522,0,0,1.1466000080108643
0.291427018,0,0,1.3311761617660522,0,0,0.6879600286483765
0.291754183,0,0,1.3311761617660522,0,0,0.611519992351532
0.292112848,0,0,1.3311761617660522,0,0,0.9937199950218201
0.292420272,0,0,1.316810965538025,0,0,0.5350799560546875
0.292763326,0,0,1.316810965538025,0,0,0.4586400091648102
0.293102879,0,0,1.316810965538025,0,0,0.9937199950218201
0.293420081,0,0,1.316810965538025,0,0,1.223039984703064
0.293778857,0,0,1.316810965538025,0,0,0.8408399820327759
0.294077837,0,0,1.316810965538025,0,0,0.611519992351532
0.294420205,0,0,1.316810965538025,0,0,1.070159912109375
0.294776536,0,0,1.2449848651885986,0,0,1.375920057296753
0.295086757,0,0,1.2449848651885986,0,0,0.4586400091648102
0.295420051,0,0,1.2449848651885986,0,0,0.2293200045824051
0.295755123,0,0,1.2449848651885986,0,0,0.5350799560546875
0.296086584,0,0,1.2449848651885986,0,0,1.1466000080108643
0.296445082,0,0,1.2449848651885986,0,0,0.3822000026702881
0.296753451,0,0,1.2449848651885986,0,0,1.1466000080108643
0.297086727,0,0,1.3120225667953491,0,0,1.452359914779663
0.29742941,0,0,1.3120225667953491,0,0,0.4586400091648102
0.297753371,0,0,1.3120225667953491,0,0,0.4586400091648102
0.298056369,0,0,1.3120225667953491,0,0,0.3822000026702881
0.298419978,0,0,1.3120225667953491,0,0,9.631440162658691
0.298753365,0,0,1.3120225667953491,0,0,0
0.299103382,0,0,1.3120225667953491,0,0,0.9937199950218201
0.299420028,0,0,1.292868971824646,0,0,0.3822000026702881
0.299780137,0,0,1.292868971824646,0,0,0.8408399820327759
0.300087284,0,0,1.292868971824646,0,0,0.9172800183296204
0.300420115,0,0,1.292868971824646,0,0,0.6879600286483765
0.300775632,0,0,1.292868971824646,0,0,0.7644000053405762
0.301086796,0,0,1.292868971824646,0,0,1.070159912109375
0.301420498,0,0,1.292868971824646,0,0,0.7644000053405762
0.301756533,0,0,1.3311761617660522,0,0,0.8408399820327759
0.302047884,0,0,1.3311761617660522,0,0,0.6879600286483765
0.3024419,0,0,1.3311761617660522,0,0,0.611519992351532
0.302753435,0,0,1.3311761617660522,0,0,0.9172800183296204
0.303086581,0,0,1.3311761617660522,0,0,0.2293200045824051
0.303429598,0,0,1.3311761617660522,0,0,0.7644000053405762
0.303753503,0,0,1.3311761617660522,0,0,0.6879600286483765
0.304111649,0,0,1.4867992401123047,0,0,0.7644000053405762
0.304420166,0,0,1.4867992401123047,0,0,0.5350799560546875
0.304753387,0,0,1.4867992401123047,0,0,0.6879600286483765
0.305102551,0,0,1.4867992401123047,0,0,0.9172800183296204
0.305420253,0,0,1.4867992401123047,0,0,0.6879600286483765
0.305778344,0,0,1.4867992401123047,0,0,1.070159912109375
0.306129379,0,0,1.4867992401123047,0,0,1.375920057296753
0.306420303,0,0,1.414973258972168,0,0,1.070159912109375
0.306753486,0,0,1.414973258972168,0,0,0.611519992351532
0.307102929,0,0,1.414973258972168,0,0,1.070159912109375
0.307420186,0,0,1.414973258972168,0,0,0.2293200045824051
0.307778258,0,0,1.414973258972168,0,0,0.2293200045824051
0.308087312,0,0,1.414973258972168,0,0,1.070159912109375
0.308420236,0,0,1.414973258972168,0,0,0.9172800183296204
0.308774104,0,0,1.4915876388549805,0,0,0.9172800183296204
0.309086769,0,0,1.4915876388549805,0,0,1.605239987373352
0.309419915,0,0,1.4915876388549805,0,0,1.375920057296753
0.309776524,0,0,1.4915876388549805,0,0,2.06387996673584
0.310057708,0,0,1.4915876388549805,0,0,0.152879998087883
0.310444947,0,0,1.4915876388549805,0,0,0.5350799560546875
0.31075363,0,0,1.4293384552001953,0,0,9.402119636535645
0.311086647,0,0,1.4293384552001953,0,0,1.2994799613952637
0.311427904,0,0,1.4293384552001953,0,0,0.8408399820327759
0.31175355,0,0,1.4293384552001953,0,0,0.9172800183296204
0.312112381,0,0,1.4293384552001953,0,0,1.070159912109375
0.312420213,0,0,1.4293384552001953,0,0,0.9172800183296204
0.312753674,0,0,1.4293384552001953,0,0,0.8408399820327759
0.313101857,0,0,1.3742717504501343,0,0,0.7644000053405762
0.313420133,0,0,1.3742717504501343,0,0,0.5350799560546875
0.313779594,0,0,1.3742717504501343,0,0,0.611519992351532
0.314091574,0,0,1.3742717504501343,0,0,0.4586400091648102
0.314420498,0,0,1.3742717504501343,0,0,0.9937199950218201
0.3147772,0,0,1.3742717504501343,0,0,1.223039984703064
0.315086864,0,0,1.3742717504501343,0,0,0.9937199950218201
0.315419937,0,0,1.2880805730819702,0,0,0.6879600286483765
0.315759712,0,0,1.2880805730819702,0,0,0.305759996175766
0.316086896,0,0,1.2880805730819702,0,0,0.8408399820327759
0.316445727,0,0,1.2880805730819702,0,0,0.8408399820327759
0.31675354,0,0,1.2880805730819702,0,0,0.611519992351532
0.317086594,0,0,1.2880805730819702,0,0,0.9172800183296204
0.317433981,0,0,1.2880805730819702,0,0,0.4586400091648102
0.317753534,0,0,1.2880805730819702,0,0,1.070159912109375
0.318050459,0,0,1.2521674633026123,0,0,0.6879600286483765
0.318420049,0,0,1.2521674633026123,0,0,0.7644000053405762
0.318753436,0,0,1.2521674633026123,0,0,0.6879600286483765
0.319106379,0,0,1.2521674633026123,0,0,0.2293200045824051
0.319420117,0,0,1.2521674633026123,0,0,0
0.31975319,0,0,1.2521674633026123,0,0,0.3822000026702881
0.320111873,0,0,1.2521674633026123,0,0,0.4586400091648102
0.320490871,0,0,1.2425906658172607,0,0,0.5350799560546875
0.320886776,0,0,1.2425906658172607,0,0,0.5350799560546875
0.321088386,0,0,1.2425906658172607,0,0,1.758120059967041
0.321435069,0,0,1.2425906658172607,0,0,1.2994799613952637
0.321753604,0,0,1.2425906658172607,0,0,0.3822000026702881
0.322062602,0,0,1.2425906658172607,0,0,1.070159912109375
0.322419934,0,0,1.2425906658172607,0,0,0
0.322753135,0,0,1.338358759880066,0,0,0
0.323106004,0,0,1.338358759880066,0,0,0.8408399820327759
0.323420169,0,0,1.338358759880066,0,0,0.9937199950218201
0.323756759,0,0,1.338358759880066,0,0,0.611519992351532
0.324086924,0,0,1.338358759880066,0,0,0.611519992351532
0.324501755,0,0,1.338358759880066,0,0,0.611519992351532
0.324762791,0,0,1.338358759880066,0,0,0.7644000053405762
0.325086863,0,0,1.3694833517074585,0,0,0.6879600286483765
0.325445583,0,0,1.3694833517074585,0,0,0.9937199950218201
0.325753396,0,0,1.3694833517074585,0,0,0.9937199950218201
0.326059839,0,0,1.3694833517074585,0,0,0.6879600286483765
0.326439003,0,0,1.3694833517074585,0,0,0.611519992351532
0.326756816,0,0,1.3694833517074585,0,0,0.6879600286483765
0.327088222,0,0,1.3646949529647827,0,0,1.070159912109375
0.327425609,0,0,1.3646949529647827,0,0,1.070159912109375
0.327755051,0,0,1.3646949529647827,0,0,0.6879600286483765
0.328088975,0,0,1.3646949529647827,0,0,0.6879600286483765
0.328428362,0,0,1.3646949529647827,0,0,1.223039984703064
0.328754768,0,0,1.3646949529647827,0,0,0.4586400091648102
0.329113525,0,0,1.3646949529647827,0,0,0.6879600286483765
0.329421708,0,0,1.4484920501708984,0,0,0.9172800183296204
0.329754744,0,0,1.4484920501708984,0,0,0.7644000053405762
0.330111686,0,0,1.4484920501708984,0,0,0.4586400091648102
0.330421629,0,0,1.4484920501708984,0,0,0.9172800183296204
0.330758812,0,0,1.4484920501708984,0,0,0.9172800183296204
0.331097143,0,0,1.4484920501708984,0,0,0.4586400091648102
0.331421438,0,0,1.4389152526855469,0,0,0.305759996175766
0.331778362,0,0,1.4389152526855469,0,0,0.305759996175766
0.332090267,0,0,1.4389152526855469,0,0,0.0764399990439415
0.332421765,0,0,1.4389152526855469,0,0,1.375920057296753
0.332779226,0,0,1.4389152526855469,0,0,1.2994799613952637
0.333088299,0,0,1.4389152526855469,0,0,1.605239987373352
0.333421371,0,0,1.4389152526855469,0,0,1.6816799640655518
0.333767869,0,0,1.403002142906189,0,0,1.1466000080108643
0.334066682,0,0,1.403002142906189,0,0,0
0.334420013,0,0,1.403002142906189,0,0,0.0764399990439415
0.334765715,0,0,1.403002142906189,0,0,9.096360206604004
0.335086787,0,0,1.403002142906189,0,0,1.2994799613952637
0.335449748,0,0,1.403002142906189,0,0,2.2932000160217285
0.335753802,0,0,1.403002142906189,0,0,0.611519992351532
0.336086578,0,0,1.4724340438842773,0,0,0.8408399820327759
0.336436965,0,0,1.4724340438842773,0,0,0.7644000053405762
0.336753389,0,0,1.4724340438842773,0,0,0.9172800183296204
0.337086683,0,0,1.4724340438842773,0,0,0.3822000026702881
0.337445329,0,0,1.4724340438842773,0,0,0.6879600286483765
0.337753235,0,0,1.4724340438842773,0,0,0.9172800183296204
0.338093177,0,0,1.4724340438842773,0,0,0.7644000053405762
0.338421768,0,0,1.381454348564148,0,0,0.611519992351532
0.338754581,0,0,1.381454348564148,0,0,0.8408399820327759
0.33909869,0,0,1.381454348564148,0,0,0.9172800183296204
0.339421225,0,0,1.381454348564148,0,0,0.8408399820327759
0.339779834,0,0,1.381454348564148,0,0,0.5350799560546875
0.340087314,0,0,1.381454348564148,0,0,0.7644000053405762
0.340421238,0,0,1.381454348564148,0,0,0.5350799560546875
0.340779014,0,0,1.381454348564148,0,0,0.6879600286483765
0.341090623,0,0,1.381454348564148,0,0,0.7644000053405762
0.341421232,0,0,1.381454348564148,0,0,1.2994799613952637
0.341843378,0,0,1.381454348564148,0,0,0.9172800183296204
0.342064525,0,0,1.381454348564148,0,0,0.7644000053405762
0.34242169,0,0,1.381454348564148,0,0,1.2994799613952637
0.342767743,0,0,1.381454348564148,0,0,1.5288000106811523
0.343088223,0,0,1.2497732639312744,0,0,0.611519992351532
0.343709775,0,0,1.2497732639312744,0,0,0.3822000026702881
0.343734127,0,0,1.2497732639312744,0,0,0.2293200045824051
0.34408868,0,0,1.2497732639312744,0,0,0.9937199950218201
0.344433382,0,0,1.2497732639312744,0,0,1.1466000080108643
0.344754713,0,0,1.2497732639312744,0,0,1.8345600366592407
0.345112878,0,0,1.173158884048462,0,0,1.452359914779663
0.345421432,0,0,1.173158884048462,0,0,0.4586400091648102
0.3457548,0,0,1.173158884048462,0,0,0.5350799560546875
0.346110168,0,0,1.173158884048462,0,0,0
0.346421444,0,0,1.173158884048462,0,0,9.631440162658691
0.346754572,0,0,1.173158884048462,0,0,9.631440162658691
0.347103811,0,0,1.173158884048462,0,0,0.8408399820327759
0.347421291,0,0,1.194706678390503,0,0,1.758120059967041
0.347754437,0,0,1.194706678390503,0,0,0.611519992351532
0.348111361,0,0,1.194706678390503,0,0,0.4586400091648102
0.348421655,0,0,1.194706678390503,0,0,0.6879600286483765
0.34877645,0,0,1.194706678390503,0,0,0.611519992351532
0.349088022,0,0,1.194706678390503,0,0,0.611519992351532
0.349421761,0,0,1.194706678390503,0,0,0.8408399820327759
0.349768999,0,0,1.259350061416626,0,0,0.8408399820327759
0.350156275,0,0,1.259350061416626,0,0,0.9937199950218201
0.350437847,0,0,1.259350061416626,0,0,0.6879600286483765
0.35075516,0,0,1.259350061416626,0,0,0.9172800183296204
0.351088047,0,0,1.259350061416626,0,0,0.8408399820327759
0.351448286,0,0,1.259350061416626,0,0,0.611519992351532
0.351754895,0,0,1.259350061416626,0,0,0.8408399820327759
0.352111782,0,0,1.4269442558288574,0,0,0.8408399820327759
0.35242141,0,0,1.4269442558288574,0,0,0.9937199950218201
0.352754853,0,0,1.4269442558288574,0,0,0.9937199950218201
0.353104091,0,0,1.4269442558288574,0,0,0.7644000053405762
0.353421516,0,0,1.4269442558288574,0,0,1.070159912109375
0.353754754,0,0,1.4269442558288574,0,0,0.7644000053405762
0.354110586,0,0,1.4269442558288574,0,0,1.070159912109375
0.354420343,0,0,1.522712230682373,0,0,0.8408399820327759
0.354775841,0,0,1.522712230682373,0,0,0.611519992351532
0.355086932,0,0,1.522712230682373,0,0,0.305759996175766
0.355420004,0,0,1.522712230682373,0,0,1.070159912109375
0.355764261,0,0,1.522712230682373,0,0,0.9172800183296204
0.356086908,0,0,1.522712230682373,0,0,1.452359914779663
0.356441906,0,0,1.522712230682373,0,0,1.070159912109375
0.356753608,0,0,1.479616641998291,0,0,0.3822000026702881
0.357086587,0,0,1.479616641998291,0,0,0.7644000053405762
0.357566362,0,0,1.479616641998291,0,0,0.7644000053405762
0.357754417,0,0,1.479616641998291,0,0,0
0.358068859,0,0,1.479616641998291,0,0,0.2293200045824051
0.358421635,0,0,1.479616641998291,0,0,1.2994799613952637
0.358754781,0,0,1.479616641998291,0,0,1.605239987373352
0.35910789,0,0,1.4676456451416016,0,0,0.7644000053405762
0.35942124,0,0,1.4676456451416016,0,0,1.9109998941421509
0.359754535,0,0,1.4676456451416016,0,0,0.5350799560546875
0.360093959,0,0,1.4676456451416016,0,0,0.7644000053405762
0.360421531,0,0,1.4676456451416016,0,0,0.7644000053405762
0.360780122,0,0,1.4676456451416016,0,0,0.611519992351532
0.361088287,0,0,1.4676456451416016,0,0,0.7644000053405762
0.361421211,0,0,1.3910311460494995,0,0,0.7644000053405762
0.361777634,0,0,1.3910311460494995,0,0,0.7644000053405762
0.362088262,0,0,1.3910311460494995,0,0,0.8408399820327759
0.36242139,0,0,1.3910311460494995,0,0,0.7644000053405762
0.362760073,0,0,1.3910311460494995,0,0,0.611519992351532
0.363088497,0,0,1.3910311460494995,0,0,0.6879600286483765
0.363446255,0,0,1.259350061416626,0,0,0.6879600286483765
0.363755012,0,0,1.259350061416626,0,0,0.6879600286483765
0.36408801,0,0,1.259350061416626,0,0,0.7644000053405762
0.364441378,0,0,1.259350061416626,0,0,1.070159912109375
0.364754766,0,0,1.259350061416626,0,0,1.070159912109375
0.365087986,0,0,1.259350061416626,0,0,1.223039984703064
0.365427243,0,0,1.259350061416626,0,0,0.3822000026702881
0.365754741,0,0,1.2425906658172607,0,0,0.9937199950218201
0.366115165,0,0,1.2425906658172607,0,0,0.4586400091648102
0.366420349,0,0,1.2425906658172607,0,0,0.611519992351532
0.366753273,0,0,1.2425906658172607,0,0,1.223039984703064
0.367103382,0,0,1.2425906658172607,0,0,0.5350799560546875
0.367420028,0,0,1.2425906658172607,0,0,0.7644000053405762
0.367778582,0,0,1.2425906658172607,0,0,0.7644000053405762
0.368087172,0,0,1.2761094570159912,0,0,0.9172800183296204
0.368419911,0,0,1.2761094570159912,0,0,0.305759996175766
0.368776483,0,0,1.2761094570159912,0,0,1.452359914779663
0.369086648,0,0,1.2761094570159912,0,0,0.0764399990439415
0.369420554,0,0,1.2761094570159912,0,0,0.0764399990439415
0.369755922,0,0,1.2761094570159912,0,0,9.402119636535645
0.370085457,0,0,1.2761094570159912,0,0,0.305759996175766
0.370428103,0,0,1.2641384601593018,0,0,0.5350799560546875
0.370753879,0,0,1.2641384601593018,0,0,1.758120059967041
0.371107007,0,0,1.2641384601593018,0,0,0.5350799560546875
0.371420135,0,0,1.2641384601593018,0,0,0.3822000026702881
0.371753188,0,0,1.2641384601593018,0,0,0.7644000053405762
0.372113946,0,0,1.2641384601593018,0,0,0.8408399820327759
0.372419999,0,0,1.2641384601593018,0,0,0.611519992351532
0.372777368,0,0,1.338358759880066,0,0,0.9172800183296204
0.373086625,0,0,1.338358759880066,0,0,0.9937199950218201
0.373422123,0,0,1.338358759880066,0,0,0.7644000053405762
0.373777269,0,0,1.338358759880066,0,0,0.9172800183296204
0.374118749,0,0,1.338358759880066,0,0,1.1466000080108643
0.37442184,0,0,1.338358759880066,0,0,0.6879600286483765
0.37475469,0,0,1.338358759880066,0,0,0.611519992351532
0.375103021,0,0,1.3694833517074585,0,0,0.9937199950218201
0.375421464,0,0,1.3694833517074585,0,0,0.611519992351532
0.375754443,0,0,1.3694833517074585,0,0,0.7644000053405762
0.376111404,0,0,1.3694833517074585,0,0,0.5350799560546875
0.376421143,0,0,1.3694833517074585,0,0,0.8408399820327759
0.376779919,0,0,1.3694833517074585,0,0,0.611519992351532
0.377088176,0,0,1.558625340461731,0,0,0.9937199950218201
0.377421008,0,0,1.558625340461731,0,0,0.6879600286483765
0.377771006,0,0,1.558625340461731,0,0,0.8408399820327759
0.378067115,0,0,1.558625340461731,0,0,0.3822000026702881
0.378421317,0,0,1.558625340461731,0,0,0.152879998087883
0.378770426,0,0,1.558625340461731,0,0,0.9172800183296204
0.379088017,0,0,1.558625340461731,0,0,0.8408399820327759
0.379421256,0,0,1.4173674583435059,0,0,1.223039984703064
0.379777883,0,0,1.4173674583435059,0,0,1.375920057296753
0.380087993,0,0,1.4173674583435059,0,0,0.8408399820327759
0.380444324,0,0,1.4173674583435059,0,0,0.6879600286483765
0.380753526,0,0,1.4173674583435059,0,0,0
0.381086894,0,0,1.4173674583435059,0,0,1.223039984703064
0.381450077,0,0,1.4173674583435059,0,0,0.3822000026702881
0.381753391,0,0,1.4053963422775269,0,0,1.1466000080108643
0.382057537,0,0,1.4053963422775269,0,0,0.6879600286483765
0.382423461,0,0,1.4053963422775269,0,0,1.452359914779663
0.382754626,0,0,1.4053963422775269,0,0,1.070159912109375
0.383111809,0,0,1.4053963422775269,0,0,0.8408399820327759
0.38342114,0,0,1.4053963422775269,0,0,0.611519992351532
0.383754509,0,0,1.4053963422775269,0,0,0.6879600286483765
0.384099044,0,0,1.414973258972168,0,0,0.7644000053405762
0.38442132,0,0,1.414973258972168,0,0,0.9937199950218201
0.384779725,0,0,1.414973258972168,0,0,0.9172800183296204
0.385087871,0,0,1.414973258972168,0,0,0.9937199950218201
0.385421407,0,0,1.414973258972168,0,0,0.8408399820327759
0.385779701,0,0,1.414973258972168,0,0,0.9172800183296204
0.38608794,0,0,1.357512354850769,0,0,0.6879600286483765
0.386421086,0,0,1.357512354850769,0,0,1.1466000080108643
0.386769806,0,0,1.357512354850769,0,0,0.7644000053405762
0.387088082,0,0,1.357512354850769,0,0,0.611519992351532
0.387421136,0,0,1.357512354850769,0,0,0.5350799560546875
0.387777782,0,0,1.357512354850769,0,0,0.7644000053405762
0.388087854,0,0,1.2952631711959839,0,0,0.6879600286483765
0.388444111,0,0,1.2952631711959839,0,0,0.7644000053405762
0.388754702,0,0,1.2952631711959839,0,0,0.305759996175766
0.38908783,0,0,1.2952631711959839,0,0,0.7644000053405762
0.389437161,0,0,1.2952631711959839,0,0,1.1466000080108643
0.389754919,0,0,1.2952631711959839,0,0,0.8408399820327759
0.390089102,0,0,1.2952631711959839,0,0,0.6879600286483765
0.390432915,0,0,1.3000515699386597,0,0,0.611519992351532
0.390754487,0,0,1.3000515699386597,0,0,0.9172800183296204
0.391112652,0,0,1.3000515699386597,0,0,0.8408399820327759
0.391421465,0,0,1.3000515699386597,0,0,0.8408399820327759
0.391754648,0,0,1.3000515699386597,0,0,0.6879600286483765
0.392112313,0,0,1.3000515699386597,0,0,1.605239987373352
0.392421848,0,0,1.3000515699386597,0,0,0.2293200045824051
0.392756846,0,0,1.213860273361206,0,0,0.305759996175766
0.393101159,0,0,1.213860273361206,0,0,0.8408399820327759
0.393421342,0,0,1.213860273361206,0,0,1.452359914779663
0.393779748,0,0,1.213860273361206,0,0,1.6816799640655518
0.394091542,0,0,1.213860273361206,0,0,1.070159912109375
0.39442117,0,0,1.213860273361206,0,0,0.7644000053405762
0.394780501,0,0,1.213860273361206,0,0,0.6879600286483765
0.395088073,0,0,1.2497732639312744,0,0,0.8408399820327759
0.395426405,0,0,1.2497732639312744,0,0,0.305759996175766
0.395755144,0,0,1.2497732639312744,0,0,0.9937199950218201
0.396104271,0,0,1.2497732639312744,0,0,0.6879600286483765
0.396421158,0,0,1.2497732639312744,0,0,0.9172800183296204
0.396754601,0,0,1.2497732639312744,0,0,0.8408399820327759
0.397089932,0,0,1.2497732639312744,0,0,0.9172800183296204
0.397421171,0,0,1.3407529592514038,0,0,0.611519992351532
0.397779336,0,0,1.3407529592514038,0,0,0.7644000053405762
0.398128019,0,0,1.3407529592514038,0,0,0.3822000026702881
0.398421832,0,0,1.3407529592514038,0,0,0.6879600286483765
0.398755293,0,0,1.3407529592514038,0,0,0.6879600286483765
0.399109013,0,0,1.3407529592514038,0,0,1.070159912109375
0.399421456,0,0,1.3407529592514038,0,0,1.1466000080108643
0.399755028,0,0,1.314416766166687,0,0,1.1466000080108643
0.400094563,0,0,1.314416766166687,0,0,0.305759996175766
0.400421432,0,0,1.314416766166687,0,0,0.4586400091648102
0.400776337,0,0,1.314416766166687,0,0,0.5350799560546875
0.401088743,0,0,1.314416766166687,0,0,0.7644000053405762
0.401421297,0,0,1.314416766166687,0,0,0.611519992351532
0.401777794,0,0,1.314416766166687,0,0,0.6879600286483765
0.402088089,0,0,1.4532804489135742,0,0,0.5350799560546875
0.402421254,0,0,1.4532804489135742,0,0,0.6879600286483765
0.402765326,0,0,1.4532804489135742,0,0,0.8408399820327759
0.403091065,0,0,1.4532804489135742,0,0,0.305759996175766
0.403445822,0,0,1.4532804489135742,0,0,0.5350799560546875
0.403755172,0,0,1.5275006294250488,0,0,0.7644000053405762
0.404087892,0,0,1.5275006294250488,0,0,0.305759996175766
0.404446557,0,0,1.5275006294250488,0,0,0.2293200045824051
0.404754703,0,0,1.5275006294250488,0,0,1.2994799613952637
0.405088053,0,0,1.5275006294250488,0,0,0.9937199950218201
0.405436329,0,0,1.4628572463989258,0,0,0.2293200045824051
0.405754624,0,0,1.4628572463989258,0,0,1.223039984703064
0.406114677,0,0,1.4628572463989258,0,0,1.070159912109375
0.406422972,0,0,1.4628572463989258,0,0,0.6879600286483765
0.406754562,0,0,1.4628572463989258,0,0,-29.582279205322266
0.407112597,0,0,1.4628572463989258,0,0,1.070159912109375
0.407421558,0,0,1.4628572463989258,0,0,1.758120059967041
0.407754594,0,0,1.5179238319396973,0,0,1.070159912109375
0.408105221,0,0,1.5179238319396973,0,0,0.4586400091648102
0.408421238,0,0,1.5179238319396973,0,0,0.7644000053405762
0.40875444,0,0,1.5179238319396973,0,0,0.9937199950218201
0.409091512,0,0,1.5179238319396973,0,0,0.9172800183296204
0.40942138,0,0,1.3646949529647827,0,0,0.7644000053405762
0.409779952,0,0,1.3646949529647827,0,0,0.611519992351532
0.410088191,0,0,1.3646949529647827,0,0,0.5350799560546875
0.410421227,0,0,1.3646949529647827,0,0,0.5350799560546875
0.41077691,0,0,1.3646949529647827,0,0,0.4586400091648102
0.41108813,0,0,1.2689268589019775,0,0,0.7644000053405762
0.411421276,0,0,1.2689268589019775,0,0,0.9172800183296204
0.411762756,0,0,1.2521674633026123,0,0,0.611519992351532
0.41208781,0,0,1.2521674633026123,0,0,0.9937199950218201
0.412444141,0,0,1.2521674633026123,0,0,0.9172800183296204
0.412756028,0,0,1.2521674633026123,0,0,0.3822000026702881
0.413087841,0,0,1.2521674633026123,0,0,0.305759996175766
0.413446913,0,0,1.2521674633026123,0,0,0.4586400091648102
0.413754633,0,0,1.2521674633026123,0,0,0.8408399820327759
0.414089094,0,0,1.235408067703247,0,0,0.611519992351532
0.414432759,0,0,1.235408067703247,0,0,1.070159912109375
0.414754554,0,0,1.235408067703247,0,0,0.611519992351532
0.415113589,0,0,1.235408067703247,0,0,0.9172800183296204
0.415420902,0,0,1.235408067703247,0,0,0.152879998087883
0.415754585,0,0,1.235408067703247,0,0,0.2293200045824051
0.416113268,0,0,1.235408067703247,0,0,1.070159912109375
0.416421303,0,0,1.2282254695892334,0,0,0.9937199950218201
0.416754635,0,0,1.2282254695892334,0,0,1.452359914779663
0.417101633,0,0,1.2282254695892334,0,0,0.0764399990439415
0.417421186,0,0,1.2282254695892334,0,0,0.5350799560546875
0.417779629,0,0,1.2282254695892334,0,0,0.3822000026702881
0.418089757,0,0,1.2282254695892334,0,0,0.0764399990439415
0.418421459,0,0,1.2282254695892334,0,0,0.5350799560546875
0.41877829,0,0,1.2282254695892334,0,0,-0.3822000026702881
0.419088066,0,0,1.3215993642807007,0,0,9.478560447692871
0.41942136,0,0,1.3215993642807007,0,0,0.5350799560546875
0.419770877,0,0,1.3215993642807007,0,0,0.5350799560546875
0.420087893,0,0,1.3215993642807007,0,0,0.7644000053405762
0.420536465,0,0,1.3215993642807007,0,0,0.7644000053405762
0.420756075,0,0,1.3215993642807007,0,0,0.9172800183296204
0.421100425,0,0,1.3215993642807007,0,0,0.8408399820327759
0.421421219,0,0,1.4700398445129395,0,0,0.4586400091648102
0.421780458,0,0,1.4700398445129395,0,0,0.7644000053405762
0.422089456,0,0,1.4700398445129395,0,0,0.611519992351532
0.42242125,0,0,1.4700398445129395,0,0,0.8408399820327759
0.422778785,0,0,1.4700398445129395,0,0,0.7644000053405762
0.423087913,0,0,1.4700398445129395,0,0,0.6879600286483765
0.423422819,0,0,1.4700398445129395,0,0,0.9172800183296204
0.423782057,0,0,1.5298948287963867,0,0,0.611519992351532
0.424088315,0,0,1.5298948287963867,0,0,0.5350799560546875
0.424421295,0,0,1.5298948287963867,0,0,0.305759996175766
0.424769348,0,0,1.5298948287963867,0,0,0.6879600286483765
0.425088161,0,0,1.5298948287963867,0,0,0.9172800183296204
0.42542103,0,0,1.5298948287963867,0,0,0.8408399820327759
0.425778157,0,0,1.5298948287963867,0,0,0.5350799560546875
0.426089118,0,0,1.45806884765625,0,0,0.9937199950218201
0.426445246,0,0,1.45806884765625,0,0,0.7644000053405762
0.426754485,0,0,1.45806884765625,0,0,0.4586400091648102
0.427088002,0,0,1.45806884765625,0,0,0.4586400091648102
0.427437,0,0,1.45806884765625,0,0,1.223039984703064
0.427754609,0,0,1.45806884765625,0,0,0.5350799560546875
0.42811357,0,0,1.45806884765625,0,0,0.9172800183296204
0.428422068,0,0,1.4484920501708984,0,0,1.070159912109375
0.428754548,0,0,1.4484920501708984,0,0,1.5288000106811523
0.429113694,0,0,1.4484920501708984,0,0,1.223039984703064
0.429421507,0,0,1.4484920501708984,0,0,0.4586400091648102
0.429754634,0,0,1.4484920501708984,0,0,0.4586400091648102
0.430105021,0,0,1.4484920501708984,0,0,1.452359914779663
0.430421316,0,0,1.4484920501708984,0,0,0
0.430754518,0,0,1.460463047027588,0,0,0.7644000053405762
0.431091886,0,0,1.460463047027588,0,0,0.9937199950218201
0.431421143,0,0,1.460463047027588,0,0,0.5350799560546875
0.431779493,0,0,1.460463047027588,0,0,1.9874399900436401
0.432088121,0,0,1.460463047027588,0,0,0.8408399820327759
0.432421101,0,0,1.460463047027588,0,0,0.5350799560546875
0.432775543,0,0,1.460463047027588,0,0,0.9172800183296204
0.433087949,0,0,1.3646949529647827,0,0,0.9172800183296204
0.433421225,0,0,1.3646949529647827,0,0,0.8408399820327759
0.433762612,0,0,1.3646949529647827,0,0,0.9172800183296204
0.434065851,0,0,1.3646949529647827,0,0,0.8408399820327759
0.434446126,0,0,1.3646949529647827,0,0,0.5350799560546875
0.434753235,0,0,1.3646949529647827,0,0,0.5350799560546875
0.435087826,0,0,1.3646949529647827,0,0,0.5350799560546875
0.435445565,0,0,1.3646949529647827,0,0,0.8408399820327759
0.435754619,0,0,1.290474772453308,0,0,0.6879600286483765
0.436087691,0,0,1.290474772453308,0,0,0.4586400091648102
0.43643467,0,0,1.290474772453308,0,0,0.6879600286483765
0.436754557,0,0,1.290474772453308,0,0,0.6879600286483765
0.437113129,0,0,1.290474772453308,0,0,1.070159912109375
0.437421146,0,0,1.290474772453308,0,0,0.8408399820327759
0.43775457,0,0,1.290474772453308,0,0,1.1466000080108643
0.438113383,0,0,1.213860273361206,0,0,0.6879600286483765
0.438434826,0,0,1.213860273361206,0,0,0.611519992351532
0.438754546,0,0,1.213860273361206,0,0,0.6879600286483765
0.439105192,0,0,1.213860273361206,0,0,1.1466000080108643
0.439421061,0,0,1.213860273361206,0,0,0.4586400091648102
0.439754485,0,0,1.213860273361206,0,0,0.9172800183296204
0.440092057,0,0,1.213860273361206,0,0,0.6879600286483765
0.440421333,0,0,1.213860273361206,0,0,1.223039984703064
0.440780312,0,0,1.213860273361206,0,0,1.452359914779663
0.441088162,0,0,1.213860273361206,0,0,1.375920057296753
0.441421308,0,0,1.213860273361206,0,0,0.7644000053405762
0.44183088,0,0,1.213860273361206,0,0,0.7644000053405762
0.442107582,0,0,1.213860273361206,0,0,0.152879998087883
0.442421469,0,0,1.213860273361206,0,0,0
0.442755134,0,0,1.2761094570159912,0,0,1.1466000080108643
0.443094466,0,0,1.2761094570159912,0,0,0.305759996175766
0.443421464,0,0,1.2761094570159912,0,0,1.452359914779663
0.443777036,0,0,1.2761094570159912,0,0,1.758120059967041
0.444088608,0,0,1.2761094570159912,0,0,0.9172800183296204
0.444424051,0,0,1.2761094570159912,0,0,0.611519992351532
0.444758012,0,0,1.2761094570159912,0,0,0.7644000053405762
0.445113417,0,0,1.2042834758758545,0,0,0.6879600286483765
0.445420656,0,0,1.2042834758758545,0,0,0.4586400091648102
0.445801932,0,0,1.2042834758758545,0,0,0.611519992351532
0.446088856,0,0,1.2042834758758545,0,0,1.070159912109375
0.446421669,0,0,1.2042834758758545,0,0,0.6879600286483765
0.446777519,0,0,1.2042834758758545,0,0,0.9172800183296204
0.447088406,0,0,1.2042834758758545,0,0,1.2994799613952637
0.447421256,0,0,1.3551181554794312,0,0,0.8408399820327759
0.447770828,0,0,1.3551181554794312,0,0,0.8408399820327759
0.448087955,0,0,1.3551181554794312,0,0,0.7644000053405762
0.448421102,0,0,1.3551181554794312,0,0,0.4586400091648102
0.44875847,0,0,1.3551181554794312,0,0,0.6879600286483765
0.449088394,0,0,1.3551181554794312,0,0,0.9172800183296204
0.449446559,0,0,1.3551181554794312,0,0,0.611519992351532
0.449754724,0,0,1.3551181554794312,0,0,0.9172800183296204
0.450106481,0,0,1.5203180313110352,0,0,0.611519992351532
0.450445201,0,0,1.5203180313110352,0,0,1.2994799613952637
0.450755014,0,0,1.5203180313110352,0,0,0.9172800183296204
0.451087883,0,0,1.5203180313110352,0,0,0.5350799560546875
0.451447233,0,0,1.5203180313110352,0,0,1.2994799613952637
0.451754972,0,0,1.5203180313110352,0,0,1.1466000080108643
0.45208797,0,0,1.5203180313110352,0,0,1.223039984703064
0.452436708,0,0,1.4652514457702637,0,0,0.305759996175766
0.45275454,0,0,1.4652514457702637,0,0,0.9172800183296204
0.453087797,0,0,1.4652514457702637,0,0,0.2293200045824051
0.453445573,0,0,1.4652514457702637,0,0,2.2167599201202393
0.453753219,0,0,1.4652514457702637,0,0,0.2293200045824051
0.454091866,0,0,1.4652514457702637,0,0,1.1466000080108643
0.45442003,0,0,1.4652514457702637,0,0,1.1466000080108643
0.45475601,0,0,1.3766659498214722,0,0,1.8345600366592407
0.455095712,0,0,1.3766659498214722,0,0,1.758120059967041
0.455420006,0,0,1.3766659498214722,0,0,0.9172800183296204
0.4557758,0,0,1.3766659498214722,0,0,0.5350799560546875
0.456086873,0,0,1.3766659498214722,0,0,1.070159912109375
0.456420352,0,0,1.3766659498214722,0,0,0.611519992351532
0.456770387,0,0,1.3766659498214722,0,0,0.6879600286483765
0.457086497,0,0,1.357512354850769,0,0,0.5350799560546875
0.457445643,0,0,1.357512354850769,0,0,0.7644000053405762
0.457753048,0,0,1.357512354850769,0,0,0.9172800183296204
0.458060954,0,0,1.357512354850769,0,0,0.8408399820327759
0.458445507,0,0,1.357512354850769,0,0,0.6879600286483765
0.45875482,0,0,1.357512354850769,0,0,0.8408399820327759
0.459088078,0,0,1.357512354850769,0,0,0.7644000053405762
0.459432057,0,0,1.2545616626739502,0,0,0.7644000053405762
0.459754907,0,0,1.2545616626739502,0,0,0.5350799560546875
0.460112757,0,0,1.2545616626739502,0,0,0.611519992351532
0.460420755,0,0,1.2545616626739502,0,0,1.1466000080108643
0.460754642,0,0,1.2545616626739502,0,0,0.8408399820327759
0.461109566,0,0,1.2545616626739502,0,0,1.1466000080108643
0.46142149,0,0,1.2545616626739502,0,0,0.9172800183296204
0.461754525,0,0,1.1803414821624756,0,0,0.9172800183296204
0.462105023,0,0,1.1803414821624756,0,0,0.4586400091648102
0.462421336,0,0,1.1803414821624756,0,0,0.3822000026702881
0.462754927,0,0,1.1803414821624756,0,0,0.5350799560546875
0.463111499,0,0,1.1803414821624756,0,0,0.9172800183296204
0.463421238,0,0,1.1803414821624756,0,0,1.223039984703064
0.463778458,0,0,1.1803414821624756,0,0,0.611519992351532
0.464088197,0,0,1.3287819623947144,0,0,1.223039984703064
0.464421436,0,0,1.3287819623947144,0,0,1.070159912109375
0.46477123,0,0,1.3287819623947144,0,0,0.0764399990439415
0.465090451,0,0,1.3287819623947144,0,0,0.3822000026702881
0.465421375,0,0,1.3287819623947144,0,0,0
0.465778132,0,0,1.3287819623947144,0,0,0.305759996175766
0.466088853,0,0,1.3287819623947144,0,0,0.2293200045824051
0.466444869,0,0,1.2689268589019775,0,0,-0.3822000026702881
0.466754626,0,0,1.2689268589019775,0,0,0.9172800183296204
0.467088032,0,0,1.2689268589019775,0,0,1.605239987373352
0.467437252,0,0,1.2689268589019775,0,0,0.8408399820327759
0.467754806,0,0,1.2689268589019775,0,0,0.3822000026702881
0.468088063,0,0,1.2689268589019775,0,0,0.6879600286483765
0.468425247,0,0,1.2689268589019775,0,0,0.8408399820327759
0.468754856,0,0,1.2737152576446533,0,0,0.611519992351532
0.469113057,0,0,1.2737152576446533,0,0,0.6879600286483765
0.469421685,0,0,1.2737152576446533,0,0,0.9172800183296204
0.469755554,0,0,1.2737152576446533,0,0,0.611519992351532
0.470097422,0,0,1.2737152576446533,0,0,0.7644000053405762
0.470423883,0,0,1.2737152576446533,0,0,0.8408399820327759
0.470753511,0,0,1.2737152576446533,0,0,0.6879600286483765
0.471106898,0,0,1.2737152576446533,0,0,0.6879600286483765
0.471420433,0,0,1.3551181554794312,0,0,0.7644000053405762
0.471753394,0,0,1.3551181554794312,0,0,0.7644000053405762
0.472110503,0,0,1.3551181554794312,0,0,0.7644000053405762
0.472420076,0,0,1.3551181554794312,0,0,1.223039984703064
0.472776851,0,0,1.3551181554794312,0,0,0.6879600286483765
0.473086924,0,0,1.3551181554794312,0,0,0.8408399820327759
0.473420033,0,0,1.3551181554794312,0,0,0.7644000053405762
0.473761494,0,0,1.455674648284912,0,0,0.5350799560546875
0.474071992,0,0,1.455674648284912,0,0,1.223039984703064
0.47444712,0,0,1.455674648284912,0,0,0.5350799560546875
0.474754766,0,0,1.455674648284912,0,0,0.611519992351532
0.475087857,0,0,1.455674648284912,0,0,0.7644000053405762
0.475447355,0,0,1.455674648284912,0,0,0.2293200045824051
0.475773649,0,0,1.455674648284912,0,0,1.070159912109375
0.476088499,0,0,1.4317326545715332,0,0,1.2994799613952637
0.476421293,0,0,1.4317326545715332,0,0,1.070159912109375
0.476780458,0,0,1.4317326545715332,0,0,1.223039984703064
0.477087882,0,0,1.4317326545715332,0,0,0.9172800183296204
0.477444639,0,0,1.4317326545715332,0,0,0.0764399990439415
0.477754804,0,0,1.4317326545715332,0,0,9.478560447692871
0.478089173,0,0,1.4317326545715332,0,0,0
0.478437689,0,0,1.4460978507995605,0,0,0.2293200045824051
0.478754706,0,0,1.4460978507995605,0,0,1.6816799640655518
0.479087834,0,0,1.4460978507995605,0,0,1.5288000106811523
0.479445035,0,0,1.4460978507995605,0,0,0.9172800183296204
0.479754515,0,0,1.4460978507995605,0,0,0.9172800183296204
0.48011142,0,0,1.4460978507995605,0,0,0.8408399820327759
0.480421474,0,0,1.4460978507995605,0,0,0.7644000053405762
0.480754528,0,0,1.4915876388549805,0,0,0.6879600286483765
0.481103804,0,0,1.4915876388549805,0,0,0.7644000053405762
0.481421413,0,0,1.4915876388549805,0,0,1.1466000080108643
0.481754504,0,0,1.4915876388549805,0,0,1.1466000080108643
0.482111316,0,0,1.4915876388549805,0,0,0.9172800183296204
0.482421148,0,0,1.4915876388549805,0,0,0.9172800183296204
0.482780313,0,0,1.4915876388549805,0,0,0.7644000053405762
0.483087996,0,0,1.5131354331970215,0,0,0.4586400091648102
0.483421124,0,0,1.5131354331970215,0,0,0.6879600286483765
0.4837709,0,0,1.5131354331970215,0,0,1.070159912109375
0.484088009,0,0,1.5131354331970215,0,0,0.6879600286483765
0.484421155,0,0,1.5131354331970215,0,0,0.8408399820327759
0.484791746,0,0,1.5131354331970215,0,0,1.070159912109375
0.485087836,0,0,1.5131354331970215,0,0,0.6879600286483765
0.485444742,0,0,1.5131354331970215,0,0,1.070159912109375
0.48575724,0,0,1.2617442607879639,0,0,0.7644000053405762
0.486088794,0,0,1.2617442607879639,0,0,0.4586400091648102
0.486438569,0,0,1.2617442607879639,0,0,0.6879600286483765
0.486754586,0,0,1.2617442607879639,0,0,0.8408399820327759
0.487087658,0,0,1.2617442607879639,0,0,0.8408399820327759
0.487425008,0,0,1.2617442607879639,0,0,0
0.487754488,0,0,1.2617442607879639,0,0,1.1466000080108643
0.488113023,0,0,1.2449848651885986,0,0,0.5350799560546875
0.488421428,0,0,1.2449848651885986,0,0,0.4586400091648102
0.488754427,0,0,1.2449848651885986,0,0,0.0764399990439415
0.489110332,0,0,1.2449848651885986,0,0,0.2293200045824051
0.489421238,0,0,1.2449848651885986,0,0,0.7644000053405762
0.489754384,0,0,1.2449848651885986,0,0,0.9937199950218201
0.490100919,0,0,1.3024457693099976,0,0,9.631440162658691
0.490427898,0,0,1.3024457693099976,0,0,0.0764399990439415
0.490788156,0,0,1.3024457693099976,0,0,1.223039984703064
0.491105617,0,0,1.3024457693099976,0,0,1.375920057296753
0.491421411,0,0,1.3024457693099976,0,0,0.152879998087883
0.491779317,0,0,1.3024457693099976,0,0,9.478560447692871
0.49208763,0,0,1.1851298809051514,0,0,0.5350799560546875
0.492421387,0,0,1.1851298809051514,0,0,1.070159912109375
0.492776052,0,0,1.1851298809051514,0,0,1.070159912109375
0.493088235,0,0,1.1851298809051514,0,0,0.9172800183296204
0.493421196,0,0,1.1851298809051514,0,0,0.9172800183296204
0.493769861,0,0,1.1851298809051514,0,0,0.611519992351532
0.494075766,0,0,1.1851298809051514,0,0,0.9937199950218201
0.494421524,0,0,1.3192051649093628,0,0,0.9172800183296204
0.494774522,0,0,1.3192051649093628,0,0,0.8408399820327759
0.495103409,0,0,1.3192051649093628,0,0,0.5350799560546875
0.495421537,0,0,1.3192051649093628,0,0,0.9172800183296204
0.495764683,0,0,1.3192051649093628,0,0,0.9937199950218201
0.496092496,0,0,1.3192051649093628,0,0,0.7644000053405762
0.496446808,0,0,1.3192051649093628,0,0,1.452359914779663
0.496754362,0,0,1.3192051649093628,0,0,0.611519992351532
0.49708786,0,0,1.3623007535934448,0,0,0.5350799560546875
0.497450914,0,0,1.3623007535934448,0,0,0.8408399820327759
0.497760542,0,0,1.3623007535934448,0,0,0.5350799560546875
0.499539661,0,0,1.3623007535934448,0,0,9.478560447692871
0.499563217,0,0,1.3623007535934448,0,0,9.478560447692871
0.499586124,0,0,1.4269442558288574,0,0,9.478560447692871
0.499608883,0,0,1.4269442558288574,0,0,9.478560447692871
0.499631827,0,0,1.4269442558288574,0,0,9.478560447692871
0.499757882,0,0,1.4269442558288574,0,0,0.4586400091648102
0.500088065,0,0,1.4269442558288574,0,0,0.4586400091648102
0.505463516,0,0,1.4269442558288574,0,0,0.611519992351532
0.505511849,0,0,1.4269442558288574,0,0,0.611519992351532
0.50553496,0,0,1.434126853942871,0,0,0.611519992351532
0.505557867,0,0,1.434126853942871,0,0,0.611519992351532
0.505580664,0,0,1.434126853942871,0,0,0.611519992351532
0.505603497,0,0,1.434126853942871,0,0,0.611519992351532
0.505626237,0,0,1.434126853942871,0,0,0.611519992351532
0.505649089,0,0,1.434126853942871,0,0,0.611519992351532
0.505671811,0,0,1.434126853942871,0,0,0.611519992351532
0.505694552,0,0,1.3910311460494995,0,0,0.611519992351532
0.505717348,0,0,1.3910311460494995,0,0,1.375920057296753
0.505740052,0,0,1.3910311460494995,0,0,1.375920057296753
0.50577207,0,0,1.3910311460494995,0,0,1.375920057296753
0.505795644,0,0,1.3910311460494995,0,0,1.375920057296753
0.505818384,0,0,1.3910311460494995,0,0,1.375920057296753
0.505840903,0,0,1.3910311460494995,0,0,1.375920057296753
0.505863495,0,0,1.4628572463989258,0,0,0.611519992351532
0.506098827,0,0,1.4628572463989258,0,0,0.6879600286483765
0.506436677,0,0,1.4628572463989258,0,0,0.8408399820327759
0.506762138,0,0,1.4628572463989258,0,0,0.5350799560546875
0.50708884,0,0,1.4628572463989258,0,0,0.6879600286483765
0.50741982,0,0,1.4628572463989258,0,0,0.8408399820327759
0.50775417,0,0,1.4628572463989258,0,0,0.6879600286483765
0.508088853,0,0,1.3335703611373901,0,0,0.7644000053405762
0.508752442,0,0,1.3335703611373901,0,0,0.7644000053405762
0.508775886,0,0,1.3335703611373901,0,0,0.8408399820327759
0.509091107,0,0,1.3335703611373901,0,0,0.9172800183296204
0.509418994,0,0,1.3335703611373901,0,0,0.8408399820327759
0.509753121,0,0,1.3335703611373901,0,0,1.223039984703064
0.510066564,0,0,1.3335703611373901,0,0,0.8408399820327759
0.510419136,0,0,1.2497732639312744,0,0,0.7644000053405762
0.510752597,0,0,1.2497732639312744,0,0,0.611519992351532
0.511085725,0,0,1.2497732639312744,0,0,0.6879600286483765
0.511418982,0,0,1.2497732639312744,0,0,0.305759996175766
0.511752814,0,0,1.2497732639312744,0,0,0.5350799560546875
0.512085404,0,0,1.2497732639312744,0,0,1.223039984703064
0.512418847,0,0,1.2497732639312744,0,0,1.1466000080108643
0.512752419,0,0,1.2497732639312744,0,0,1.1466000080108643
0.513085417,0,0,1.3335703611373901,0,0,1.223039984703064
0.513418767,0,0,1.3335703611373901,0,0,1.070159912109375
0.51375258,0,0,1.3335703611373901,0,0,0.3822000026702881
0.514049041,0,0,1.3335703611373901,0,0,1.375920057296753
0.514419002,0,0,1.3335703611373901,0,0,0
0.514752815,0,0,1.3335703611373901,0,0,0.152879998087883
0.515085498,0,0,1.3335703611373901,0,0,1.6816799640655518
0.515418626,0,0,1.2665326595306396,0,0,1.1466000080108643
0.515752031,0,0,1.2665326595306396,0,0,2.14031982421875
0.516085548,0,0,1.2665326595306396,0,0,1.9109998941421509
0.51641875,0,0,1.2665326595306396,0,0,0.5350799560546875
0.516757822,0,0,1.2665326595306396,0,0,0.7644000053405762
0.517086357,0,0,1.2665326595306396,0,0,0.7644000053405762
0.517419096,0,0,1.2665326595306396,0,0,0.4586400091648102
0.517751872,0,0,1.2018892765045166,0,0,0.9172800183296204
0.518053407,0,0,1.2018892765045166,0,0,1.070159912109375
0.518419016,0,0,1.2018892765045166,0,0,0.5350799560546875
0.518752125,0,0,1.2018892765045166,0,0,0.611519992351532
0.519085994,0,0,1.2018892765045166,0,0,0.6879600286483765
0.519418788,0,0,1.2018892765045166,0,0,0.6879600286483765
0.519752101,0,0,1.2018892765045166,0,0,0.611519992351532
0.52008597,0,0,1.316810965538025,0,0,0.8408399820327759
0.520420968,0,0,1.316810965538025,0,0,0.5350799560546875
0.520756669,0,0,1.316810965538025,0,0,0.4586400091648102
0.521086075,0,0,1.316810965538025,0,0,0.7644000053405762
0.521418925,0,0,1.316810965538025,0,0,0.8408399820327759
0.521751923,0,0,1.316810965538025,0,0,1.070159912109375
0.522063532,0,0,1.316810965538025,0,0,0.611519992351532
0.522421382,0,0,1.3096283674240112,0,0,0.9937199950218201
0.522753695,0,0,1.3096283674240112,0,0,0.4586400091648102
0.523086934,0,0,1.3096283674240112,0,0,0.8408399820327759
0.52342045,0,0,1.3096283674240112,0,0,0.5350799560546875
0.523754041,0,0,1.3096283674240112,0,0,0.152879998087883
0.524087058,0,0,1.3096283674240112,0,0,1.070159912109375
0.524420908,0,0,1.3096283674240112,0,0,1.1466000080108643
0.524753517,0,0,1.335964560508728,0,0,0.8408399820327759
0.525086737,0,0,1.335964560508728,0,0,1.452359914779663
0.525420865,0,0,1.335964560508728,0,0,1.6816799640655518
0.525766678,0,0,1.335964560508728,0,0,0.611519992351532
0.526087361,0,0,1.335964560508728,0,0,0.4586400091648102
0.526420748,0,0,1.335964560508728,0,0,0.611519992351532
0.526753746,0,0,1.335964560508728,0,0,9.631440162658691
0.52709317,0,0,1.5059528350830078,0,0,0
0.527420946,0,0,1.5059528350830078,0,0,1.452359914779663
0.527753703,0,0,1.5059528350830078,0,0,0.9172800183296204
0.528086664,0,0,1.5059528350830078,0,0,1.758120059967041
0.528420514,0,0,1.5059528350830078,0,0,0.9937199950218201
0.528753568,0,0,1.5059528350830078,0,0,0.7644000053405762
0.529086862,0,0,1.5059528350830078,0,0,0.8408399820327759
0.529420583,0,0,1.4101848602294922,0,0,0.5350799560546875
0.529753544,0,0,1.4101848602294922,0,0,0.4586400091648102
0.530086857,0,0,1.4101848602294922,0,0,0.7644000053405762
0.530420225,0,0,1.4101848602294922,0,0,0.6879600286483765
0.530753705,0,0,1.4101848602294922,0,0,0.8408399820327759
0.531086888,0,0,1.4101848602294922,0,0,0.8408399820327759
0.531420219,0,0,1.4101848602294922,0,0,0.7644000053405762
0.53175394,0,0,1.4413094520568848,0,0,0.4586400091648102
0.532086993,0,0,1.4413094520568848,0,0,0.3822000026702881
0.532420251,0,0,1.4413094520568848,0,0,0.5350799560546875
0.532753971,0,0,1.4413094520568848,0,0,0.4586400091648102
0.533086876,0,0,1.4413094520568848,0,0,0.5350799560546875
0.533419967,0,0,1.4413094520568848,0,0,0.9172800183296204
0.533753762,0,0,1.4413094520568848,0,0,1.070159912109375
0.534087037,0,0,1.4413094520568848,0,0,0.9937199950218201
0.534420184,0,0,1.3311761617660522,0,0,0.8408399820327759
0.534754071,0,0,1.3311761617660522,0,0,0.5350799560546875
0.535086884,0,0,1.3311761617660522,0,0,0.7644000053405762
0.535420104,0,0,1.3311761617660522,0,0,0.305759996175766
0.535754102,0,0,1.3311761617660522,0,0,0.3822000026702881
0.536086674,0,0,1.3311761617660522,0,0,1.070159912109375
0.536420117,0,0,1.3311761617660522,0,0,1.6816799640655518
0.536754059,0,0,1.316810965538025,0,0,1.375920057296753
0.537086779,0,0,1.316810965538025,0,0,0.611519992351532
0.537422518,0,0,1.316810965538025,0,0,0.2293200045824051
0.537753702,0,0,1.316810965538025,0,0,0.5350799560546875
0.538086996,0,0,1.316810965538025,0,0,0.3822000026702881
0.538420124,0,0,1.316810965538025,0,0,0
0.538753511,0,0,1.316810965538025,0,0,0.305759996175766
0.539087305,0,0,1.4245500564575195,0,0,1.6816799640655518
0.539420396,0,0,1.4245500564575195,0,0,2.2167599201202393
0.539753486,0,0,1.4245500564575195,0,0,1.9874399900436401
0.540087188,0,0,1.4245500564575195,0,0,1.5288000106811523
0.540420057,0,0,1.4245500564575195,0,0,0.8408399820327759
0.540753351,0,0,1.4245500564575195,0,0,0.6879600286483765
0.541087331,0,0,1.4245500564575195,0,0,0.8408399820327759
0.541420273,0,0,1.3311761617660522,0,0,0.8408399820327759
0.541753568,0,0,1.3311761617660522,0,0,0.7644000053405762
0.542087492,0,0,1.3311761617660522,0,0,0.9172800183296204
0.542420175,0,0,1.3311761617660522,0,0,0.8408399820327759
0.542753562,0,0,1.3311761617660522,0,0,0.4586400091648102
0.543087134,0,0,1.3311761617660522,0,0,0.7644000053405762
0.543420077,0,0,1.1683704853057861,0,0,0.6879600286483765
0.543753278,0,0,1.1683704853057861,0,0,0.611519992351532
0.544087165,0,0,1.1683704853057861,0,0,0.5350799560546875
0.544420126,0,0,1.1683704853057861,0,0,0.611519992351532
0.544753421,0,0,1.1683704853057861,0,0,1.1466000080108643
0.545086697,0,0,1.1683704853057861,0,0,0.9937199950218201
0.545423806,0,0,1.2282254695892334,0,0,0.7644000053405762
0.545753415,0,0,1.2282254695892334,0,0,0.9937199950218201
0.54608682,0,0,1.2282254695892334,0,0,0.5350799560546875
0.546420856,0,0,1.2282254695892334,0,0,0.3822000026702881
0.546753391,0,0,1.2282254695892334,0,0,0.611519992351532
0.54709887,0,0,1.2282254695892334,0,0,0.611519992351532
0.547421498,0,0,1.2282254695892334,0,0,0.611519992351532
0.5477562,0,0,1.2832920551300049,0,0,0.9172800183296204
0.548087457,0,0,1.2832920551300049,0,0,0.9937199950218201
0.5484214,0,0,1.2832920551300049,0,0,1.223039984703064
0.54875349,0,0,1.2832920551300049,0,0,1.070159912109375
0.549086822,0,0,1.2832920551300049,0,0,0.4586400091648102
0.549420598,0,0,1.2832920551300049,0,0,0.6879600286483765
0.549753559,0,0,1.2832920551300049,0,0,0
0.550087298,0,0,1.4652514457702637,0,0,0
0.550420925,0,0,1.4652514457702637,0,0,0.0764399990439415
0.55075359,0,0,1.4652514457702637,0,0,1.2994799613952637
0.551086829,0,0,1.4652514457702637,0,0,0.7644000053405762
0.551420494,0,0,1.4652514457702637,0,0,1.605239987373352
0.551753436,0,0,1.4652514457702637,0,0,1.605239987373352
0.552093749,0,0,1.4652514457702637,0,0,0.5350799560546875
0.552420506,0,0,1.5705963373184204,0,0,0.7644000053405762
0.552753912,0,0,1.5705963373184204,0,0,0.611519992351532
0.553086947,0,0,1.5705963373184204,0,0,0.6879600286483765
0.553420093,0,0,1.5705963373184204,0,0,0.4586400091648102
0.553753999,0,0,1.5705963373184204,0,0,0.9937199950218201
0.554086756,0,0,1.5705963373184204,0,0,0.611519992351532
0.55442005,0,0,1.5705963373184204,0,0,0.6879600286483765
0.554753993,0,0,1.5705963373184204,0,0,0.8408399820327759
0.555087028,0,0,1.4676456451416016,0,0,0.5350799560546875
0.555420193,0,0,1.4676456451416016,0,0,0.611519992351532
0.555757376,0,0,1.4676456451416016,0,0,0.9172800183296204
0.556086763,0,0,1.4676456451416016,0,0,0.305759996175766
0.556420206,0,0,1.4676456451416016,0,0,1.1466000080108643
0.556754,0,0,1.4676456451416016,0,0,0.7644000053405762
0.557086665,0,0,1.4676456451416016,0,0,0.9172800183296204
0.557420126,0,0,1.4915876388549805,0,0,0.9172800183296204
0.557754031,0,0,1.4915876388549805,0,0,0.9937199950218201
0.558090159,0,0,1.4915876388549805,0,0,0.7644000053405762
0.558420435,0,0,1.4915876388549805,0,0,0.7644000053405762
0.55875397,0,0,1.4915876388549805,0,0,0.611519992351532
0.55908669,0,0,1.4915876388549805,0,0,0.611519992351532
0.55942017,0,0,1.3239935636520386,0,0,1.2994799613952637
0.559753335,0,0,1.3239935636520386,0,0,1.2994799613952637
0.560087388,0,0,1.3239935636520386,0,0,0.8408399820327759
0.560419923,0,0,1.3239935636520386,0,0,0.8408399820327759
0.56075344,0,0,1.3239935636520386,0,0,0.305759996175766
0.561087086,0,0,1.3239935636520386,0,0,0.5350799560546875
0.561420177,0,0,1.3239935636520386,0,0,0.4586400091648102
0.561753342,0,0,1.1994950771331787,0,0,0.305759996175766
0.562087266,0,0,1.1994950771331787,0,0,0.0764399990439415
0.562420523,0,0,1.1994950771331787,0,0,0.9172800183296204
0.56275341,0,0,1.1994950771331787,0,0,1.6816799640655518
0.563087371,0,0,1.1994950771331787,0,0,1.758120059967041
0.563420184,0,0,1.1994950771331787,0,0,0.611519992351532
0.563753478,0,0,1.1994950771331787,0,0,0.2293200045824051
0.564087291,0,0,1.2665326595306396,0,0,0.7644000053405762
0.564420234,0,0,1.2665326595306396,0,0,0.611519992351532
0.564753269,0,0,1.2665326595306396,0,0,0.4586400091648102
0.565087286,0,0,1.2665326595306396,0,0,0.8408399820327759
0.565420191,0,0,1.2665326595306396,0,0,0.7644000053405762
0.565753356,0,0,1.2665326595306396,0,0,0.9172800183296204
0.566087947,0,0,1.2665326595306396,0,0,1.1466000080108643
0.566420074,0,0,1.1276689767837524,0,0,0.6879600286483765
0.566753998,0,0,1.1276689767837524,0,0,0.8408399820327759
0.567086959,0,0,1.1276689767837524,0,0,0.8408399820327759
0.567420772,0,0,1.1276689767837524,0,0,0.7644000053405762
0.567753326,0,0,1.1276689767837524,0,0,0.8408399820327759
0.568086713,0,0,1.1276689767837524,0,0,0.9172800183296204
0.568435729,0,0,1.1276689767837524,0,0,1.1466000080108643
0.568754394,0,0,1.290474772453308,0,0,1.070159912109375
0.569086781,0,0,1.290474772453308,0,0,0.8408399820327759
0.569420539,0,0,1.290474772453308,0,0,0.7644000053405762
0.569753889,0,0,1.290474772453308,0,0,0.611519992351532
0.570091035,0,0,1.290474772453308,0,0,0.6879600286483765
0.570420422,0,0,1.290474772453308,0,0,0.3822000026702881
0.570753438,0,0,1.290474772453308,0,0,0.5350799560546875
0.571086696,0,0,1.290474772453308,0,0,1.070159912109375
0.571420601,0,0,1.3646949529647827,0,0,0.9937199950218201
0.571753396,0,0,1.3646949529647827,0,0,1.5288000106811523
0.572086671,0,0,1.3646949529647827,0,0,1.223039984703064
0.57242054,0,0,1.3646949529647827,0,0,0.611519992351532
0.572753705,0,0,1.3646949529647827,0,0,0.5350799560546875
0.573086758,0,0,1.3646949529647827,0,0,0.305759996175766
0.573420034,0,0,1.3646949529647827,0,0,0
0.573753403,0,0,1.455674648284912,0,0,0.3822000026702881
0.574087678,0,0,1.455674648284912,0,0,0.3822000026702881
0.574420177,0,0,1.455674648284912,0,0,0.9172800183296204
0.574753878,0,0,1.455674648284912,0,0,2.14031982421875
0.575086784,0,0,1.455674648284912,0,0,1.223039984703064
0.575419986,0,0,1.455674648284912,0,0,-29.582279205322266
0.575754187,0,0,1.455674648284912,0,0,9.478560447692871
0.576086945,0,0,1.455674648284912,0,0,0.4586400091648102
0.576420073,0,0,1.455674648284912,0,0,0.611519992351532
0.576753774,0,0,1.455674648284912,0,0,0.6879600286483765
0.577086902,0,0,1.455674648284912,0,0,0.5350799560546875
0.577420382,0,0,1.455674648284912,0,0,0.6879600286483765
0.577753806,0,0,1.455674648284912,0,0,0.9172800183296204
0.578086693,0,0,1.3527239561080933,0,0,0.611519992351532
0.578420154,0,0,1.3527239561080933,0,0,0.6879600286483765
0.578757374,0,0,1.3527239561080933,0,0,0.5350799560546875
0.579086983,0,0,1.3527239561080933,0,0,0.7644000053405762
0.579419889,0,0,1.3527239561080933,0,0,0.8408399820327759
0.57975385,0,0,1.3527239561080933,0,0,1.070159912109375
0.580086885,0,0,1.3527239561080933,0,0,0.7644000053405762
0.580420124,0,0,1.3407529592514038,0,0,0.9172800183296204
0.580753381,0,0,1.3407529592514038,0,0,0.9937199950218201
0.581086842,0,0,1.3407529592514038,0,0,1.070159912109375
0.581420211,0,0,1.3407529592514038,0,0,0.9172800183296204
0.58175332,0,0,1.3407529592514038,0,0,0.7644000053405762
0.582088336,0,0,1.3407529592514038,0,0,0.611519992351532
0.582420038,0,0,1.3407529592514038,0,0,0.4586400091648102
0.582753203,0,0,1.455674648284912,0,0,0.611519992351532
0.583087201,0,0,1.455674648284912,0,0,0.611519992351532
0.583420069,0,0,1.455674648284912,0,0,0.611519992351532
0.583753512,0,0,1.455674648284912,0,0,0.7644000053405762
0.584087436,0,0,1.455674648284912,0,0,1.070159912109375
0.584420064,0,0,1.455674648284912,0,0,0.305759996175766
0.584753451,0,0,1.455674648284912,0,0,0.611519992351532
0.585087245,0,0,1.403002142906189,0,0,0.9937199950218201
0.585420095,0,0,1.403002142906189,0,0,-29.582279205322266
0.585753482,0,0,1.403002142906189,0,0,0
0.586087258,0,0,1.403002142906189,0,0,0.9937199950218201
0.586420145,0,0,1.403002142906189,0,0,1.5288000106811523
0.586753458,0,0,1.403002142906189,0,0,1.6816799640655518
0.587087085,0,0,1.403002142906189,0,0,1.6816799640655518
0.587420158,0,0,1.403002142906189,0,0,0.0764399990439415
0.587753489,0,0,1.400607943534851,0,0,0.2293200045824051
0.588086635,0,0,1.400607943534851,0,0,9.325679779052734
0.588420059,0,0,1.400607943534851,0,0,0.611519992351532
0.588753557,0,0,1.400607943534851,0,0,0.8408399820327759
0.589089222,0,0,1.400607943534851,0,0,0.7644000053405762
0.589420776,0,0,1.400607943534851,0,0,0.6879600286483765
0.589760329,0,0,1.400607943534851,0,0,0.7644000053405762
0.590087216,0,0,1.2425906658172607,0,0,1.1466000080108643
0.590420603,0,0,1.2425906658172607,0,0,0.6879600286483765
0.590753398,0,0,1.2425906658172607,0,0,0.9937199950218201
0.591086766,0,0,1.2425906658172607,0,0,0.6879600286483765
0.591420468,0,0,1.2425906658172607,0,0,0.9172800183296204
0.591753262,0,0,1.2425906658172607,0,0,0.9172800183296204
0.592086909,0,0,1.2425906658172607,0,0,0.9172800183296204
0.592420647,0,0,1.2401964664459229,0,0,0.6879600286483765
0.592753534,0,0,1.2401964664459229,0,0,1.1466000080108643
0.593086755,0,0,1.2401964664459229,0,0,0.9937199950218201
0.593420568,0,0,1.2401964664459229,0,0,0.611519992351532
0.593753232,0,0,1.2401964664459229,0,0,0.5350799560546875
0.594087638,0,0,1.2401964664459229,0,0,0.611519992351532
0.594420562,0,0,1.2401964664459229,0,0,0.305759996175766
0.594753227,0,0,1.2665326595306396,0,0,0.7644000053405762
0.595086854,0,0,1.2665326595306396,0,0,0.9172800183296204
0.595420056,0,0,1.2665326595306396,0,0,1.070159912109375
0.595753295,0,0,1.2665326595306396,0,0,1.1466000080108643
0.596086682,0,0,1.2665326595306396,0,0,1.1466000080108643
0.596420199,0,0,1.2665326595306396,0,0,0.4586400091648102
0.596753956,0,0,1.2665326595306396,0,0,0.4586400091648102
0.597086658,0,0,1.2497732639312744,0,0,0.0764399990439415
0.597420119,0,0,1.2497732639312744,0,0,0
0.597753858,0,0,1.2497732639312744,0,0,0.9937199950218201
0.598086763,0,0,1.2497732639312744,0,0,0.9172800183296204
0.598419946,0,0,1.2497732639312744,0,0,1.5288000106811523
0.598753759,0,0,1.2497732639312744,0,0,1.375920057296753
0.599086739,0,0,1.2497732639312744,0,0,0.2293200045824051
0.599422144,0,0,1.3886369466781616,0,0,0.305759996175766
0.599754124,0,0,1.3886369466781616,0,0,0.4586400091648102
0.600086715,0,0,1.3886369466781616,0,0,9.325679779052734
0.600419953,0,0,1.3886369466781616,0,0,0.7644000053405762
0.600753859,0,0,1.3886369466781616,0,0,0.8408399820327759
0.601086783,0,0,1.3886369466781616,0,0,0.9172800183296204
0.601420707,0,0,1.3886369466781616,0,0,0.8408399820327759
0.601754038,0,0,1.4317326545715332,0,0,0.9937199950218201
0.602086555,0,0,1.4317326545715332,0,0,1.1466000080108643
0.602420072,0,0,1.4317326545715332,0,0,0.8408399820327759
0.602753403,0,0,1.4317326545715332,0,0,0.6879600286483765
0.603087179,0,0,1.4317326545715332,0,0,0.611519992351532
0.603420103,0,0,1.4317326545715332,0,0,0.611519992351532
0.603753397,0,0,1.4317326545715332,0,0,0.9172800183296204
0.60408771,0,0,1.4317326545715332,0,0,0.9172800183296204
0.604420116,0,0,1.4724340438842773,0,0,0.9937199950218201
0.604753355,0,0,1.4724340438842773,0,0,0.611519992351532
0.605087316,0,0,1.4724340438842773,0,0,0.4586400091648102
0.605420054,0,0,1.4724340438842773,0,0,0.5350799560546875
0.605753386,0,0,1.4724340438842773,0,0,0.3822000026702881
0.606088217,0,0,1.5442601442337036,0,0,0.6879600286483765
0.606419975,0,0,1.5442601442337036,0,0,0.9937199950218201
0.606753399,0,0,1.5442601442337036,0,0,0.9937199950218201
0.607087137,0,0,1.5442601442337036,0,0,0.9937199950218201
0.607420173,0,0,1.5442601442337036,0,0,1.070159912109375
0.607753356,0,0,1.5442601442337036,0,0,0.2293200045824051
0.608087187,0,0,1.5442601442337036,0,0,0.3822000026702881
0.608420093,0,0,1.3742717504501343,0,0,0.611519992351532
0.608753424,0,0,1.3742717504501343,0,0,0.2293200045824051
0.609094348,0,0,1.3742717504501343,0,0,0.4586400091648102
0.60942042,0,0,1.3742717504501343,0,0,0.305759996175766
0.609755567,0,0,1.3742717504501343,0,0,0.7644000053405762
0.610087324,0,0,1.3742717504501343,0,0,1.758120059967041
0.610420878,0,0,1.3742717504501343,0,0,1.9874399900436401
0.610753487,0,0,1.2497732639312744,0,0,0
0.611093003,0,0,1.2497732639312744,0,0,0.0764399990439415
0.611420705,0,0,1.2497732639312744,0,0,0.3822000026702881
0.611753333,0,0,1.2497732639312744,0,0,9.096360206604004
0.612086609,0,0,1.2497732639312744,0,0,0.152879998087883
0.612420699,0,0,1.2497732639312744,0,0,0.7644000053405762
0.61275329,0,0,1.2497732639312744,0,0,0.9172800183296204
0.613086733,0,0,1.2880805730819702,0,0,0.6879600286483765
0.613729914,0,0,1.2880805730819702,0,0,0.9172800183296204
0.613753173,0,0,1.2880805730819702,0,0,0.8408399820327759
0.614103856,0,0,1.2880805730819702,0,0,0.7644000053405762
0.614443743,0,0,1.2880805730819702,0,0,0.6879600286483765
0.614754408,0,0,1.2880805730819702,0,0,0.8408399820327759
0.615092351,0,0,1.2880805730819702,0,0,0.9172800183296204
0.615428664,0,0,1.2761094570159912,0,0,0.9172800183296204
0.615765291,0,0,1.2761094570159912,0,0,0.3822000026702881
0.616107419,0,0,1.2761094570159912,0,0,0.6879600286483765
0.616427473,0,0,1.2761094570159912,0,0,0.5350799560546875
0.616760249,0,0,1.2761094570159912,0,0,0.611519992351532
0.617086691,0,0,1.2761094570159912,0,0,0.611519992351532
0.61742506,0,0,1.2761094570159912,0,0,0.8408399820327759
0.617755261,0,0,1.2497732639312744,0,0,0.4586400091648102
0.61806976,0,0,1.2497732639312744,0,0,0.305759996175766
0.618476794,0,0,1.2497732639312744,0,0,0.5350799560546875
0.618761274,0,0,1.2497732639312744,0,0,0.5350799560546875
0.619088272,0,0,1.2497732639312744,0,0,0.8408399820327759
0.619422789,0,0,1.2497732639312744,0,0,0.9172800183296204
0.619761398,0,0,1.2497732639312744,0,0,0.9172800183296204
0.62055756,0,0,1.3024457693099976,0,0,0.9172800183296204
0.620581116,0,0,1.3024457693099976,0,0,0.9172800183296204
0.620756467,0,0,1.3024457693099976,0,0,0.6879600286483765
0.621104853,0,0,1.3024457693099976,0,0,1.223039984703064
0.621421352,0,0,1.3024457693099976,0,0,1.223039984703064
0.621754516,0,0,1.3024457693099976,0,0,0.8408399820327759
0.622153125,0,0,1.3024457693099976,0,0,0.611519992351532
0.62243579,0,0,1.2665326595306396,0,0,0.152879998087883
0.622771362,0,0,1.2665326595306396,0,0,0.0764399990439415
0.623092564,0,0,1.2665326595306396,0,0,1.070159912109375
0.623427803,0,0,1.2665326595306396,0,0,1.375920057296753
0.623757134,0,0,1.2665326595306396,0,0,1.6816799640655518
0.624088484,0,0,1.2665326595306396,0,0,0.8408399820327759
0.624434223,0,0,1.2665326595306396,0,0,0.8408399820327759
0.624755314,0,0,1.5083470344543457,0,0,0.8408399820327759
0.625088108,0,0,1.5083470344543457,0,0,1.223039984703064
0.625427236,0,0,1.5083470344543457,0,0,0.9937199950218201
0.625754734,0,0,1.5083470344543457,0,0,0.6879600286483765
0.626095121,0,0,1.5083470344543457,0,0,0.7644000053405762
0.626428564,0,0,1.5083470344543457,0,0,0.9172800183296204
0.62675471,0,0,1.5083470344543457,0,0,0.9172800183296204
0.627090226,0,0,1.4844050407409668,0,0,0.9937199950218201
0.627423076,0,0,1.4844050407409668,0,0,0.6879600286483765
0.627754667,0,0,1.4844050407409668,0,0,0.6879600286483765
0.628091332,0,0,1.4844050407409668,0,0,0.9937199950218201
0.628425348,0,0,1.4844050407409668,0,0,1.070159912109375
0.628754884,0,0,1.4844050407409668,0,0,0.8408399820327759
0.629093122,0,0,1.4844050407409668,0,0,0.3822000026702881
0.629428324,0,0,1.4844050407409668,0,0,0.8408399820327759
0.629754711,0,0,1.4245500564575195,0,0,0.5350799560546875
0.63009058,0,0,1.4245500564575195,0,0,0.6879600286483765
0.630425596,0,0,1.4245500564575195,0,0,0.611519992351532
0.630754687,0,0,1.4245500564575195,0,0,1.223039984703064
0.631091907,0,0,1.4245500564575195,0,0,0.611519992351532
0.631425591,0,0,1.4245500564575195,0,0,0.8408399820327759
0.631754644,0,0,1.4245500564575195,0,0,0.5350799560546875
0.632093142,0,0,1.522712230682373,0,0,0.9937199950218201
0.632442029,0,0,1.522712230682373,0,0,0.9172800183296204
0.632754638,0,0,1.522712230682373,0,0,0.5350799560546875
0.633090877,0,0,1.522712230682373,0,0,0.6879600286483765
0.633424394,0,0,1.522712230682373,0,0,0.305759996175766
0.633754836,0,0,1.522712230682373,0,0,1.8345600366592407
0.634094131,0,0,1.522712230682373,0,0,0.3822000026702881
0.634425388,0,0,1.4676456451416016,0,0,1.070159912109375
0.634753053,0,0,1.4676456451416016,0,0,0.2293200045824051
0.635091995,0,0,1.4676456451416016,0,0,1.6816799640655518
0.635421753,0,0,1.4676456451416016,0,0,0
0.635753177,0,0,1.4676456451416016,0,0,1.2994799613952637
0.636091453,0,0,1.4676456451416016,0,0,-29.582279205322266
0.636421654,0,0,1.4676456451416016,0,0,1.8345600366592407
0.636753504,0,0,1.3431471586227417,0,0,1.070159912109375
0.63709128,0,0,1.3431471586227417,0,0,1.070159912109375
0.637421575,0,0,1.3431471586227417,0,0,0.611519992351532
0.637753073,0,0,1.3431471586227417,0,0,0.4586400091648102
0.638061275,0,0,1.3431471586227417,0,0,0.4586400091648102
0.63842105,0,0,1.3431471586227417,0,0,0.5350799560546875
0.638754215,0,0,1.3431471586227417,0,0,0.8408399820327759
0.639091491,0,0,1.280897855758667,0,0,0.7644000053405762
0.639424859,0,0,1.280897855758667,0,0,0.5350799560546875
0.639756006,0,0,1.280897855758667,0,0,0.3822000026702881
0.640087763,0,0,1.280897855758667,0,0,0.4586400091648102
0.640421909,0,0,1.280897855758667,0,0,0.4586400091648102
0.640757574,0,0,1.280897855758667,0,0,0.7644000053405762
0.641087868,0,0,1.280897855758667,0,0,0.4586400091648102
0.641424033,0,0,1.2449848651885986,0,0,0.8408399820327759
0.641757735,0,0,1.2449848651885986,0,0,1.070159912109375
0.642049567,0,0,1.2449848651885986,0,0,0.5350799560546875
0.642426139,0,0,1.2449848651885986,0,0,0.5350799560546875
0.642761563,0,0,1.2449848651885986,0,0,0.4586400091648102
0.643087709,0,0,1.2449848651885986,0,0,0.0764399990439415
0.643423374,0,0,1.2449848651885986,0,0,0.611519992351532
0.643755835,0,0,1.2330138683319092,0,0,0.6879600286483765
0.64408824,0,0,1.2330138683319092,0,0,0.305759996175766
0.644424386,0,0,1.2330138683319092,0,0,0.7644000053405762
0.644757903,0,0,1.2330138683319092,0,0,0.4586400091648102
0.645087734,0,0,1.2330138683319092,0,0,0.9937199950218201
0.645426177,0,0,1.2330138683319092,0,0,0.4586400091648102
0.645759768,0,0,1.2330138683319092,0,0,0.305759996175766
0.64605421,0,0,1.2617442607879639,0,0,0.305759996175766
0.64642306,0,0,1.2617442607879639,0,0,0.3822000026702881
0.646755873,0,0,1.2617442607879639,0,0,0.7644000053405762
0.647087612,0,0,1.2617442607879639,0,0,9.478560447692871
0.647426147,0,0,1.2617442607879639,0,0,0.6879600286483765
0.647760219,0,0,1.2617442607879639,0,0,1.070159912109375
0.648087736,0,0,1.2617442607879639,0,0,0.3822000026702881
0.648423956,0,0,1.2617442607879639,0,0,2.06387996673584
0.64875751,0,0,1.3263877630233765,0,0,0.8408399820327759
0.649087619,0,0,1.3263877630233765,0,0,0.6879600286483765
0.649426339,0,0,1.3263877630233765,0,0,0.9172800183296204
0.649760337,0,0,1.3263877630233765,0,0,0.8408399820327759
0.650128224,0,0,1.3263877630233765,0,0,0.5350799560546875
0.650422889,0,0,1.3263877630233765,0,0,0.5350799560546875
0.650753313,0,0,1.3263877630233765,0,0,0.8408399820327759
0.65108883,0,0,1.5203180313110352,0,0,0.6879600286483765
0.651425309,0,0,1.5203180313110352,0,0,0.611519992351532
0.651755659,0,0,1.5203180313110352,0,0,0.7644000053405762
0.652086491,0,0,1.5203180313110352,0,0,0.8408399820327759
0.652424674,0,0,1.5203180313110352,0,0,0.9172800183296204
0.652755579,0,0,1.5203180313110352,0,0,0.9172800183296204
0.653086448,0,0,1.5203180313110352,0,0,0.611519992351532
0.65342465,0,0,1.4508862495422363,0,0,0.611519992351532
0.653765,0,0,1.4508862495422363,0,0,0.6879600286483765
0.654068276,0,0,1.4508862495422363,0,0,0.9937199950218201
0.654423051,0,0,1.4508862495422363,0,0,0.9937199950218201
0.654756623,0,0,1.4508862495422363,0,0,0.7644000053405762
0.655088085,0,0,1.4508862495422363,0,0,0.5350799560546875
0.655425101,0,0,1.4508862495422363,0,0,1.223039984703064
0.65576121,0,0,1.4317326545715332,0,0,1.070159912109375
0.656087894,0,0,1.4317326545715332,0,0,0.305759996175766
0.656422614,0,0,1.4317326545715332,0,0,0.9172800183296204
0.656755723,0,0,1.4317326545715332,0,0,0.3822000026702881
0.657088092,0,0,1.4317326545715332,0,0,0.8408399820327759
0.657424293,0,0,1.4317326545715332,0,0,1.452359914779663
0.65775818,0,0,1.4317326545715332,0,0,0.9937199950218201
0.658048993,0,0,1.4844050407409668,0,0,1.1466000080108643
0.658426473,0,0,1.4844050407409668,0,0,0.7644000053405762
0.658760619,0,0,1.4844050407409668,0,0,1.9109998941421509
0.659087913,0,0,1.4844050407409668,0,0,0.0764399990439415
0.659426486,0,0,1.4844050407409668,0,0,1.223039984703064
0.659759984,0,0,1.4844050407409668,0,0,0.2293200045824051
0.660087982,0,0,1.4844050407409668,0,0,1.1466000080108643
0.660422665,0,0,1.314416766166687,0,0,1.9874399900436401
0.660754756,0,0,1.314416766166687,0,0,0.611519992351532
0.661088032,0,0,1.314416766166687,0,0,0.7644000053405762
0.661426456,0,0,1.314416766166687,0,0,1.070159912109375
0.661760454,0,0,1.314416766166687,0,0,1.070159912109375
0.662053526,0,0,1.314416766166687,0,0,0.9172800183296204
0.662422987,0,0,1.314416766166687,0,0,0.5350799560546875
0.662755411,0,0,1.2449848651885986,0,0,0.5350799560546875
0.663088002,0,0,1.2449848651885986,0,0,0.6879600286483765
0.663425092,0,0,1.2449848651885986,0,0,0.8408399820327759
0.663758498,0,0,1.2449848651885986,0,0,1.070159912109375
0.664087848,0,0,1.2449848651885986,0,0,0.7644000053405762
0.664426142,0,0,1.2449848651885986,0,0,0.7644000053405762
0.664761103,0,0,1.2952631711959839,0,0,0.9172800183296204
0.665088064,0,0,1.2952631711959839,0,0,0.611519992351532
0.665426433,0,0,1.2952631711959839,0,0,0.6879600286483765
0.665760116,0,0,1.2952631711959839,0,0,0.4586400091648102
0.666052522,0,0,1.2952631711959839,0,0,0.9172800183296204
0.666422297,0,0,1.2952631711959839,0,0,0.9172800183296204
0.666754481,0,0,1.2952631711959839,0,0,0.8408399820327759
0.667087812,0,0,1.2737152576446533,0,0,0.8408399820327759
0.667423699,0,0,1.2737152576446533,0,0,0.7644000053405762
0.667756271,0,0,1.2737152576446533,0,0,0.6879600286483765
0.66808801,0,0,1.2737152576446533,0,0,0.0764399990439415
0.668425027,0,0,1.2737152576446533,0,0,0.611519992351532
0.668758636,0,0,1.2737152576446533,0,0,0.3822000026702881
0.669087949,0,0,1.2737152576446533,0,0,1.5288000106811523
0.669426132,0,0,1.3263877630233765,0,0,0.9937199950218201
0.669849463,0,0,1.3263877630233765,0,0,0.9937199950218201
0.670056739,0,0,1.3263877630233765,0,0,0.8408399820327759
0.670423311,0,0,1.3263877630233765,0,0,0.305759996175766
0.670755884,0,0,1.3263877630233765,0,0,0
0.671088011,0,0,1.3263877630233765,0,0,0
0.671424287,0,0,1.3263877630233765,0,0,0
0.67176173,0,0,1.2832920551300049,0,0,-0.4586400091648102
0.672086691,0,0,1.2832920551300049,0,0,1.375920057296753
0.672425485,0,0,1.2832920551300049,0,0,0
0.672754983,0,0,1.2832920551300049,0,0,0.9172800183296204
0.673090796,0,0,1.2832920551300049,0,0,0.8408399820327759
0.673420516,0,0,1.2832920551300049,0,0,0.6879600286483765
0.673753385,0,0,1.2832920551300049,0,0,0.6879600286483765
0.674056328,0,0,1.2713210582733154,0,0,0.9172800183296204
0.674421196,0,0,1.2713210582733154,0,0,0.9937199950218201
0.674754435,0,0,1.2713210582733154,0,0,0.8408399820327759
0.675099266,0,0,1.2713210582733154,0,0,0.9172800183296204
0.675419153,0,0,1.2713210582733154,0,0,0.9172800183296204
0.675754207,0,0,1.2713210582733154,0,0,0.7644000053405762
0.676087557,0,0,1.2713210582733154,0,0,0.5350799560546875
0.676425944,0,0,1.403002142906189,0,0,0.9172800183296204
0.676759831,0,0,1.403002142906189,0,0,0.7644000053405762
0.677087755,0,0,1.403002142906189,0,0,0.9937199950218201
0.677426105,0,0,1.403002142906189,0,0,0.9937199950218201
0.677760232,0,0,1.403002142906189,0,0,0.9172800183296204
0.678049805,0,0,1.403002142906189,0,0,0.6879600286483765
0.678421895,0,0,1.403002142906189,0,0,0.5350799560546875
0.678754449,0,0,1.434126853942871,0,0,0.4586400091648102
0.679086188,0,0,1.434126853942871,0,0,0.611519992351532
0.679424075,0,0,1.434126853942871,0,0,0.5350799560546875
0.679754369,0,0,1.434126853942871,0,0,0.7644000053405762
0.680086034,0,0,1.434126853942871,0,0,1.375920057296753
0.680424439,0,0,1.434126853942871,0,0,0.6879600286483765
0.680754252,0,0,1.434126853942871,0,0,1.2994799613952637
0.681086195,0,0,1.4987702369689941,0,0,0.4586400091648102
0.6814241,0,0,1.4987702369689941,0,0,1.375920057296753
0.681753728,0,0,1.4987702369689941,0,0,0.611519992351532
0.682118596,0,0,1.4987702369689941,0,0,0.0764399990439415
0.682431817,0,0,1.4987702369689941,0,0,0.152879998087883
0.682754315,0,0,1.4987702369689941,0,0,1.223039984703064
0.683218108,0,0,1.4987702369689941,0,0,1.452359914779663
0.683422792,0,0,1.5418659448623657,0,0,1.223039984703064
0.683754754,0,0,1.5418659448623657,0,0,1.605239987373352
0.684092011,0,0,1.5418659448623657,0,0,0.9937199950218201
0.684425139,0,0,1.5418659448623657,0,0,1.758120059967041
0.684757063,0,0,1.5418659448623657,0,0,0.8408399820327759
0.685106524,0,0,1.5418659448623657,0,0,0.611519992351532
0.685448836,0,0,1.5418659448623657,0,0,0.611519992351532
0.685872815,0,0,1.381454348564148,0,0,0.6879600286483765
0.686124221,0,0,1.381454348564148,0,0,0.5350799560546875
0.68649809,0,0,1.381454348564148,0,0,0.7644000053405762
0.686775718,0,0,1.381454348564148,0,0,0.7644000053405762
0.687101771,0,0,1.381454348564148,0,0,0.611519992351532
0.687420695,0,0,1.381454348564148,0,0,1.223039984703064
0.687762138,0,0,1.381454348564148,0,0,0.9172800183296204
0.68810258,0,0,1.3215993642807007,0,0,0.6879600286483765
0.688435875,0,0,1.3215993642807007,0,0,0.9172800183296204
0.688754614,0,0,1.3215993642807007,0,0,0.6879600286483765
0.689087075,0,0,1.3215993642807007,0,0,0.9172800183296204
0.689421351,0,0,1.3215993642807007,0,0,0.8408399820327759
0.689756404,0,0,1.3215993642807007,0,0,1.070159912109375
0.690091662,0,0,1.3215993642807007,0,0,0.7644000053405762
0.690421141,0,0,1.3215993642807007,0,0,0.7644000053405762
0.690759806,0,0,1.2665326595306396,0,0,0.6879600286483765
0.691093674,0,0,1.2665326595306396,0,0,1.2994799613952637
0.691421191,0,0,1.2665326595306396,0,0,0.6879600286483765
0.691755522,0,0,1.2665326595306396,0,0,0.9172800183296204
0.692094187,0,0,1.2665326595306396,0,0,0.5350799560546875
0.692427315,0,0,1.2665326595306396,0,0,1.1466000080108643
0.692756202,0,0,1.2665326595306396,0,0,1.2994799613952637
0.693089052,0,0,1.259350061416626,0,0,1.070159912109375
0.693421254,0,0,1.259350061416626,0,0,0.7644000053405762
0.693757918,0,0,1.259350061416626,0,0,0.9172800183296204
0.694093639,0,0,1.259350061416626,0,0,1.452359914779663
0.694421915,0,0,1.259350061416626,0,0,0
0.694759598,0,0,1.259350061416626,0,0,0.9937199950218201
0.695093596,0,0,1.259350061416626,0,0,0.305759996175766
0.695444872,0,0,1.2713210582733154,0,0,1.5288000106811523
0.695759555,0,0,1.2713210582733154,0,0,0
0.69609272,0,0,1.2713210582733154,0,0,1.6816799640655518
0.696421292,0,0,1.2713210582733154,0,0,1.1466000080108643
0.696759735,0,0,1.2713210582733154,0,0,0.6879600286483765
0.697095584,0,0,1.2713210582733154,0,0,0.7644000053405762
0.697421249,0,0,1.2713210582733154,0,0,0.7644000053405762
0.697757062,0,0,1.1755530834197998,0,0,0.6879600286483765
0.698143134,0,0,1.1755530834197998,0,0,0.6879600286483765
0.698421892,0,0,1.1755530834197998,0,0,0.7644000053405762
0.698760093,0,0,1.1755530834197998,0,0,0.4586400091648102
0.699087814,0,0,1.1755530834197998,0,0,0.5350799560546875
0.699426053,0,0,1.1755530834197998,0,0,0.9172800183296204
0.699759995,0,0,1.1755530834197998,0,0,0.8408399820327759
0.700087697,0,0,1.3503297567367554,0,0,0.4586400091648102
0.700426065,0,0,1.3503297567367554,0,0,0.4586400091648102
0.700760175,0,0,1.3503297567367554,0,0,0.6879600286483765
