Time,AccelX1,AccelY1,AccelZ1,AccelX2,AccelY2,AccelZ2
0.000010296,0,0,1.5729905366897583,0,0,1.223039984703064
0.00631227,0,0,1.5729905366897583,0,0,0.8408399820327759
0.006510082,0,0,1.5729905366897583,0,0,0.8408399820327759
0.006681265,0,0,1.5729905366897583,0,0,1.2994799613952637
0.006852281,0,0,1.5729905366897583,0,0,1.2994799613952637
0.00702652,0,0,1.647210717201233,0,0,1.1466000080108643
0.007197647,0,0,1.647210717201233,0,0,1.1466000080108643
0.007368108,0,0,1.5682021379470825,0,0,0.611519992351532
0.008236689,0,0,1.5538369417190552,0,0,0.9937199950218201
0.00923438,0,0,1.7166426181793213,0,0,0.5350799560546875
0.010233404,0,0,1.501164436340332,0,0,0.9172800183296204
0.011233187,0,0,1.45806884765625,0,0,1.223039984703064
0.012232637,0,0,1.290474772453308,0,0,0.9172800183296204
0.013255254,0,0,1.4532804489135742,0,0,0.611519992351532
0.014233945,0,0,1.5729905366897583,0,0,0.7644000053405762
0.015235413,0,0,1.5897499322891235,0,0,0.7644000053405762
0.016251344,0,0,1.5682021379470825,0,0,0.7644000053405762
0.017235906,0,0,1.5682021379470825,0,0,0.9172800183296204
0.018235819,0,0,1.4293384552001953,0,0,0.0764399990439415
0.019233657,0,0,1.5753847360610962,0,0,1.1466000080108643
0.020232237,0,0,1.4748282432556152,0,0,1.1466000080108643
0.021247779,0,0,1.414973258972168,0,0,0.7644000053405762
0.022234267,0,0,1.5298948287963867,0,0,0.6879600286483765
0.023232809,0,0,1.434126853942871,0,0,1.070159912109375
0.02423937,0,0,1.5538369417190552,0,0,0.9937199950218201
0.025233561,0,0,1.3718775510787964,0,0,1.070159912109375
0.026233585,0,0,1.50355863571167,0,0,0.9172800183296204
0.027232442,0,0,1.5466543436050415,0,0,0.5350799560546875
0.028232337,0,0,1.5203180313110352,0,0,1.1466000080108643
0.029232435,0,0,1.4772224426269531,0,0,0.6879600286483765
0.030233533,0,0,1.745373010635376,0,0,0.4586400091648102
0.031233113,0,0,1.4844050407409668,0,0,0.8408399820327759
0.0322321,0,0,1.5514427423477173,0,0,1.223039984703064
0.033251753,0,0,1.4389152526855469,0,0,0.611519992351532
0.034234074,0,0,1.3934253454208374,0,0,1.1466000080108643
0.035232987,0,0,1.2713210582733154,0,0,0.7644000053405762
0.036231733,0,0,1.4053963422775269,0,0,0.7644000053405762
0.037232257,0,0,1.53707754611969,0,0,0.9172800183296204
0.038233077,0,0,1.6424223184585571,0,0,0.611519992351532
0.039232361,0,0,1.6184803247451782,0,0,0.0764399990439415
0.040232236,0,0,1.678335428237915,0,0,0.7644000053405762
0.041232057,0,0,1.6424223184585571,0,0,0.9172800183296204
0.042232377,0,0,1.436521053314209,0,0,0.6879600286483765
0.043232864,0,0,1.4867992401123047,0,0,0.9937199950218201
0.044232259,0,0,1.2832920551300049,0,0,0.6879600286483765
0.045232172,0,0,1.4939818382263184,0,0,0.6879600286483765
0.046234159,0,0,1.4676456451416016,0,0,0.611519992351532
0.04723559,0,0,1.5203180313110352,0,0,0.8408399820327759
0.048234947,0,0,1.534683346748352,0,0,0.8408399820327759
0.04923549,0,0,1.5131354331970215,0,0,0.8408399820327759
0.05023507,0,0,1.5418659448623657,0,0,0.3822000026702881
0.051234464,0,0,1.7190368175506592,0,0,0.6879600286483765
0.052234803,0,0,1.50355863571167,0,0,0.8408399820327759
0.053234549,0,0,1.4987702369689941,0,0,0.8408399820327759
0.054234425,0,0,1.3718775510787964,0,0,0.3822000026702881
0.055234393,0,0,1.3862427473068237,0,0,1.223039984703064
0.056234918,0,0,1.3886369466781616,0,0,0.5350799560546875
0.057234293,0,0,1.3718775510787964,0,0,1.1466000080108643
0.05823528,0,0,1.5610195398330688,0,0,0.8408399820327759
0.059235508,0,0,1.6663644313812256,0,0,0.611519992351532
0.060278828,0,0,1.53707754611969,0,0,0.8408399820327759
0.061247038,0,0,1.53707754611969,0,0,0.9172800183296204
0.062238136,0,0,1.601720929145813,0,0,0.6879600286483765
0.063235012,0,0,1.6639702320098877,0,0,0.9937199950218201
0.064234758,0,0,1.3910311460494995,0,0,0.8408399820327759
0.065251986,0,0,1.4197616577148438,0,0,0.6879600286483765
0.066237084,0,0,1.3192051649093628,0,0,1.1466000080108643
0.067234515,0,0,1.4484920501708984,0,0,0.8408399820327759
0.068234669,0,0,1.436521053314209,0,0,0.9937199950218201
0.0692346,0,0,1.5203180313110352,0,0,0.9172800183296204
0.070235439,0,0,1.5442601442337036,0,0,1.070159912109375
0.071234241,0,0,1.5155296325683594,0,0,0.305759996175766
0.072275783,0,0,1.5155296325683594,0,0,1.070159912109375
0.073235641,0,0,1.6687586307525635,0,0,0.9937199950218201
0.074235665,0,0,1.4197616577148438,0,0,0.7644000053405762
0.075234134,0,0,1.3239935636520386,0,0,0.611519992351532
0.076234658,0,0,1.3646949529647827,0,0,0.9172800183296204
0.077234645,0,0,1.4293384552001953,0,0,0.9172800183296204
0.078235076,0,0,1.5490485429763794,0,0,1.070159912109375
0.079233545,0,0,1.436521053314209,0,0,0.9172800183296204
0.080234643,0,0,1.5131354331970215,0,0,0.6879600286483765
0.081234648,0,0,1.6496049165725708,0,0,0.9172800183296204
0.082235172,0,0,1.558625340461731,0,0,1.223039984703064
0.0832339,0,0,1.522712230682373,0,0,0.7644000053405762
0.084234332,0,0,1.6208745241165161,0,0,0.8408399820327759
0.085234282,0,0,1.4293384552001953,0,0,1.070159912109375
0.086235046,0,0,1.4724340438842773,0,0,0.8408399820327759
0.087233607,0,0,1.3287819623947144,0,0,0.6879600286483765
0.088234446,0,0,1.4748282432556152,0,0,0.8408399820327759
0.0892346,0,0,1.4437036514282227,0,0,0.6879600286483765
0.090235254,0,0,1.4508862495422363,0,0,0.7644000053405762
0.091234222,0,0,1.680729627609253,0,0,1.070159912109375
0.092234654,0,0,1.7190368175506592,0,0,0
0.093234492,0,0,1.5322890281677246,0,0,1.070159912109375
0.094235165,0,0,1.8483237028121948,0,0,0.7644000053405762
0.095234041,0,0,1.5897499322891235,0,0,1.070159912109375
0.096234528,0,0,1.4101848602294922,0,0,0.6879600286483765
0.097234126,0,0,1.3431471586227417,0,0,0.9937199950218201
0.098235242,0,0,1.2641384601593018,0,0,1.1466000080108643
0.099233896,0,0,1.5394717454910278,0,0,1.070159912109375
0.100234439,0,0,1.4460978507995605,0,0,0.9172800183296204
0.101234129,0,0,1.482010841369629,0,0,0.5350799560546875
0.102235783,0,0,1.5945383310317993,0,0,1.223039984703064
0.103234066,0,0,1.403002142906189,0,0,0.6879600286483765
0.104234498,0,0,1.4460978507995605,0,0,0.305759996175766
0.105277392,0,0,1.723825216293335,0,0,0.8408399820327759
0.10625036,0,0,1.5107412338256836,0,0,1.070159912109375
0.107313421,0,0,1.5107412338256836,0,0,0.9172800183296204
0.108238372,0,0,1.3551181554794312,0,0,0.6879600286483765
0.109237636,0,0,1.4269442558288574,0,0,0.5350799560546875
0.110237586,0,0,1.4628572463989258,0,0,0.9937199950218201
0.111233388,0,0,1.434126853942871,0,0,0.7644000053405762
0.112233486,0,0,1.5705963373184204,0,0,0.5350799560546875
0.113233492,0,0,1.644816517829895,0,0,0.2293200045824051
0.114234609,0,0,1.4915876388549805,0,0,1.070159912109375
0.11523304,0,0,1.6136919260025024,0,0,1.070159912109375
0.116233508,0,0,1.6759412288665771,0,0,0.6879600286483765
0.117233458,0,0,1.4077905416488647,0,0,0.9937199950218201
0.118239871,0,0,1.414973258972168,0,0,1.223039984703064
0.119237451,0,0,1.2689268589019775,0,0,0.8408399820327759
0.120233605,0,0,1.534683346748352,0,0,0.9172800183296204
0.121233518,0,0,1.460463047027588,0,0,0.8408399820327759
0.122234801,0,0,1.5538369417190552,0,0,0.6879600286483765
0.123240029,0,0,1.6184803247451782,0,0,1.1466000080108643
0.12423759,0,0,1.5753847360610962,0,0,0.5350799560546875
0.125234132,0,0,1.4867992401123047,0,0,0.7644000053405762
0.126234767,0,0,1.7166426181793213,0,0,1.070159912109375
0.127232384,0,0,1.4987702369689941,0,0,1.1466000080108643
0.128233445,0,0,1.455674648284912,0,0,0.6879600286483765
0.129256024,0,0,1.45806884765625,0,0,1.223039984703064
0.130235882,0,0,1.4844050407409668,0,0,0.6879600286483765
0.131232888,0,0,1.558625340461731,0,0,1.1466000080108643
0.13223343,0,0,1.400607943534851,0,0,0.6879600286483765
0.133233269,0,0,1.5634137392044067,0,0,0.2293200045824051
0.134234441,0,0,1.6424223184585571,0,0,0.9172800183296204
0.135232799,0,0,1.6112977266311646,0,0,1.1466000080108643
0.136233323,0,0,1.623268723487854,0,0,0.7644000053405762
0.137233273,0,0,1.7573440074920654,0,0,0.9172800183296204
0.138234315,0,0,1.403002142906189,0,0,0.7644000053405762
0.139232784,0,0,1.455674648284912,0,0,0.8408399820327759
0.140282955,0,0,1.4245500564575195,0,0,0.9172800183296204
0.141235536,0,0,1.5203180313110352,0,0,0.7644000053405762
0.142260115,0,0,1.4245500564575195,0,0,0.8408399820327759
0.143291194,0,0,1.522712230682373,0,0,0.7644000053405762
0.144255422,0,0,1.659181833267212,0,0,1.375920057296753
0.145241798,0,0,1.6711528301239014,0,0,0
0.146234119,0,0,1.4700398445129395,0,0,0.6879600286483765
0.147233865,0,0,1.7286136150360107,0,0,1.070159912109375
0.148236371,0,0,1.4867992401123047,0,0,1.070159912109375
0.149233802,0,0,1.460463047027588,0,0,0.5350799560546875
0.150235122,0,0,1.434126853942871,0,0,0.9937199950218201
0.151233628,0,0,1.4389152526855469,0,0,0.9172800183296204
0.152232985,0,0,1.5418659448623657,0,0,1.070159912109375
0.153233602,0,0,1.4437036514282227,0,0,0.6879600286483765
0.154234348,0,0,1.4389152526855469,0,0,0.4586400091648102
0.155232965,0,0,1.625662922859192,0,0,0.9937199950218201
0.156233507,0,0,1.556231141090393,0,0,0.9937199950218201
0.15723342,0,0,1.5705963373184204,0,0,0.7644000053405762
0.158234574,0,0,1.7717092037200928,0,0,0.6879600286483765
0.159233098,0,0,1.41257905960083,0,0,1.452359914779663
0.160233567,0,0,1.4245500564575195,0,0,0.7644000053405762
0.16123335,0,0,1.3000515699386597,0,0,1.223039984703064
0.162234615,0,0,1.3958195447921753,0,0,0.4586400091648102
0.163232861,0,0,1.41257905960083,0,0,0.611519992351532
0.164233348,0,0,1.4628572463989258,0,0,0.7644000053405762
0.165233576,0,0,1.5705963373184204,0,0,0.9937199950218201
0.166234433,0,0,1.580173134803772,0,0,0.305759996175766
0.167232235,0,0,1.45806884765625,0,0,0.8408399820327759
0.168233037,0,0,1.5322890281677246,0,0,0.8408399820327759
0.169438391,0,0,1.5322890281677246,0,0,0.6879600286483765
0.17023314,0,0,1.4437036514282227,0,0,0.4586400091648102
0.171231646,0,0,1.4053963422775269,0,0,1.1466000080108643
0.172241744,0,0,1.3910311460494995,0,0,0.9172800183296204
0.173231527,0,0,1.6160861253738403,0,0,0.6879600286483765
0.174231737,0,0,1.4628572463989258,0,0,0.6879600286483765
0.175231557,0,0,1.525106430053711,0,0,0.611519992351532
0.176230896,0,0,1.5634137392044067,0,0,1.1466000080108643
0.177231512,0,0,1.5131354331970215,0,0,0.7644000053405762
0.178232222,0,0,1.5538369417190552,0,0,0.3822000026702881
0.179231449,0,0,1.6879122257232666,0,0,1.070159912109375
0.180230936,0,0,1.4939818382263184,0,0,1.2994799613952637
0.181230849,0,0,1.479616641998291,0,0,0.7644000053405762
0.182231707,0,0,1.316810965538025,0,0,0.8408399820327759
0.18323136,0,0,1.4413094520568848,0,0,0.8408399820327759
0.184231107,0,0,1.455674648284912,0,0,0.9172800183296204
0.18523089,0,0,1.644816517829895,0,0,0.9172800183296204
0.186384449,0,0,1.644816517829895,0,0,0.5350799560546875
0.187239234,0,0,1.7405846118927002,0,0,0.0764399990439415
0.18823174,0,0,1.5442601442337036,0,0,1.1466000080108643
0.189231319,0,0,1.6974890232086182,0,0,0.9172800183296204
0.190233732,0,0,1.6112977266311646,0,0,0.8408399820327759
0.191234405,0,0,1.3551181554794312,0,0,0.8408399820327759
0.192233966,0,0,1.460463047027588,0,0,0.9172800183296204
0.193234064,0,0,1.3766659498214722,0,0,0.7644000053405762
0.194235199,0,0,1.5538369417190552,0,0,1.070159912109375
0.195232704,0,0,1.3694833517074585,0,0,0.7644000053405762
0.196233969,0,0,1.4389152526855469,0,0,0.6879600286483765
0.197233845,0,0,1.5155296325683594,0,0,1.605239987373352
0.198234851,0,0,1.436521053314209,0,0,0.2293200045824051
0.199233412,0,0,1.534683346748352,0,0,0.6879600286483765
0.20023401,0,0,1.723825216293335,0,0,0.8408399820327759
0.201233978,0,0,1.5155296325683594,0,0,0.9172800183296204
0.202235151,0,0,1.4844050407409668,0,0,0.8408399820327759
0.203233452,0,0,1.359906554222107,0,0,0.7644000053405762
0.204234032,0,0,1.3694833517074585,0,0,0.9937199950218201
0.205233778,0,0,1.4173674583435059,0,0,0.9172800183296204
0.206235043,0,0,1.3886369466781616,0,0,0.9172800183296204
0.207233326,0,0,1.53707754611969,0,0,0.305759996175766
0.208233906,0,0,1.6376339197158813,0,0,0.9172800183296204
0.2092338,0,0,1.4844050407409668,0,0,1.1466000080108643
0.210234732,0,0,1.601720929145813,0,0,0.4586400091648102
0.211248182,0,0,1.644816517829895,0,0,0.4586400091648102
0.21223441,0,0,1.4317326545715332,0,0,1.070159912109375
0.213233415,0,0,1.4987702369689941,0,0,0.8408399820327759
0.214234032,0,0,1.3287819623947144,0,0,0.9172800183296204
0.215231185,0,0,1.4915876388549805,0,0,0.8408399820327759
0.216230543,0,0,1.3934253454208374,0,0,1.1466000080108643
0.217230585,0,0,1.5203180313110352,0,0,0.9172800183296204
0.218237091,0,0,1.6615760326385498,0,0,1.2994799613952637
0.219238874,0,0,1.6112977266311646,0,0,0.305759996175766
0.220234306,0,0,1.4963760375976563,0,0,0.8408399820327759
0.221234256,0,0,1.6903064250946045,0,0,0.6879600286483765
0.222235076,0,0,1.5825673341751099,0,0,0.611519992351532
0.223231656,0,0,1.4508862495422363,0,0,0.4586400091648102
0.224231106,0,0,1.3527239561080933,0,0,0.9172800183296204
0.225230815,0,0,1.3623007535934448,0,0,1.1466000080108643
0.226231654,0,0,1.4628572463989258,0,0,0.8408399820327759
0.227231493,0,0,1.37906014919281,0,0,0.8408399820327759
0.228231035,0,0,1.5610195398330688,0,0,0.611519992351532
0.229231059,0,0,1.6496049165725708,0,0,1.452359914779663
0.230236009,0,0,1.6160861253738403,0,0,0.8408399820327759
0.231235515,0,0,1.5059528350830078,0,0,0.5350799560546875
0.232268242,0,0,1.702277421951294,0,0,0.7644000053405762
0.23326647,0,0,1.381454348564148,0,0,1.070159912109375
0.234238809,0,0,1.4748282432556152,0,0,0.7644000053405762
0.235232907,0,0,1.3646949529647827,0,0,0.7644000053405762
0.236234024,0,0,1.3958195447921753,0,0,0.5350799560546875
0.237233918,0,0,1.4676456451416016,0,0,1.070159912109375
0.238234516,0,0,1.5179238319396973,0,0,0.8408399820327759
0.2392333,0,0,1.6615760326385498,0,0,1.070159912109375
0.240233805,0,0,1.6735470294952393,0,0,0.305759996175766
0.241233848,0,0,1.3982137441635132,0,0,0.9172800183296204
0.242234835,0,0,1.6663644313812256,0,0,0.9172800183296204
0.243233488,0,0,1.6184803247451782,0,0,0.611519992351532
0.244233938,0,0,1.4437036514282227,0,0,0.7644000053405762
0.24523387,0,0,1.4173674583435059,0,0,1.223039984703064
0.246235653,0,0,1.3646949529647827,0,0,1.223039984703064
0.247230844,0,0,1.436521053314209,0,0,0.5350799560546875
0.248230886,0,0,1.479616641998291,0,0,0.9172800183296204
0.249231096,0,0,1.5466543436050415,0,0,0.9172800183296204
0.250236194,0,0,1.6208745241165161,0,0,1.605239987373352
0.251270569,0,0,1.5275006294250488,0,0,0.5350799560546875
0.25240024,0,0,1.4245500564575195,0,0,0.5350799560546875
0.253455541,0,0,1.7310078144073486,0,0,1.2994799613952637
0.254309659,0,0,1.4317326545715332,0,0,0.9937199950218201
0.255240425,0,0,1.4844050407409668,0,0,0.152879998087883
0.256238412,0,0,1.4245500564575195,0,0,1.2994799613952637
0.257264676,0,0,1.4532804489135742,0,0,1.070159912109375
0.259086356,0,0,1.4532804489135742,0,0,1.070159912109375
0.259260688,0,0,1.41257905960083,0,0,0.9172800183296204
0.26024173,0,0,1.5442601442337036,0,0,0.7644000053405762
0.261237792,0,0,1.644816517829895,0,0,0.6879600286483765
0.262236686,0,0,1.4245500564575195,0,0,1.070159912109375
0.263235599,0,0,1.6065093278884888,0,0,0.7644000053405762
0.264234475,0,0,1.6280571222305298,0,0,0.7644000053405762
0.265233888,0,0,1.41257905960083,0,0,0.9172800183296204
0.266240875,0,0,1.4700398445129395,0,0,0.7644000053405762
0.26723601,0,0,1.3431471586227417,0,0,0.611519992351532
0.268234682,0,0,1.4173674583435059,0,0,0.7644000053405762
0.269235484,0,0,1.479616641998291,0,0,0.8408399820327759
0.270236267,0,0,1.4867992401123047,0,0,0.9937199950218201
0.271234643,0,0,1.6831238269805908,0,0,1.9874399900436401
0.272234612,0,0,1.647210717201233,0,0,0.305759996175766
0.273235432,0,0,1.4891934394836426,0,0,0.7644000053405762
0.2742359,0,0,1.7118542194366455,0,0,0.8408399820327759
0.275238591,0,0,1.5753847360610962,0,0,1.1466000080108643
0.276235689,0,0,1.482010841369629,0,0,0.305759996175766
0.277235324,0,0,1.3958195447921753,0,0,1.1466000080108643
0.278234737,0,0,1.460463047027588,0,0,0.8408399820327759
0.279234743,0,0,1.50355863571167,0,0,0.9172800183296204
0.280234323,0,0,1.3455413579940796,0,0,0.6879600286483765
0.281234217,0,0,1.5682021379470825,0,0,0.7644000053405762
0.282236463,0,0,1.6328455209732056,0,0,0.6879600286483765
0.283237043,0,0,1.4437036514282227,0,0,0.9172800183296204
0.284235122,0,0,1.599326729774475,0,0,0.7644000053405762
0.285233906,0,0,1.6112977266311646,0,0,0.611519992351532
0.286234893,0,0,1.335964560508728,0,0,0.7644000053405762
0.28723525,0,0,1.403002142906189,0,0,0.7644000053405762
0.288234089,0,0,1.335964560508728,0,0,0.9172800183296204
0.289235132,0,0,1.525106430053711,0,0,0.9937199950218201
0.290368746,0,0,1.4891934394836426,0,0,1.070159912109375
0.291986299,0,0,1.4891934394836426,0,0,1.070159912109375
0.292257018,0,0,1.5514427423477173,0,0,1.1466000080108643
0.293287709,0,0,1.5394717454910278,0,0,0
0.294324621,0,0,1.5059528350830078,0,0,1.070159912109375
0.295295145,0,0,1.7549498081207275,0,0,0.9937199950218201
0.296336799,0,0,1.5059528350830078,0,0,1.070159912109375
0.297370304,0,0,1.4700398445129395,0,0,0.3822000026702881
0.298296199,0,0,1.403002142906189,0,0,0.8408399820327759
0.299280631,0,0,1.357512354850769,0,0,1.2994799613952637
0.300260359,0,0,1.4939818382263184,0,0,0.611519992351532
0.30124905,0,0,1.434126853942871,0,0,0.6879600286483765
0.302247296,0,0,1.601720929145813,0,0,0.6879600286483765
0.303291116,0,0,1.5849615335464478,0,0,0.9937199950218201
0.304251862,0,0,1.5394717454910278,0,0,0.8408399820327759
0.305257405,0,0,1.5729905366897583,0,0,0.611519992351532
0.306299354,0,0,1.6711528301239014,0,0,0.8408399820327759
0.307238861,0,0,1.3958195447921753,0,0,1.070159912109375
0.308232533,0,0,1.3934253454208374,0,0,0.7644000053405762
0.309232279,0,0,1.316810965538025,0,0,1.070159912109375
0.310233266,0,0,1.4460978507995605,0,0,0.8408399820327759
0.311232938,0,0,1.4221558570861816,0,0,0.9937199950218201
0.312231925,0,0,1.4437036514282227,0,0,0.9172800183296204
0.313232061,0,0,1.5610195398330688,0,0,0.3822000026702881
0.314233918,0,0,1.6424223184585571,0,0,0
0.315234016,0,0,1.5155296325683594,0,0,0.9937199950218201
0.316232485,0,0,1.766920804977417,0,0,0.9937199950218201
0.31723249,0,0,1.5825673341751099,0,0,0.7644000053405762
0.318251347,0,0,1.3838485479354858,0,0,0.9937199950218201
0.319236668,0,0,1.460463047027588,0,0,1.1466000080108643
0.32023471,0,0,1.3551181554794312,0,0,0.9937199950218201
0.321250142,0,0,1.3910311460494995,0,0,0.8408399820327759
0.322234518,0,0,1.4915876388549805,0,0,0.6879600286483765
0.323235449,0,0,1.5729905366897583,0,0,0.8408399820327759
0.324232918,0,0,1.623268723487854,0,0,1.1466000080108643
0.325232571,0,0,1.522712230682373,0,0,0.611519992351532
0.32623454,0,0,1.4173674583435059,0,0,0.611519992351532
0.32723449,0,0,1.7070658206939697,0,0,0.9172800183296204
0.328232236,0,0,1.3910311460494995,0,0,0.9937199950218201
0.329232371,0,0,1.41257905960083,0,0,0.611519992351532
0.330232303,0,0,1.41257905960083,0,0,0.7644000053405762
0.331232567,0,0,1.5442601442337036,0,0,0.9172800183296204
0.33223211,0,0,1.45806884765625,0,0,0.8408399820327759
0.333232245,0,0,1.4460978507995605,0,0,0.7644000053405762
0.334232417,0,0,1.460463047027588,0,0,0.5350799560546875
0.335232423,0,0,1.5682021379470825,0,0,1.070159912109375
0.336232151,0,0,1.5298948287963867,0,0,1.2994799613952637
0.337232175,0,0,1.7094600200653076,0,0,0.9172800183296204
0.338232588,0,0,1.6424223184585571,0,0,0.6879600286483765
0.339232649,0,0,1.3862427473068237,0,0,0.7644000053405762
0.340232432,0,0,1.4652514457702637,0,0,0.8408399820327759
0.341232234,0,0,1.3287819623947144,0,0,1.070159912109375
0.342233628,0,0,1.4245500564575195,0,0,0.9172800183296204
0.3432323,0,0,1.434126853942871,0,0,0.9937199950218201
0.344232213,0,0,1.6041151285171509,0,0,0.8408399820327759
0.345232256,0,0,1.6615760326385498,0,0,0.9172800183296204
0.346234706,0,0,1.6280571222305298,0,0,0
0.347235989,0,0,1.4987702369689941,0,0,0.6879600286483765
0.34823555,0,0,1.6735470294952393,0,0,0.7644000053405762
0.349235297,0,0,1.3479355573654175,0,0,0.8408399820327759
0.350235895,0,0,1.4053963422775269,0,0,0.611519992351532
0.351235345,0,0,1.3479355573654175,0,0,0.8408399820327759
0.35223485,0,0,1.4173674583435059,0,0,1.1466000080108643
0.353236319,0,0,1.4508862495422363,0,0,1.1466000080108643
0.354236028,0,0,1.4101848602294922,0,0,0.7644000053405762
0.355235367,0,0,1.50355863571167,0,0,0.5350799560546875
0.356234613,0,0,1.5131354331970215,0,0,1.605239987373352
0.357235452,0,0,1.4077905416488647,0,0,0.305759996175766
0.35823605,0,0,1.623268723487854,0,0,0.6879600286483765
0.359234315,0,0,1.6112977266311646,0,0,0.9937199950218201
0.360236561,0,0,1.4317326545715332,0,0,0.9937199950218201
0.36128014,0,0,1.5059528350830078,0,0,0.9172800183296204
0.362242646,0,0,1.3886369466781616,0,0,0.9172800183296204
0.363235652,0,0,1.5083470344543457,0,0,0.5350799560546875
0.364235528,0,0,1.4700398445129395,0,0,0.8408399820327759
0.365235366,0,0,1.5466543436050415,0,0,1.1466000080108643
0.366235983,0,0,1.659181833267212,0,0,0.8408399820327759
0.367234674,0,0,1.5610195398330688,0,0,0.2293200045824051
0.368235309,0,0,1.4700398445129395,0,0,0.7644000053405762
0.369237777,0,0,1.7693150043487549,0,0,0.9172800183296204
0.370235709,0,0,1.4939818382263184,0,0,0.8408399820327759
0.37124464,0,0,1.4389152526855469,0,0,0.611519992351532
0.37224472,0,0,1.4508862495422363,0,0,0.7644000053405762
0.37323617,0,0,1.4772224426269531,0,0,0.8408399820327759
0.374235379,0,0,1.522712230682373,0,0,0.9937199950218201
0.375235644,0,0,1.455674648284912,0,0,0.8408399820327759
0.376235168,0,0,1.5514427423477173,0,0,0.5350799560546875
0.377234748,0,0,1.580173134803772,0,0,1.5288000106811523
0.378235698,0,0,1.460463047027588,0,0,0.0764399990439415
0.379235111,0,0,1.6136919260025024,0,0,0.5350799560546875
0.380235116,0,0,1.7741034030914307,0,0,0.5350799560546875
0.381235159,0,0,1.4317326545715332,0,0,1.1466000080108643
0.38223559,0,0,1.4676456451416016,0,0,1.070159912109375
0.383234836,0,0,1.3646949529647827,0,0,0.9172800183296204
0.384235101,0,0,1.4460978507995605,0,0,0.7644000053405762
0.385235125,0,0,1.4317326545715332,0,0,0.9937199950218201
0.386235742,0,0,1.4772224426269531,0,0,0.8408399820327759
0.387235044,0,0,1.5897499322891235,0,0,0.611519992351532
0.388234957,0,0,1.577778935432434,0,0,0.6879600286483765
0.389235036,0,0,1.5275006294250488,0,0,1.070159912109375
0.39023556,0,0,1.6855180263519287,0,0,1.070159912109375
0.391235658,0,0,1.4652514457702637,0,0,0.6879600286483765
0.392235571,0,0,1.3838485479354858,0,0,0.5350799560546875
0.393273595,0,0,1.3910311460494995,0,0,0.7644000053405762
0.394259749,0,0,1.3120225667953491,0,0,1.070159912109375
0.395238569,0,0,1.3910311460494995,0,0,0.7644000053405762
0.396235538,0,0,1.3431471586227417,0,0,0.7644000053405762
0.397235877,0,0,1.5490485429763794,0,0,0.8408399820327759
0.398236364,0,0,1.5897499322891235,0,0,1.1466000080108643
0.399233629,0,0,1.5298948287963867,0,0,0.2293200045824051
0.400235393,0,0,1.5298948287963867,0,0,0.5350799560546875
0.401235121,0,0,1.6280571222305298,0,0,0.9172800183296204
0.402235904,0,0,1.4077905416488647,0,0,1.223039984703064
0.403234558,0,0,1.4844050407409668,0,0,1.070159912109375
0.404235175,0,0,1.259350061416626,0,0,1.452359914779663
0.405235069,0,0,1.3982137441635132,0,0,0.7644000053405762
0.406235908,0,0,1.359906554222107,0,0,0.9172800183296204
0.407234876,0,0,1.4891934394836426,0,0,1.070159912109375
0.408235308,0,0,1.6065093278884888,0,0,0.3822000026702881
0.409235239,0,0,1.5921441316604614,0,0,1.070159912109375
0.410235986,0,0,1.5155296325683594,0,0,0.7644000053405762
0.411234547,0,0,1.7118542194366455,0,0,0.4586400091648102
0.412235163,0,0,1.53707754611969,0,0,0.7644000053405762
0.413234984,0,0,1.3215993642807007,0,0,0.9172800183296204
0.414235711,0,0,1.4101848602294922,0,0,0.9172800183296204
0.415234495,0,0,1.3263877630233765,0,0,0.611519992351532
0.416235297,0,0,1.4269442558288574,0,0,0.611519992351532
0.41723495,0,0,1.3838485479354858,0,0,0.6879600286483765
0.418239122,0,0,1.5729905366897583,0,0,0.8408399820327759
0.419235184,0,0,1.6615760326385498,0,0,1.1466000080108643
0.420234504,0,0,1.577778935432434,0,0,0
0.421245472,0,0,1.479616641998291,0,0,1.2994799613952637
0.422246681,0,0,1.6879122257232666,0,0,0.9172800183296204
0.423235058,0,0,1.4413094520568848,0,0,0.9937199950218201
0.424235193,0,0,1.4317326545715332,0,0,0.7644000053405762
0.425243365,0,0,1.3646949529647827,0,0,1.070159912109375
0.426237722,0,0,1.5203180313110352,0,0,0.9172800183296204
0.427234598,0,0,1.4724340438842773,0,0,0.8408399820327759
0.428235159,0,0,1.482010841369629,0,0,0.9172800183296204
0.429235128,0,0,1.5825673341751099,0,0,0.6879600286483765
0.430235818,0,0,1.6089035272598267,0,0,1.9109998941421509
0.43123475,0,0,1.4987702369689941,0,0,0.6879600286483765
0.432235015,0,0,1.6687586307525635,0,0,0.152879998087883
0.433235113,0,0,1.678335428237915,0,0,0.7644000053405762
0.434235748,0,0,1.3479355573654175,0,0,1.1466000080108643
0.435251698,0,0,1.4963760375976563,0,0,1.223039984703064
0.43623587,0,0,1.3718775510787964,0,0,0.7644000053405762
0.437235153,0,0,1.4221558570861816,0,0,0.8408399820327759
0.438235455,0,0,1.400607943534851,0,0,0.7644000053405762
0.439234664,0,0,1.4676456451416016,0,0,0.8408399820327759
0.440238485,0,0,1.5945383310317993,0,0,0.7644000053405762
0.441235713,0,0,1.525106430053711,0,0,0
0.442234885,0,0,1.4389152526855469,0,0,1.070159912109375
0.443235316,0,0,1.7046716213226318,0,0,0.9172800183296204
0.444235248,0,0,1.3670891523361206,0,0,1.1466000080108643
0.445235012,0,0,1.4437036514282227,0,0,0.6879600286483765
0.446236444,0,0,1.4484920501708984,0,0,1.1466000080108643
0.447234116,0,0,1.5083470344543457,0,0,0.9172800183296204
0.448234955,0,0,1.5083470344543457,0,0,0.9172800183296204
0.449234849,0,0,1.3646949529647827,0,0,0.7644000053405762
0.450236059,0,0,1.4939818382263184,0,0,0.6879600286483765
0.451234509,0,0,1.599326729774475,0,0,1.605239987373352
0.452235014,0,0,1.5753847360610962,0,0,0.4586400091648102
0.453235112,0,0,1.6496049165725708,0,0,0.5350799560546875
0.454235933,0,0,1.7190368175506592,0,0,0.611519992351532
0.45523479,0,0,1.4915876388549805,0,0,1.070159912109375
0.456234981,0,0,1.5131354331970215,0,0,0.9172800183296204
0.457235079,0,0,1.2545616626739502,0,0,0.9172800183296204
0.458235844,0,0,1.45806884765625,0,0,0.5350799560546875
0.459234497,0,0,1.4867992401123047,0,0,0.9937199950218201
0.46023441,0,0,1.4939818382263184,0,0,0.8408399820327759
0.46123536,0,0,1.6352397203445435,0,0,0.5350799560546875
0.462235755,0,0,1.6208745241165161,0,0,0.305759996175766
0.463233871,0,0,1.436521053314209,0,0,1.2994799613952637
0.464234692,0,0,1.6831238269805908,0,0,0.6879600286483765
0.465235105,0,0,1.3934253454208374,0,0,0.6879600286483765
0.466235814,0,0,1.3862427473068237,0,0,0.611519992351532
0.467234523,0,0,1.400607943534851,0,0,0.9172800183296204
0.46823501,0,0,1.4221558570861816,0,0,0.6879600286483765
0.469235275,0,0,1.5658079385757446,0,0,0.7644000053405762
0.470235891,0,0,1.4484920501708984,0,0,0.6879600286483765
0.471234804,0,0,1.4987702369689941,0,0,0.5350799560546875
0.472236643,0,0,1.6496049165725708,0,0,1.5288000106811523
0.473235112,0,0,1.5298948287963867,0,0,0.3822000026702881
0.474236821,0,0,1.53707754611969,0,0,0.8408399820327759
0.475234401,0,0,1.7118542194366455,0,0,1.070159912109375
0.476235184,0,0,1.4173674583435059,0,0,1.070159912109375
0.477235004,0,0,1.4460978507995605,0,0,0.6879600286483765
0.478235713,0,0,1.3287819623947144,0,0,0.6879600286483765
0.479234552,0,0,1.4484920501708984,0,0,0.7644000053405762
0.480235169,0,0,1.381454348564148,0,0,0.6879600286483765
0.481242915,0,0,1.4844050407409668,0,0,0.6879600286483765
0.482236958,0,0,1.6280571222305298,0,0,0.8408399820327759
0.483234815,0,0,1.6041151285171509,0,0,0.6879600286483765
0.484235358,0,0,1.460463047027588,0,0,1.2994799613952637
0.485234548,0,0,1.6831238269805908,0,0,0.9937199950218201
0.486235739,0,0,1.4987702369689941,0,0,0.8408399820327759
0.487234504,0,0,1.3623007535934448,0,0,0.4586400091648102
0.488235028,0,0,1.414973258972168,0,0,0.9172800183296204
0.489235108,0,0,1.4389152526855469,0,0,0.9172800183296204
0.490235687,0,0,1.4939818382263184,0,0,0.8408399820327759
0.491234359,0,0,1.4987702369689941,0,0,0.9172800183296204
0.492235013,0,0,1.5825673341751099,0,0,0.7644000053405762
0.493235019,0,0,1.656787633895874,0,0,1.070159912109375
0.494235654,0,0,1.5275006294250488,0,0,0.152879998087883
0.495234511,0,0,1.6304513216018677,0,0,0.8408399820327759
0.496234961,0,0,1.766920804977417,0,0,1.1466000080108643
0.497235133,0,0,1.460463047027588,0,0,0.9172800183296204
0.498235991,0,0,1.53707754611969,0,0,0.9172800183296204
0.499246977,0,0,1.3000515699386597,0,0,1.1466000080108643
0.500235779,0,0,1.522712230682373,0,0,0.7644000053405762
0.501235081,0,0,1.4197616577148438,0,0,1.1466000080108643
0.50223592,0,0,1.3982137441635132,0,0,0.6879600286483765
0.503234129,0,0,1.5873557329177856,0,0,0.611519992351532
0.504235209,0,0,1.5729905366897583,0,0,1.070159912109375
0.505235029,0,0,1.4676456451416016,0,0,0.8408399820327759
0.50623585,0,0,1.7980455160140991,0,0,0.6879600286483765
0.507233929,0,0,1.5275006294250488,0,0,0.9172800183296204
0.508235213,0,0,1.3024457693099976,0,0,1.223039984703064
0.509235274,0,0,1.381454348564148,0,0,0.9172800183296204
0.510235909,0,0,1.3694833517074585,0,0,0.9937199950218201
0.511234525,0,0,1.4700398445129395,0,0,0.7644000053405762
0.512234975,0,0,1.4700398445129395,0,0,0.9937199950218201
0.513271851,0,0,1.4724340438842773,0,0,0.9937199950218201
0.514237561,0,0,1.6041151285171509,0,0,0.9937199950218201
0.515235399,0,0,1.6160861253738403,0,0,-0.152879998087883
0.516235201,0,0,1.4269442558288574,0,0,0.9172800183296204
0.517235022,0,0,1.7166426181793213,0,0,0.8408399820327759
0.518237157,0,0,1.4197616577148438,0,0,1.1466000080108643
0.519242477,0,0,1.400607943534851,0,0,0.4586400091648102
0.520267353,0,0,1.3862427473068237,0,0,1.1466000080108643
0.521264617,0,0,1.403002142906189,0,0,0.8408399820327759
0.522305641,0,0,1.4676456451416016,0,0,1.1466000080108643
0.523328572,0,0,1.4413094520568848,0,0,0.9172800183296204
0.524325133,0,0,1.5442601442337036,0,0,0.4586400091648102
0.525284176,0,0,1.6041151285171509,0,0,1.223039984703064
0.526342626,0,0,1.4676456451416016,0,0,1.070159912109375
0.527293576,0,0,1.6927006244659424,0,0,0.5350799560546875
0.528306878,0,0,1.5131354331970215,0,0,0.9172800183296204
0.529290772,0,0,1.400607943534851,0,0,1.1466000080108643
0.530296408,0,0,1.4293384552001953,0,0,0.8408399820327759
0.531297691,0,0,1.3048399686813354,0,0,1.070159912109375
0.532319937,0,0,1.4508862495422363,0,0,0.6879600286483765
0.53338209,0,0,1.3862427473068237,0,0,0.611519992351532
0.534332022,0,0,1.482010841369629,0,0,0.8408399820327759
0.535366934,0,0,1.5705963373184204,0,0,1.2994799613952637
0.536328459,0,0,1.5394717454910278,0,0,0.305759996175766
0.537299761,0,0,1.4987702369689941,0,0,0.8408399820327759
0.538365117,0,0,1.7381904125213623,0,0,1.070159912109375
0.539313068,0,0,1.5442601442337036,0,0,0.8408399820327759
0.540295537,0,0,1.4293384552001953,0,0,0.5350799560546875
0.541320357,0,0,1.403002142906189,0,0,0.9172800183296204
0.542306863,0,0,1.4772224426269531,0,0,0.8408399820327759
0.54329435,0,0,1.4413094520568848,0,0,1.1466000080108643
0.544312781,0,0,1.4245500564575195,0,0,0.8408399820327759
0.545312583,0,0,1.5969325304031372,0,0,0.6879600286483765
0.546316848,0,0,1.558625340461731,0,0,1.452359914779663
0.54725278,0,0,1.5682021379470825,0,0,0.8408399820327759
0.548260545,0,0,1.5179238319396973,0,0,0.5350799560546875
0.549245198,0,0,1.4173674583435059,0,0,0.8408399820327759
0.550238574,0,0,1.3623007535934448,0,0,0.6879600286483765
0.55123821,0,0,1.4963760375976563,0,0,0.7644000053405762
0.552249289,0,0,1.5610195398330688,0,0,1.223039984703064
0.553236202,0,0,1.4652514457702637,0,0,0.8408399820327759
0.554237467,0,0,1.357512354850769,0,0,0.7644000053405762
0.555246232,0,0,1.4987702369689941,0,0,0.8408399820327759
0.556300236,0,0,1.5634137392044067,0,0,0.6879600286483765
0.557268168,0,0,1.5849615335464478,0,0,0.0764399990439415
0.558329617,0,0,1.3958195447921753,0,0,0.9172800183296204
0.559253994,0,0,1.6735470294952393,0,0,0.8408399820327759
0.560242111,0,0,1.4413094520568848,0,0,0.5350799560546875
0.561242265,0,0,1.482010841369629,0,0,1.070159912109375
0.562250381,0,0,1.436521053314209,0,0,0.6879600286483765
0.56325372,0,0,1.4389152526855469,0,0,0.8408399820327759
0.564248226,0,0,1.4413094520568848,0,0,0.8408399820327759
0.565248305,0,0,1.3982137441635132,0,0,0.8408399820327759
0.566250311,0,0,1.50355863571167,0,0,0.8408399820327759
0.567250705,0,0,1.580173134803772,0,0,1.6816799640655518
0.568246859,0,0,1.4844050407409668,0,0,0.152879998087883
0.569256809,0,0,1.800439715385437,0,0,0.8408399820327759
0.570444553,0,0,1.6543933153152466,0,0,0.5350799560546875
0.57142404,0,0,1.290474772453308,0,0,1.070159912109375
0.572275547,0,0,1.3838485479354858,0,0,0.6879600286483765
0.573259312,0,0,1.256955862045288,0,0,1.1466000080108643
0.574319132,0,0,1.5322890281677246,0,0,0.4586400091648102
0.575338026,0,0,1.4389152526855469,0,0,0.9172800183296204
0.576258736,0,0,1.5107412338256836,0,0,0.9172800183296204
0.577257075,0,0,1.577778935432434,0,0,0.4586400091648102
0.578283895,0,0,1.5298948287963867,0,0,0.3822000026702881
0.579252531,0,0,1.3455413579940796,0,0,0.9937199950218201
0.580255166,0,0,1.7573440074920654,0,0,0.9172800183296204
0.58126219,0,0,1.4915876388549805,0,0,0.7644000053405762
0.582289084,0,0,1.482010841369629,0,0,1.070159912109375
0.583254479,0,0,1.3862427473068237,0,0,0.9172800183296204
0.584254114,0,0,1.3623007535934448,0,0,1.223039984703064
0.58526399,0,0,1.3646949529647827,0,0,0.9937199950218201
0.586286717,0,0,1.2713210582733154,0,0,0.6879600286483765
0.587258038,0,0,1.4676456451416016,0,0,0.611519992351532
0.588265784,0,0,1.6543933153152466,0,0,1.6816799640655518
0.589286771,0,0,1.50355863571167,0,0,0.305759996175766
0.59026124,0,0,1.678335428237915,0,0,0.6879600286483765
0.591278726,0,0,1.580173134803772,0,0,1.070159912109375
0.592257973,0,0,1.4389152526855469,0,0,0.9937199950218201
0.593262978,0,0,1.4867992401123047,0,0,0.611519992351532
0.594250688,0,0,1.2952631711959839,0,0,0.9172800183296204
0.595254545,0,0,1.4700398445129395,0,0,0.9172800183296204
0.59625181,0,0,1.3934253454208374,0,0,0.8408399820327759
0.597435461,0,0,1.482010841369629,0,0,0.9937199950218201
0.598280339,0,0,1.5394717454910278,0,0,0.3822000026702881
0.599254012,0,0,1.580173134803772,0,0,0.8408399820327759
0.60026785,0,0,1.4245500564575195,0,0,1.1466000080108643
0.601251467,0,0,1.623268723487854,0,0,0.611519992351532
0.602248343,0,0,1.5322890281677246,0,0,0.5350799560546875
0.603274497,0,0,1.4748282432556152,0,0,0.8408399820327759
0.604302168,0,0,1.4748282432556152,0,0,0.8408399820327759
0.605309137,0,0,1.4053963422775269,0,0,0.9937199950218201
0.60632742,0,0,1.5179238319396973,0,0,1.070159912109375
0.607292704,0,0,1.414973258972168,0,0,0.8408399820327759
0.608291746,0,0,1.4987702369689941,0,0,0.7644000053405762
0.609298585,0,0,1.5442601442337036,0,0,1.2994799613952637
0.61031259,0,0,1.4987702369689941,0,0,0.305759996175766
0.611262763,0,0,1.5682021379470825,0,0,0.9172800183296204
0.612315731,0,0,1.599326729774475,0,0,0.8408399820327759
0.613330088,0,0,1.4413094520568848,0,0,0.9172800183296204
0.614365797,0,0,1.4628572463989258,0,0,0.611519992351532
0.61528147,0,0,1.3239935636520386,0,0,1.070159912109375
0.616352956,0,0,1.3862427473068237,0,0,0.6879600286483765
0.617304796,0,0,1.3623007535934448,0,0,0.9937199950218201
0.618326005,0,0,1.4245500564575195,0,0,0.7644000053405762
0.61937788,0,0,1.5921441316604614,0,0,0.305759996175766
0.620308683,0,0,1.577778935432434,0,0,1.070159912109375
0.621284096,0,0,1.501164436340332,0,0,1.070159912109375
0.622355878,0,0,1.6615760326385498,0,0,0.7644000053405762
0.623293274,0,0,1.5514427423477173,0,0,0.9937199950218201
0.624364834,0,0,1.2976573705673218,0,0,0.9172800183296204
0.625295581,0,0,1.3431471586227417,0,0,0.8408399820327759
0.626332271,0,0,1.3263877630233765,0,0,1.070159912109375
0.627314573,0,0,1.4652514457702637,0,0,0.6879600286483765
0.628284227,0,0,1.3910311460494995,0,0,0.7644000053405762
0.629264789,0,0,1.522712230682373,0,0,0.9937199950218201
0.630287479,0,0,1.601720929145813,0,0,1.375920057296753
0.631261522,0,0,1.525106430053711,0,0,0.2293200045824051
0.632289675,0,0,1.5155296325683594,0,0,0.9172800183296204
0.633249959,0,0,1.6352397203445435,0,0,0.8408399820327759
0.634245742,0,0,1.3503297567367554,0,0,0.9172800183296204
0.635243415,0,0,1.436521053314209,0,0,0.611519992351532
0.636236679,0,0,1.3646949529647827,0,0,0.9172800183296204
0.637236981,0,0,1.5131354331970215,0,0,0.9172800183296204
0.638239042,0,0,1.4197616577148438,0,0,0.8408399820327759
0.639240307,0,0,1.4173674583435059,0,0,1.070159912109375
0.64023835,0,0,1.601720929145813,0,0,0.611519992351532
0.64123567,0,0,1.5873557329177856,0,0,1.1466000080108643
0.642240527,0,0,1.3551181554794312,0,0,0.9937199950218201
0.64325307,0,0,1.6328455209732056,0,0,0.6879600286483765
0.644307186,0,0,1.5418659448623657,0,0,0.9172800183296204
0.645276229,0,0,1.4652514457702637,0,0,1.070159912109375
0.646244142,0,0,1.5394717454910278,0,0,0.7644000053405762
0.647240666,0,0,1.4700398445129395,0,0,1.070159912109375
0.648240727,0,0,1.601720929145813,0,0,0.611519992351532
0.649239788,0,0,1.3934253454208374,0,0,0.8408399820327759
0.650241368,0,0,1.4915876388549805,0,0,0.8408399820327759
0.651239948,0,0,1.6304513216018677,0,0,1.375920057296753
0.65223849,0,0,1.5083470344543457,0,0,0.2293200045824051
0.653236959,0,0,1.4939818382263184,0,0,0.7644000053405762
0.654240649,0,0,1.7860745191574097,0,0,0.8408399820327759
0.655240303,0,0,1.501164436340332,0,0,0.8408399820327759
0.656238068,0,0,1.4939818382263184,0,0,0.305759996175766
0.657261073,0,0,1.3407529592514038,0,0,0.9172800183296204
0.658322393,0,0,1.4389152526855469,0,0,0.9172800183296204
0.65935625,0,0,1.4460978507995605,0,0,0.7644000053405762
0.661163633,0,0,1.4460978507995605,0,0,-0.4586400091648102
0.661380316,0,0,1.5682021379470825,0,0,0.5350799560546875
0.662362285,0,0,1.6041151285171509,0,0,1.2994799613952637
0.663336809,0,0,1.525106430053711,0,0,0.7644000053405762
0.66430113,0,0,1.5729905366897583,0,0,0.9937199950218201
0.665887109,0,0,1.5729905366897583,0,0,0.8408399820327759
0.666253364,0,0,1.522712230682373,0,0,0.8408399820327759
0.667242758,0,0,1.4508862495422363,0,0,0.6879600286483765
0.668232893,0,0,1.4293384552001953,0,0,0.9172800183296204
0.669232418,0,0,1.5107412338256836,0,0,0.7644000053405762
0.670233293,0,0,1.460463047027588,0,0,0.8408399820327759
0.671240706,0,0,1.556231141090393,0,0,0.9172800183296204
0.672233767,0,0,1.7046716213226318,0,0,0.6879600286483765
0.673232254,0,0,1.525106430053711,0,0,0
0.674238167,0,0,1.4987702369689941,0,0,1.070159912109375
0.675237117,0,0,1.7262194156646729,0,0,0.9937199950218201
0.676231734,0,0,1.460463047027588,0,0,0.7644000053405762
0.677232999,0,0,1.455674648284912,0,0,0.7644000053405762
0.678232764,0,0,1.3239935636520386,0,0,0.9937199950218201
0.679232343,0,0,1.5131354331970215,0,0,0.9937199950218201
0.680232238,0,0,1.482010841369629,0,0,0.611519992351532
0.681243428,0,0,1.4389152526855469,0,0,0.6879600286483765
0.682234526,0,0,1.5514427423477173,0,0,0.7644000053405762
0.683232921,0,0,1.6208745241165161,0,0,1.6816799640655518
0.684232315,0,0,1.4700398445129395,0,0,0.9172800183296204
0.685232024,0,0,1.6615760326385498,0,0,0.4586400091648102
0.686232956,0,0,1.6496049165725708,0,0,0.8408399820327759
0.687233091,0,0,1.4245500564575195,0,0,1.1466000080108643
0.688232319,0,0,1.381454348564148,0,0,0.5350799560546875
0.689232343,0,0,1.3551181554794312,0,0,0.9937199950218201
0.690233811,0,0,1.5298948287963867,0,0,0.9172800183296204
0.691233835,0,0,1.434126853942871,0,0,0.9172800183296204
0.692232322,0,0,1.5418659448623657,0,0,1.1466000080108643
0.693232291,0,0,1.5921441316604614,0,0,0.7644000053405762
0.694232574,0,0,1.501164436340332,0,0,0.2293200045824051
0.69523295,0,0,1.4437036514282227,0,0,1.070159912109375
0.696232085,0,0,1.766920804977417,0,0,0.7644000053405762
0.697231813,0,0,1.53707754611969,0,0,0.611519992351532
0.698233393,0,0,1.5107412338256836,0,0,0.9172800183296204
0.699232769,0,0,1.3886369466781616,0,0,0.9937199950218201
0.700232219,0,0,1.4389152526855469,0,0,0.9937199950218201
0.701231891,0,0,1.455674648284912,0,0,0.9937199950218201
0.702232507,0,0,1.4700398445129395,0,0,1.070159912109375
0.703232568,0,0,1.5634137392044067,0,0,0.5350799560546875
0.70423213,0,0,1.558625340461731,0,0,1.605239987373352
0.705233117,0,0,1.414973258972168,0,0,0.5350799560546875
0.706232715,0,0,1.5873557329177856,0,0,0.611519992351532
0.707232516,0,0,1.6376339197158813,0,0,0.9172800183296204
0.708232078,0,0,1.3886369466781616,0,0,1.1466000080108643
0.709232009,0,0,1.4652514457702637,0,0,0.611519992351532
0.710234515,0,0,1.3551181554794312,0,0,1.070159912109375
0.711236205,0,0,1.50355863571167,0,0,0.9172800183296204
0.712235211,0,0,1.4245500564575195,0,0,0.9937199950218201
0.713234827,0,0,1.5275006294250488,0,0,0.7644000053405762
0.714236148,0,0,1.6711528301239014,0,0,0.611519992351532
0.715234987,0,0,1.5466543436050415,0,0,0.3822000026702881
0.716234677,0,0,1.4484920501708984,0,0,1.070159912109375
0.717234942,0,0,1.7046716213226318,0,0,1.070159912109375
0.71823704,0,0,1.400607943534851,0,0,0.611519992351532
0.719234712,0,0,1.41257905960083,0,0,0.9172800183296204
0.720234959,0,0,1.3623007535934448,0,0,0.9172800183296204
0.721235205,0,0,1.4197616577148438,0,0,0.9937199950218201
0.722238729,0,0,1.5705963373184204,0,0,0.6879600286483765
0.723234327,0,0,1.45806884765625,0,0,0.6879600286483765
0.724257443,0,0,1.5682021379470825,0,0,0.9937199950218201
0.725235338,0,0,1.6376339197158813,0,0,1.605239987373352
0.726236047,0,0,1.4891934394836426,0,0,0.3822000026702881
0.72723396,0,0,1.5682021379470825,0,0,0.611519992351532
0.728234855,0,0,1.580173134803772,0,0,0.9172800183296204
0.729235101,0,0,1.4245500564575195,0,0,1.070159912109375
0.73023644,0,0,1.5131354331970215,0,0,0.611519992351532
0.731234797,0,0,1.359906554222107,0,0,1.1466000080108643
0.732235099,0,0,1.4460978507995605,0,0,0.9172800183296204
0.733235012,0,0,1.3958195447921753,0,0,1.1466000080108643
0.734236092,0,0,1.4939818382263184,0,0,0.8408399820327759
0.735233986,0,0,1.577778935432434,0,0,0.2293200045824051
0.736234973,0,0,1.522712230682373,0,0,0.0764399990439415
0.737234775,0,0,1.4963760375976563,0,0,0.9937199950218201
0.738235392,0,0,1.7980455160140991,0,0,0.8408399820327759
0.739234379,0,0,1.4652514457702637,0,0,0.8408399820327759
0.740238921,0,0,1.3958195447921753,0,0,0.7644000053405762
0.741235871,0,0,1.3718775510787964,0,0,0.8408399820327759
0.742235543,0,0,1.4724340438842773,0,0,0.8408399820327759
0.743232327,0,0,1.4389152526855469,0,0,0.7644000053405762
0.744247258,0,0,1.3263877630233765,0,0,0.7644000053405762
0.745236264,0,0,1.5155296325683594,0,0,0.6879600286483765
0.746236639,0,0,1.5442601442337036,0,0,1.8345600366592407
0.747252626,0,0,1.4317326545715332,0,0,0.2293200045824051
0.748236354,0,0,1.6543933153152466,0,0,0.6879600286483765
0.749235508,0,0,1.6184803247451782,0,0,1.070159912109375
0.75023668,0,0,1.45806884765625,0,0,1.2994799613952637
0.75123426,0,0,1.460463047027588,0,0,0.5350799560546875
0.752235321,0,0,1.2665326595306396,0,0,0.611519992351532
0.753235104,0,0,1.4748282432556152,0,0,0.611519992351532
0.754237054,0,0,1.3910311460494995,0,0,0.9172800183296204
0.755259133,0,0,1.4867992401123047,0,0,0.9937199950218201
0.756236658,0,0,1.580173134803772,0,0,0.3822000026702881
0.757235071,0,0,1.6065093278884888,0,0,0.8408399820327759
0.758235798,0,0,1.525106430053711,0,0,1.070159912109375
0.759232211,0,0,1.702277421951294,0,0,0.8408399820327759
0.760232328,0,0,1.4389152526855469,0,0,0.8408399820327759
0.761232445,0,0,1.45806884765625,0,0,0.9172800183296204
0.762235006,0,0,1.3623007535934448,0,0,0.9172800183296204
0.763236382,0,0,1.3503297567367554,0,0,0.9937199950218201
0.764234665,0,0,1.4437036514282227,0,0,0.7644000053405762
0.765234782,0,0,1.4221558570861816,0,0,0.611519992351532
0.766234472,0,0,1.5729905366897583,0,0,0.9937199950218201
0.767234922,0,0,1.6615760326385498,0,0,0.6879600286483765
0.768234983,0,0,1.4748282432556152,0,0,0.2293200045824051
0.769238563,0,0,1.5729905366897583,0,0,0.7644000053405762
0.770234587,0,0,1.702277421951294,0,0,0.9937199950218201
0.7712345,0,0,1.4101848602294922,0,0,0.8408399820327759
0.77224382,0,0,1.5131354331970215,0,0,0.5350799560546875
0.773234937,0,0,1.414973258972168,0,0,0.9172800183296204
0.774235128,0,0,1.5298948287963867,0,0,0.8408399820327759
0.775235744,0,0,1.4101848602294922,0,0,0.8408399820327759
0.77623475,0,0,1.3886369466781616,0,0,0.9937199950218201
0.777234903,0,0,1.525106430053711,0,0,0.611519992351532
0.77823565,0,0,1.5418659448623657,0,0,1.1466000080108643
0.779234285,0,0,1.4317326545715332,0,0,1.070159912109375
0.780234994,0,0,1.7357962131500244,0,0,0.8408399820327759
0.78123474,0,0,1.5203180313110352,0,0,0.6879600286483765
0.782235079,0,0,1.4724340438842773,0,0,1.1466000080108643
0.783234844,0,0,1.436521053314209,0,0,0.9172800183296204
0.784234387,0,0,1.3862427473068237,0,0,0.9937199950218201
0.785234744,0,0,1.400607943534851,0,0,0.7644000053405762
0.78623562,0,0,1.4652514457702637,0,0,0.7644000053405762
0.787234218,0,0,1.6112977266311646,0,0,0.8408399820327759
0.788234149,0,0,1.599326729774475,0,0,1.223039984703064
0.789234636,0,0,1.4652514457702637,0,0,0.152879998087883
0.790235846,0,0,1.5610195398330688,0,0,0.9172800183296204
0.791234296,0,0,1.5849615335464478,0,0,0.9937199950218201
0.792234857,0,0,1.3623007535934448,0,0,0.9172800183296204
0.793234862,0,0,1.4077905416488647,0,0,0.152879998087883
0.794235794,0,0,1.357512354850769,0,0,0.7644000053405762
0.795234744,0,0,1.5729905366897583,0,0,1.2994799613952637
0.79623486,0,0,1.436521053314209,0,0,0.9172800183296204
0.797234773,0,0,1.4293384552001953,0,0,0.8408399820327759
0.798235945,0,0,1.5682021379470825,0,0,0.6879600286483765
0.799233988,0,0,1.5682021379470825,0,0,1.375920057296753
0.800236308,0,0,1.4987702369689941,0,0,0.9172800183296204
0.801234481,0,0,1.7836803197860718,0,0,0.9172800183296204
0.802236097,0,0,1.558625340461731,0,0,0.9937199950218201
0.803233825,0,0,1.4293384552001953,0,0,0.8408399820327759
0.804234886,0,0,1.3287819623947144,0,0,1.2994799613952637
0.805234466,0,0,1.3551181554794312,0,0,1.1466000080108643
0.806235397,0,0,1.5322890281677246,0,0,0.8408399820327759
0.807233903,0,0,1.455674648284912,0,0,0.9937199950218201
0.808234649,0,0,1.5107412338256836,0,0,0.9937199950218201
0.809234117,0,0,1.5610195398330688,0,0,0.4586400091648102
0.810235678,0,0,1.4748282432556152,0,0,0.2293200045824051
0.811233943,0,0,1.6184803247451782,0,0,0.9172800183296204
0.812234708,0,0,1.6112977266311646,0,0,0.7644000053405762
0.813234806,0,0,1.3479355573654175,0,0,1.223039984703064
0.814235534,0,0,1.525106430053711,0,0,0.3822000026702881
0.815247761,0,0,1.3479355573654175,0,0,1.070159912109375
0.816236675,0,0,1.479616641998291,0,0,0.7644000053405762
0.817234828,0,0,1.37906014919281,0,0,0.611519992351532
0.818236649,0,0,1.4700398445129395,0,0,0.611519992351532
0.819239969,0,0,1.656787633895874,0,0,0.6879600286483765
0.820235345,0,0,1.623268723487854,0,0,1.452359914779663
0.821238147,0,0,1.5083470344543457,0,0,0.7644000053405762
0.822235893,0,0,1.7142484188079834,0,0,0.9172800183296204
0.823234028,0,0,1.3503297567367554,0,0,0.5350799560546875
0.82423696,0,0,1.3527239561080933,0,0,1.2994799613952637
0.825235076,0,0,1.3335703611373901,0,0,1.070159912109375
0.826236063,0,0,1.3215993642807007,0,0,1.223039984703064
0.827234476,0,0,1.4293384552001953,0,0,0.611519992351532
0.828234908,0,0,1.4317326545715332,0,0,0.7644000053405762
0.829234783,0,0,1.5466543436050415,0,0,1.070159912109375
0.830235863,0,0,1.5897499322891235,0,0,0.305759996175766
0.831233461,0,0,1.5514427423477173,0,0,0.5350799560546875
0.83223493,0,0,1.4891934394836426,0,0,1.223039984703064
0.833234732,0,0,1.6543933153152466,0,0,0.9937199950218201
0.834235496,0,0,1.4269442558288574,0,0,0.9172800183296204
0.835234335,0,0,1.4676456451416016,0,0,0.6879600286483765
0.836234693,0,0,1.4197616577148438,0,0,0.611519992351532
0.837234883,0,0,1.5107412338256836,0,0,1.1466000080108643
0.838235592,0,0,1.525106430053711,0,0,0.9172800183296204
0.839234413,0,0,1.4915876388549805,0,0,0.4586400091648102
0.840234733,0,0,1.4724340438842773,0,0,0.6879600286483765
0.841234813,0,0,1.6089035272598267,0,0,1.375920057296753
0.842235448,0,0,1.4269442558288574,0,0,0.305759996175766
0.843234139,0,0,1.6759412288665771,0,0,0.6879600286483765
0.844234922,0,0,1.4676456451416016,0,0,0.611519992351532
0.845234872,0,0,1.4245500564575195,0,0,0.9172800183296204
0.8462356,0,0,1.4652514457702637,0,0,0.9937199950218201
0.847234216,0,0,1.3287819623947144,0,0,0.9937199950218201
0.84823474,0,0,1.5275006294250488,0,0,0.6879600286483765
0.849234283,0,0,1.4676456451416016,0,0,0.9172800183296204
0.850235566,0,0,1.5107412338256836,0,0,0.8408399820327759
0.851234109,0,0,1.6519991159439087,0,0,0.4586400091648102
0.852234207,0,0,1.5059528350830078,0,0,0.6879600286483765
0.853234842,0,0,1.5059528350830078,0,0,1.223039984703064
0.854235625,0,0,1.6735470294952393,0,0,0.9937199950218201
0.85523439,0,0,1.4437036514282227,0,0,1.223039984703064
0.856234766,0,0,1.4508862495422363,0,0,0.3822000026702881
0.857234716,0,0,1.335964560508728,0,0,0.9937199950218201
0.858235518,0,0,1.4748282432556152,0,0,1.070159912109375
0.859234246,0,0,1.4460978507995605,0,0,1.070159912109375
0.860234825,0,0,1.4939818382263184,0,0,0.611519992351532
0.861235016,0,0,1.6089035272598267,0,0,0.8408399820327759
0.86223541,0,0,1.6615760326385498,0,0,1.8345600366592407
0.863234305,0,0,1.4293384552001953,0,0,0.611519992351532
0.864234681,0,0,1.6735470294952393,0,0,0.5350799560546875
0.865234816,0,0,1.4101848602294922,0,0,0.611519992351532
0.866235525,0,0,1.4939818382263184,0,0,1.1466000080108643
0.867234086,0,0,1.5107412338256836,0,0,1.070159912109375
0.868234777,0,0,1.3862427473068237,0,0,1.1466000080108643
0.869234745,0,0,1.4939818382263184,0,0,0.6879600286483765
0.870234936,0,0,1.3910311460494995,0,0,1.223039984703064
0.871235775,0,0,1.525106430053711,0,0,0.8408399820327759
0.872234299,0,0,1.6376339197158813,0,0,0.5350799560546875
0.87323449,0,0,1.4748282432556152,0,0,0.7644000053405762
0.87423518,0,0,1.53707754611969,0,0,0.9172800183296204
0.875234945,0,0,1.6543933153152466,0,0,0.6879600286483765
0.876234951,0,0,1.4628572463989258,0,0,0.9172800183296204
0.877234938,0,0,1.4460978507995605,0,0,0.6879600286483765
0.878235758,0,0,1.316810965538025,0,0,0.9937199950218201
0.879234171,0,0,1.5275006294250488,0,0,0.9172800183296204
0.880234788,0,0,1.4293384552001953,0,0,0.9937199950218201
0.881234756,0,0,1.5059528350830078,0,0,0.8408399820327759
0.882235354,0,0,1.6136919260025024,0,0,1.070159912109375
0.883245563,0,0,1.522712230682373,0,0,1.375920057296753
0.884235532,0,0,1.3072341680526733,0,0,0
0.885234889,0,0,1.6663644313812256,0,0,0.7644000053405762
0.886235487,0,0,1.5538369417190552,0,0,1.1466000080108643
0.887234271,0,0,1.3958195447921753,0,0,1.375920057296753
0.888234813,0,0,1.4221558570861816,0,0,0.7644000053405762
0.889234949,0,0,1.3694833517074585,0,0,1.070159912109375
0.890235454,0,0,1.4724340438842773,0,0,0.6879600286483765
0.89123433,0,0,1.3407529592514038,0,0,1.1466000080108643
0.892234187,0,0,1.460463047027588,0,0,1.070159912109375
0.893235582,0,0,1.6112977266311646,0,0,0.5350799560546875
0.894316327,0,0,1.5059528350830078,0,0,0.7644000053405762
0.895261148,0,0,1.5849615335464478,0,0,0.8408399820327759
0.896234635,0,0,1.7956513166427612,0,0,0.8408399820327759
0.897236011,0,0,1.4317326545715332,0,0,0.6879600286483765
0.89825285,0,0,1.400607943534851,0,0,0.7644000053405762
0.8992368,0,0,1.3766659498214722,0,0,0.8408399820327759
0.900235695,0,0,1.479616641998291,0,0,1.1466000080108643
0.901234756,0,0,1.45806884765625,0,0,0.6879600286483765
0.902236113,0,0,1.5418659448623657,0,0,0.611519992351532
0.90323373,0,0,1.6065093278884888,0,0,0.611519992351532
0.904234606,0,0,1.623268723487854,0,0,1.223039984703064
0.905234778,0,0,1.37906014919281,0,0,0.4586400091648102
0.906235524,0,0,1.6280571222305298,0,0,0.7644000053405762
0.907234307,0,0,1.534683346748352,0,0,0.8408399820327759
0.908234794,0,0,1.4772224426269531,0,0,1.1466000080108643
0.909234726,0,0,1.4077905416488647,0,0,0.7644000053405762
0.910235361,0,0,1.316810965538025,0,0,1.223039984703064
0.911234255,0,0,1.4269442558288574,0,0,0.7644000053405762
0.912234576,0,0,1.4413094520568848,0,0,1.070159912109375
0.913234452,0,0,1.5538369417190552,0,0,0.611519992351532
0.914235531,0,0,1.5969325304031372,0,0,0.5350799560546875
0.915233926,0,0,1.5298948287963867,0,0,0.3822000026702881
0.91623469,0,0,1.460463047027588,0,0,1.070159912109375
0.917234159,0,0,1.5921441316604614,0,0,0.6879600286483765
0.918237109,0,0,1.2880805730819702,0,0,0.3822000026702881
0.919234577,0,0,1.4413094520568848,0,0,0.611519992351532
0.920234916,0,0,1.292868971824646,0,0,0.7644000053405762
0.921237385,0,0,1.41257905960083,0,0,1.223039984703064
0.922235927,0,0,1.4389152526855469,0,0,0.7644000053405762
0.923234636,0,0,1.4724340438842773,0,0,1.1466000080108643
0.924234827,0,0,1.5969325304031372,0,0,0.8408399820327759
0.925234851,0,0,1.5179238319396973,0,0,1.2994799613952637
0.926235783,0,0,1.4676456451416016,0,0,0.305759996175766
0.927234029,0,0,1.6328455209732056,0,0,0.8408399820327759
0.92823472,0,0,1.4915876388549805,0,0,0.9172800183296204
0.929234762,0,0,1.3910311460494995,0,0,1.223039984703064
0.930235323,0,0,1.3838485479354858,0,0,0.6879600286483765
0.931234125,0,0,1.2880805730819702,0,0,1.1466000080108643
0.932234723,0,0,1.436521053314209,0,0,0.6879600286483765
0.933234618,0,0,1.3766659498214722,0,0,0.9937199950218201
0.934235308,0,0,1.4939818382263184,0,0,0.7644000053405762
0.935233795,0,0,1.5538369417190552,0,0,0.2293200045824051
0.936234727,0,0,1.6065093278884888,0,0,0.4586400091648102
0.937234955,0,0,1.5203180313110352,0,0,1.223039984703064
0.938235368,0,0,1.7525556087493896,0,0,0.6879600286483765
0.939233762,0,0,1.3646949529647827,0,0,0.7644000053405762
0.940234675,0,0,1.414973258972168,0,0,1.223039984703064
0.941234847,0,0,1.314416766166687,0,0,0.5350799560546875
0.942235019,0,0,1.455674648284912,0,0,0.7644000053405762
0.943234043,0,0,1.3694833517074585,0,0,0.9937199950218201
0.944246919,0,0,1.4077905416488647,0,0,0.6879600286483765
0.945237036,0,0,1.5969325304031372,0,0,0.611519992351532
0.946235671,0,0,1.5705963373184204,0,0,1.5288000106811523
0.947251565,0,0,1.4915876388549805,0,0,0.152879998087883
0.948235441,0,0,1.6950948238372803,0,0,0.9937199950218201
0.949234632,0,0,1.4987702369689941,0,0,0.9172800183296204
0.950236286,0,0,1.4676456451416016,0,0,0.9937199950218201
0.951234551,0,0,1.5155296325683594,0,0,0.7644000053405762
0.952234426,0,0,1.3742717504501343,0,0,0.9937199950218201
0.953234673,0,0,1.5131354331970215,0,0,0.5350799560546875
0.954235345,0,0,1.4867992401123047,0,0,1.070159912109375
0.955234054,0,0,1.5131354331970215,0,0,0.8408399820327759
0.956234597,0,0,1.5969325304031372,0,0,0.6879600286483765
0.957235213,0,0,1.5705963373184204,0,0,0.5350799560546875
0.958235867,0,0,1.525106430053711,0,0,1.223039984703064
0.959233817,0,0,1.6711528301239014,0,0,0.611519992351532
0.96029347,0,0,1.3838485479354858,0,0,0.7644000053405762
0.961240661,0,0,1.5107412338256836,0,0,1.1466000080108643
0.962236556,0,0,1.314416766166687,0,0,1.1466000080108643
0.963235061,0,0,1.4101848602294922,0,0,1.070159912109375
0.964234734,0,0,1.4724340438842773,0,0,0.4586400091648102
0.965234795,0,0,1.5107412338256836,0,0,0.7644000053405762
0.966235356,0,0,1.647210717201233,0,0,1.070159912109375
0.967234417,0,0,1.556231141090393,0,0,1.375920057296753
0.968234589,0,0,1.4915876388549805,0,0,0.2293200045824051
0.969237224,0,0,1.7262194156646729,0,0,0.6879600286483765
0.970425857,0,0,1.4293384552001953,0,0,1.070159912109375
0.97123705,0,0,1.37906014919281,0,0,0.9172800183296204
0.972245333,0,0,1.4269442558288574,0,0,0.611519992351532
0.973236431,0,0,1.37906014919281,0,0,0.8408399820327759
0.97423927,0,0,1.534683346748352,0,0,0.5350799560546875
0.975236739,0,0,1.3407529592514038,0,0,1.070159912109375
0.976235115,0,0,1.3886369466781616,0,0,0.9172800183296204
0.977235787,0,0,1.5298948287963867,0,0,0.3822000026702881
0.978236089,0,0,1.5897499322891235,0,0,0.9172800183296204
0.979234965,0,0,1.522712230682373,0,0,0.8408399820327759
0.980235248,0,0,1.7477672100067139,0,0,0.4586400091648102
0.981235235,0,0,1.460463047027588,0,0,0.5350799560546875
0.982235611,0,0,1.4772224426269531,0,0,0.9937199950218201
0.983235135,0,0,1.3072341680526733,0,0,0.7644000053405762
0.9842354,0,0,1.414973258972168,0,0,0.9937199950218201
0.985235313,0,0,1.479616641998291,0,0,0.6879600286483765
0.986235818,0,0,1.4484920501708984,0,0,0.9172800183296204
0.987235194,0,0,1.599326729774475,0,0,1.070159912109375
0.988235329,0,0,1.6184803247451782,0,0,1.2994799613952637
0.989234853,0,0,1.3646949529647827,0,0,-0.152879998087883
0.99023597,0,0,1.625662922859192,0,0,0.8408399820327759
0.991235401,0,0,1.4891934394836426,0,0,0.9172800183296204
0.992234944,0,0,1.357512354850769,0,0,0.9172800183296204
0.993235116,0,0,1.4317326545715332,0,0,0.5350799560546875
0.99423627,0,0,1.4460978507995605,0,0,0.7644000053405762
0.995234572,0,0,1.5658079385757446,0,0,0.9172800183296204
0.996235633,0,0,1.4508862495422363,0,0,0.8408399820327759
0.997240101,0,0,1.4437036514282227,0,0,0.8408399820327759
0.998324439,0,0,1.5298948287963867,0,0,0.3822000026702881
0.9992985,0,0,1.5442601442337036,0,0,1.1466000080108643
1.000290969,0,0,1.525106430053711,0,0,0.8408399820327759
1.001278789,0,0,1.824381709098816,0,0,0.7644000053405762
1.002342831,0,0,1.4245500564575195,0,0,0.6879600286483765
1.003357744,0,0,1.482010841369629,0,0,0.9172800183296204
1.004312139,0,0,1.3670891523361206,0,0,0.9172800183296204
1.00528696,0,0,1.4245500564575195,0,0,0.9937199950218201
1.006289965,0,0,1.3958195447921753,0,0,0.9172800183296204
1.007263323,0,0,1.4077905416488647,0,0,0.7644000053405762
1.008265958,0,0,1.4987702369689941,0,0,0.7644000053405762
1.009291667,0,0,1.5634137392044067,0,0,1.2994799613952637
1.010336005,0,0,1.50355863571167,0,0,0
1.011300159,0,0,1.6663644313812256,0,0,0.9172800183296204
1.012283535,0,0,1.5442601442337036,0,0,0.6879600286483765
1.013287782,0,0,1.3838485479354858,0,0,1.1466000080108643
1.014391378,0,0,1.5059528350830078,0,0,0.4586400091648102
1.015303978,0,0,1.4700398445129395,0,0,1.070159912109375
1.016279798,0,0,1.558625340461731,0,0,0.7644000053405762
1.017273304,0,0,1.4293384552001953,0,0,0.9937199950218201
1.018253643,0,0,1.525106430053711,0,0,0.7644000053405762
1.019256297,0,0,1.6496049165725708,0,0,0.3822000026702881
1.020292079,0,0,1.556231141090393,0,0,0.9937199950218201
1.021255363,0,0,1.5538369417190552,0,0,1.223039984703064
1.022283498,0,0,1.7070658206939697,0,0,0.611519992351532
1.023268782,0,0,1.4939818382263184,0,0,0.5350799560546875
1.024258176,0,0,1.4700398445129395,0,0,0.5350799560546875
1.025504827,0,0,1.3670891523361206,0,0,0.8408399820327759
1.026293131,0,0,1.4867992401123047,0,0,1.1466000080108643
1.027240971,0,0,1.482010841369629,0,0,0.9937199950218201
1.028237921,0,0,1.482010841369629,0,0,0.4586400091648102
1.029238167,0,0,1.5945383310317993,0,0,1.070159912109375
1.030241746,0,0,1.623268723487854,0,0,0.9172800183296204
1.031244974,0,0,1.4676456451416016,0,0,0
1.032240369,0,0,1.6759412288665771,0,0,1.070159912109375
1.0332403000000001,0,0,1.525106430053711,0,0,0.9172800183296204
1.034241732,0,0,1.2761094570159912,0,0,0.8408399820327759
1.0352384589999999,0,0,1.4437036514282227,0,0,0.6879600286483765
1.036237224,0,0,1.280897855758667,0,0,0.9937199950218201
1.037237563,0,0,1.381454348564148,0,0,1.070159912109375
1.0382397349999999,0,0,1.3431471586227417,0,0,0.8408399820327759
1.039239944,0,0,1.4939818382263184,0,0,0.7644000053405762
1.040240265,0,0,1.5969325304031372,0,0,0.611519992351532
1.041248455,0,0,1.4772224426269531,0,0,0.9937199950218201
1.042243979,0,0,1.5155296325683594,0,0,1.1466000080108643
1.043443094,0,0,1.721431016921997,0,0,0.8408399820327759
1.044279138,0,0,1.37906014919281,0,0,0.9172800183296204
1.045263514,0,0,1.4077905416488647,0,0,0.7644000053405762
1.046289686,0,0,1.3431471586227417,0,0,0.9172800183296204
1.047287821,0,0,1.4987702369689941,0,0,0.9937199950218201
1.048291586,0,0,1.4508862495422363,0,0,0.611519992351532
1.049275647,0,0,1.381454348564148,0,0,0.611519992351532
1.050318226,0,0,1.556231141090393,0,0,1.070159912109375
1.051290455,0,0,1.6400281190872192,0,0,1.1466000080108643
1.052351941,0,0,1.4460978507995605,0,0,0.0764399990439415
1.053329224,0,0,1.6855180263519287,0,0,0.6879600286483765
1.054337656,0,0,1.5442601442337036,0,0,0.7644000053405762
1.055282792,0,0,1.4484920501708984,0,0,0.9937199950218201
1.056257057,0,0,1.45806884765625,0,0,0.305759996175766
1.057270581,0,0,1.3215993642807007,0,0,0.9937199950218201
1.0583015119999999,0,0,1.5825673341751099,0,0,0.9937199950218201
1.059272795,0,0,1.5131354331970215,0,0,1.223039984703064
1.060259005,0,0,1.5610195398330688,0,0,0.9937199950218201
1.061258251,0,0,1.6615760326385498,0,0,0.611519992351532
1.062259108,0,0,1.5322890281677246,0,0,1.070159912109375
1.063284891,0,0,1.5083470344543457,0,0,0.9172800183296204
1.0642811189999999,0,0,1.7142484188079834,0,0,0.6879600286483765
1.065272791,0,0,1.3646949529647827,0,0,0.611519992351532
1.066300945,0,0,1.4293384552001953,0,0,1.223039984703064
1.067279302,0,0,1.3694833517074585,0,0,0.9172800183296204
1.068272864,0,0,1.434126853942871,0,0,1.070159912109375
1.069289202,0,0,1.4700398445129395,0,0,0.8408399820327759
1.070581593,0,0,1.460463047027588,0,0,0.9937199950218201
1.071291028,0,0,1.5753847360610962,0,0,0.7644000053405762
1.072280126,0,0,1.599326729774475,0,0,1.375920057296753
1.073262762,0,0,1.4413094520568848,0,0,9.478560447692871
1.074245619,0,0,1.699883222579956,0,0,0.8408399820327759
1.075234755,0,0,1.5729905366897583,0,0,0.8408399820327759
1.076233094,0,0,1.403002142906189,0,0,0.9937199950218201
1.077232321,0,0,1.4460978507995605,0,0,0.4586400091648102
1.078232938,0,0,1.357512354850769,0,0,0.8408399820327759
1.079232943,0,0,1.455674648284912,0,0,1.070159912109375
1.080232282,0,0,1.3239935636520386,0,0,0.6879600286483765
1.08123238,0,0,1.5203180313110352,0,0,0.8408399820327759
1.082232867,0,0,1.7262194156646729,0,0,0.4586400091648102
1.083232614,0,0,1.6065093278884888,0,0,0.9172800183296204
1.084232267,0,0,1.5442601442337036,0,0,1.1466000080108643
1.085232273,0,0,1.7046716213226318,0,0,0.6879600286483765
1.086232612,0,0,1.335964560508728,0,0,0.611519992351532
1.08723308,0,0,1.4389152526855469,0,0,1.070159912109375
1.088232493,0,0,1.3910311460494995,0,0,0.6879600286483765
1.089232221,0,0,1.5083470344543457,0,0,1.070159912109375
1.090250708,0,0,1.4987702369689941,0,0,0.6879600286483765
1.091234528,0,0,1.4700398445129395,0,0,0.9172800183296204
1.09223283,0,0,1.556231141090393,0,0,0.9172800183296204
1.093232502,0,0,1.556231141090393,0,0,1.375920057296753
1.094232452,0,0,1.414973258972168,0,0,0
1.095233013,0,0,1.6304513216018677,0,0,1.1466000080108643
1.096232223,0,0,1.53707754611969,0,0,1.1466000080108643
1.097231765,0,0,1.400607943534851,0,0,0.611519992351532
1.098233011,0,0,1.455674648284912,0,0,1.070159912109375
1.099233517,0,0,1.3862427473068237,0,0,0.9937199950218201
1.100232078,0,0,1.4700398445129395,0,0,1.070159912109375
1.101232565,0,0,1.4772224426269531,0,0,0.8408399820327759
1.102232774,0,0,1.5394717454910278,0,0,0.8408399820327759
1.103232817,0,0,1.6927006244659424,0,0,0.4586400091648102
1.104232341,0,0,1.4867992401123047,0,0,0.5350799560546875
1.105231995,0,0,1.4963760375976563,0,0,0.9172800183296204
1.106233445,0,0,1.7262194156646729,0,0,0.8408399820327759
1.107232746,0,0,1.4724340438842773,0,0,0.7644000053405762
1.108232178,0,0,1.5394717454910278,0,0,0.7644000053405762
1.109232294,0,0,1.403002142906189,0,0,0.8408399820327759
1.110232707,0,0,1.4915876388549805,0,0,1.070159912109375
1.111232583,0,0,1.3551181554794312,0,0,0.5350799560546875
1.112232126,0,0,1.4460978507995605,0,0,1.070159912109375
1.113232131,0,0,1.5442601442337036,0,0,0.9937199950218201
1.11423273,0,0,1.5873557329177856,0,0,1.9109998941421509
1.115232513,0,0,1.5873557329177856,0,0,0
1.1162322040000001,0,0,1.4460978507995605,0,0,0.6879600286483765
1.117232042,0,0,1.6328455209732056,0,0,1.223039984703064
1.118234252,0,0,1.5083470344543457,0,0,0.6879600286483765
1.119231739,0,0,1.37906014919281,0,0,0.7644000053405762
1.120232207,0,0,1.3718775510787964,0,0,0.9937199950218201
1.12123275,0,0,1.3838485479354858,0,0,0.9172800183296204
1.122235829,0,0,1.501164436340332,0,0,0.6879600286483765
1.123232983,0,0,1.3838485479354858,0,0,0.9172800183296204
1.124233544,0,0,1.5107412338256836,0,0,0.4586400091648102
1.125234235,0,0,1.4987702369689941,0,0,0.7644000053405762
1.126234111,0,0,1.4748282432556152,0,0,0.8408399820327759
1.127237042,0,0,1.5203180313110352,0,0,0.6879600286483765
1.128235585,0,0,1.6280571222305298,0,0,0.7644000053405762
1.129236072,0,0,1.3335703611373901,0,0,0.9172800183296204
1.130236281,0,0,1.4700398445129395,0,0,0.7644000053405762
1.1312353609999999,0,0,1.4077905416488647,0,0,0.9937199950218201
1.132236903,0,0,1.501164436340332,0,0,0.5350799560546875
1.133235427,0,0,1.4221558570861816,0,0,0.9937199950218201
1.134236247,0,0,1.482010841369629,0,0,0.7644000053405762
1.135234216,0,0,1.599326729774475,0,0,1.5288000106811523
1.136235296,0,0,1.6687586307525635,0,0,0.0764399990439415
1.137235153,0,0,1.455674648284912,0,0,0.8408399820327759
1.13823577,0,0,1.7166426181793213,0,0,0.9172800183296204
1.13923446,0,0,1.5131354331970215,0,0,0.9172800183296204
1.140234929,0,0,1.359906554222107,0,0,0.611519992351532
1.1412351570000001,0,0,1.5083470344543457,0,0,0.9937199950218201
1.142236069,0,0,1.4077905416488647,0,0,0.9172800183296204
1.143234075,0,0,1.580173134803772,0,0,1.1466000080108643
1.144261358,0,0,1.5298948287963867,0,0,0.6879600286483765
1.145276937,0,0,1.5298948287963867,0,0,0.7644000053405762
1.146247277,0,0,1.5322890281677246,0,0,0.8408399820327759
1.147234819,0,0,1.5538369417190552,0,0,0.9172800183296204
1.148234973,0,0,1.5203180313110352,0,0,0.7644000053405762
1.149235127,0,0,1.7405846118927002,0,0,0.611519992351532
1.1502357619999999,0,0,1.4389152526855469,0,0,0.9937199950218201
1.151234434,0,0,1.4963760375976563,0,0,0.7644000053405762
1.152235532,0,0,1.37906014919281,0,0,0.9937199950218201
1.153235149,0,0,1.4891934394836426,0,0,0.8408399820327759
1.154235951,0,0,1.3862427473068237,0,0,1.1466000080108643
1.155251974,0,0,1.4676456451416016,0,0,0.8408399820327759
1.156237258,0,0,1.625662922859192,0,0,0.611519992351532
1.157235375,0,0,1.6735470294952393,0,0,0
1.158235862,0,0,1.4772224426269531,0,0,0.9172800183296204
1.159234515,0,0,1.6400281190872192,0,0,1.1466000080108643
1.160235076,0,0,1.4987702369689941,0,0,0.8408399820327759
1.161234915,0,0,1.400607943534851,0,0,0.5350799560546875
1.162236273,0,0,1.5131354331970215,0,0,0.9172800183296204
1.163234593,0,0,1.2976573705673218,0,0,0.9172800183296204
1.164235691,0,0,1.5658079385757446,0,0,1.1466000080108643
1.165243104,0,0,1.3958195447921753,0,0,0.5350799560546875
1.1662371280000001,0,0,1.5131354331970215,0,0,0.7644000053405762
1.167234837,0,0,1.6089035272598267,0,0,0.6879600286483765
1.168235435,0,0,1.5514427423477173,0,0,0.7644000053405762
1.169239848,0,0,1.5298948287963867,0,0,0.8408399820327759
1.170234984,0,0,1.702277421951294,0,0,0.7644000053405762
1.171236471,0,0,1.3646949529647827,0,0,1.223039984703064
1.172243661,0,0,1.4772224426269531,0,0,0.7644000053405762
1.173235352,0,0,1.3886369466781616,0,0,1.070159912109375
1.17423582,0,0,1.4508862495422363,0,0,0.7644000053405762
1.1752329,0,0,1.4197616577148438,0,0,0.8408399820327759
1.176232424,0,0,1.4245500564575195,0,0,1.1466000080108643
1.177232356,0,0,1.556231141090393,0,0,0.7644000053405762
1.178235009,0,0,1.5897499322891235,0,0,0.2293200045824051
1.179237126,0,0,1.4963760375976563,0,0,0.5350799560546875
1.180235317,0,0,1.745373010635376,0,0,1.223039984703064
1.181235118,0,0,1.45806884765625,0,0,0.8408399820327759
1.18223568,0,0,1.3886369466781616,0,0,0.9172800183296204
1.183231722,0,0,1.3982137441635132,0,0,0.9172800183296204
1.184232339,0,0,1.3431471586227417,0,0,0.6879600286483765
1.185232474,0,0,1.4748282432556152,0,0,0.9937199950218201
1.186233924,0,0,1.3958195447921753,0,0,0.6879600286483765
1.187235466,0,0,1.5155296325683594,0,0,0.4586400091648102
1.188235379,0,0,1.6089035272598267,0,0,1.5288000106811523
1.1892352,0,0,1.4915876388549805,0,0,0.9937199950218201
1.190235742,0,0,1.4724340438842773,0,0,0.7644000053405762
1.191235192,0,0,1.699883222579956,0,0,0.7644000053405762
1.192235272,0,0,1.4245500564575195,0,0,1.1466000080108643
1.193235074,0,0,1.4508862495422363,0,0,0.6879600286483765
1.19423582,0,0,1.3263877630233765,0,0,1.223039984703064
1.195234677,0,0,1.4891934394836426,0,0,0.611519992351532
1.196235146,0,0,1.4748282432556152,0,0,0.7644000053405762
1.197236522,0,0,1.4676456451416016,0,0,0.9172800183296204
1.198237398,0,0,1.5849615335464478,0,0,0.8408399820327759
1.199234311,0,0,1.5466543436050415,0,0,0
1.200235631,0,0,1.3886369466781616,0,0,0.7644000053405762
1.201235359,0,0,1.764526605606079,0,0,1.070159912109375
1.202236235,0,0,1.5753847360610962,0,0,1.1466000080108643
1.203234203,0,0,1.4484920501708984,0,0,0.611519992351532
1.204235301,0,0,1.3838485479354858,0,0,0.8408399820327759
1.205235177,0,0,1.2545616626739502,0,0,0.6879600286483765
1.206235923,0,0,1.4724340438842773,0,0,1.070159912109375
1.207234484,0,0,1.4077905416488647,0,0,0.7644000053405762
1.20823462,0,0,1.5107412338256836,0,0,0.7644000053405762
1.209235273,0,0,1.580173134803772,0,0,1.758120059967041
1.210236001,0,0,1.5131354331970215,0,0,0.305759996175766
1.2112346920000001,0,0,1.534683346748352,0,0,0.6879600286483765
1.212235308,0,0,1.7070658206939697,0,0,0.5350799560546875
1.213235203,0,0,1.4053963422775269,0,0,1.452359914779663
1.214235579,0,0,1.5107412338256836,0,0,0.8408399820327759
1.215234769,0,0,1.4221558570861816,0,0,0.9937199950218201
1.2162350530000001,0,0,1.4652514457702637,0,0,0.611519992351532
1.217235243,0,0,1.414973258972168,0,0,0.7644000053405762
1.218236767,0,0,1.400607943534851,0,0,0.9937199950218201
1.219234255,0,0,1.6304513216018677,0,0,0.611519992351532
1.2202351120000001,0,0,1.599326729774475,0,0,0.5350799560546875
1.221236358,0,0,1.501164436340332,0,0,0.7644000053405762
1.222236253,0,0,1.7286136150360107,0,0,0.9172800183296204
1.223234036,0,0,1.5203180313110352,0,0,0.8408399820327759
1.22423593,0,0,1.4676456451416016,0,0,0.611519992351532
1.225235214,0,0,1.414973258972168,0,0,0.9937199950218201
1.226235682,0,0,1.3335703611373901,0,0,0.4586400091648102
1.227234521,0,0,1.4460978507995605,0,0,1.070159912109375
1.228235397,0,0,1.4221558570861816,0,0,0.6879600286483765
1.229235125,0,0,1.5155296325683594,0,0,0.305759996175766
1.23023513,0,0,1.5753847360610962,0,0,1.8345600366592407
1.231235321,0,0,1.5466543436050415,0,0,0.3822000026702881
1.23223516,0,0,1.5753847360610962,0,0,1.2994799613952637
1.233235147,0,0,1.6974890232086182,0,0,0.7644000053405762
1.23423593,0,0,1.3215993642807007,0,0,0.9937199950218201
1.235234639,0,0,1.4748282432556152,0,0,0.5350799560546875
1.236235237,0,0,1.292868971824646,0,0,1.1466000080108643
1.237235298,0,0,1.4748282432556152,0,0,0.611519992351532
1.238236119,0,0,1.5155296325683594,0,0,0.8408399820327759
1.239234661,0,0,1.4724340438842773,0,0,0.9937199950218201
1.240235037,0,0,1.5442601442337036,0,0,0.7644000053405762
1.241235395,0,0,1.723825216293335,0,0,0
1.242236233,0,0,1.5658079385757446,0,0,0.9172800183296204
1.243234795,0,0,1.7621324062347412,0,0,0.9937199950218201
1.244235078,0,0,1.5514427423477173,0,0,0.9937199950218201
1.245235287,0,0,1.292868971824646,0,0,0.611519992351532
1.246236033,0,0,1.335964560508728,0,0,0.8408399820327759
1.247235002,0,0,1.4413094520568848,0,0,0.8408399820327759
1.248234748,0,0,1.556231141090393,0,0,0.8408399820327759
1.249235254,0,0,1.403002142906189,0,0,0.9172800183296204
1.2502360000000001,0,0,1.5538369417190552,0,0,0.8408399820327759
1.251234246,0,0,1.5753847360610962,0,0,1.375920057296753
1.2522347329999999,0,0,1.5155296325683594,0,0,0.8408399820327759
1.253235257,0,0,1.5298948287963867,0,0,0.9937199950218201
1.254235948,0,0,1.699883222579956,0,0,0.6879600286483765
1.255234583,0,0,1.3311761617660522,0,0,1.070159912109375
1.256235329,0,0,1.4628572463989258,0,0,1.1466000080108643
1.257235224,0,0,1.3000515699386597,0,0,0.7644000053405762
1.258236044,0,0,1.5322890281677246,0,0,0.8408399820327759
1.259234698,0,0,1.3431471586227417,0,0,0.7644000053405762
1.260236555,0,0,1.455674648284912,0,0,1.070159912109375
1.261235764,0,0,1.580173134803772,0,0,0.8408399820327759
1.262236418,0,0,1.5394717454910278,0,0,0.305759996175766
1.263235238,0,0,1.4317326545715332,0,0,1.1466000080108643
1.264235151,0,0,1.7357962131500244,0,0,0.9172800183296204
1.26523512,0,0,1.5083470344543457,0,0,0.7644000053405762
1.266235959,0,0,1.4915876388549805,0,0,0.4586400091648102
1.26723465,0,0,1.4460978507995605,0,0,1.070159912109375
1.2682352479999999,0,0,1.4437036514282227,0,0,0.6879600286483765
1.269234735,0,0,1.4772224426269531,0,0,0.9172800183296204
1.270235999,0,0,1.4748282432556152,0,0,0.7644000053405762
1.271236542,0,0,1.6065093278884888,0,0,0.4586400091648102
1.272235177,0,0,1.6950948238372803,0,0,1.6816799640655518
1.273234812,0,0,1.5083470344543457,0,0,1.1466000080108643
1.274238151,0,0,1.4484920501708984,0,0,0.3822000026702881
1.275235083,0,0,1.599326729774475,0,0,0.7644000053405762
1.2762351619999999,0,0,1.3096283674240112,0,0,1.070159912109375
1.277235649,0,0,1.434126853942871,0,0,0.7644000053405762
1.278236173,0,0,1.2952631711959839,0,0,0.8408399820327759
1.279234327,0,0,1.3910311460494995,0,0,0.4586400091648102
1.280234999,0,0,1.4053963422775269,0,0,0.8408399820327759
1.281234968,0,0,1.53707754611969,0,0,0.9937199950218201
1.2822354360000001,0,0,1.53707754611969,0,0,0.8408399820327759
1.283235164,0,0,1.623268723487854,0,0,0.2293200045824051
1.284235169,0,0,1.5131354331970215,0,0,1.2994799613952637
1.285235286,0,0,1.6879122257232666,0,0,1.070159912109375
1.2862360879999999,0,0,1.4987702369689941,0,0,0.8408399820327759
1.28723426,0,0,1.4652514457702637,0,0,0.8408399820327759
1.288234914,0,0,1.3910311460494995,0,0,0.8408399820327759
1.289235253,0,0,1.37906014919281,0,0,0.8408399820327759
1.290235869,0,0,1.5394717454910278,0,0,0.7644000053405762
1.291231282,0,0,1.455674648284912,0,0,0.9172800183296204
1.292232491,0,0,1.5418659448623657,0,0,0.5350799560546875
1.2932322379999999,0,0,1.5538369417190552,0,0,1.2994799613952637
1.294234021,0,0,1.4844050407409668,0,0,0.9937199950218201
1.295236286,0,0,1.5969325304031372,0,0,0.3822000026702881
1.296235125,0,0,1.599326729774475,0,0,0.8408399820327759
1.297235278,0,0,1.3263877630233765,0,0,1.1466000080108643
1.298235821,0,0,1.4245500564575195,0,0,0.9172800183296204
1.299234345,0,0,1.3982137441635132,0,0,0.9937199950218201
1.30023485,0,0,1.5059528350830078,0,0,0.6879600286483765
1.301235912,0,0,1.4077905416488647,0,0,0.6879600286483765
1.302236047,0,0,1.4724340438842773,0,0,0.9172800183296204
1.3032340709999999,0,0,1.525106430053711,0,0,0.9937199950218201
1.304234965,0,0,1.5083470344543457,0,0,0
1.3052519519999999,0,0,1.4293384552001953,0,0,1.070159912109375
1.306237791,0,0,1.7286136150360107,0,0,0.9937199950218201
1.307235852,0,0,1.4963760375976563,0,0,0.6879600286483765
1.30823571,0,0,1.3742717504501343,0,0,0.611519992351532
1.309242771,0,0,1.4508862495422363,0,0,0.8408399820327759
1.3102374430000001,0,0,1.4173674583435059,0,0,0.9172800183296204
1.311234596,0,0,1.359906554222107,0,0,0.9937199950218201
1.312235435,0,0,1.3551181554794312,0,0,0.611519992351532
1.313235422,0,0,1.5514427423477173,0,0,0.3822000026702881
1.314235761,0,0,1.6184803247451782,0,0,1.2994799613952637
1.315234526,0,0,1.4963760375976563,0,0,0.7644000053405762
1.316234754,0,0,1.702277421951294,0,0,0.5350799560546875
1.317235093,0,0,1.6879122257232666,0,0,0.9172800183296204
1.318237172,0,0,1.4173674583435059,0,0,1.223039984703064
1.319234196,0,0,1.5179238319396973,0,0,0.8408399820327759
1.320235498,0,0,1.359906554222107,0,0,0.7644000053405762
1.321240892,0,0,1.3862427473068237,0,0,0.9172800183296204
1.322238361,0,0,1.3646949529647827,0,0,0.8408399820327759
1.323235107,0,0,1.4748282432556152,0,0,0.8408399820327759
1.324235742,0,0,1.556231141090393,0,0,1.223039984703064
1.325235229,0,0,1.5275006294250488,0,0,-0.152879998087883
1.3262525680000001,0,0,1.3886369466781616,0,0,1.070159912109375
1.327235852,0,0,1.723825216293335,0,0,0.8408399820327759
1.328235228,0,0,1.482010841369629,0,0,0.611519992351532
1.329235085,0,0,1.479616641998291,0,0,0.4586400091648102
1.330235831,0,0,1.4053963422775269,0,0,1.223039984703064
1.331234614,0,0,1.4748282432556152,0,0,0.9172800183296204
1.3322350090000001,0,0,1.4460978507995605,0,0,0.7644000053405762
1.333235126,0,0,1.400607943534851,0,0,0.9937199950218201
1.334235353,0,0,1.5729905366897583,0,0,0.305759996175766
1.335234544,0,0,1.6328455209732056,0,0,1.2994799613952637
1.336235438,0,0,1.5394717454910278,0,0,1.070159912109375
1.337235074,0,0,1.5921441316604614,0,0,0.611519992351532
1.338235505,0,0,1.6065093278884888,0,0,1.070159912109375
1.339234788,0,0,1.3407529592514038,0,0,1.1466000080108643
1.340236627,0,0,1.3958195447921753,0,0,1.070159912109375
1.341236022,0,0,1.316810965538025,0,0,1.1466000080108643
1.342236564,0,0,1.5442601442337036,0,0,0.611519992351532
1.343234199,0,0,1.3838485479354858,0,0,0.6879600286483765
1.344235205,0,0,1.4173674583435059,0,0,1.070159912109375
1.345235859,0,0,1.5658079385757446,0,0,1.1466000080108643
1.34623542,0,0,1.5610195398330688,0,0,-0.2293200045824051
1.347236944,0,0,1.4317326545715332,0,0,0.9172800183296204
1.348235394,0,0,1.7477672100067139,0,0,1.1466000080108643
1.349235325,0,0,1.4293384552001953,0,0,0.6879600286483765
1.350235868,0,0,1.4173674583435059,0,0,0.8408399820327759
1.351235151,0,0,1.479616641998291,0,0,0.9937199950218201
1.3522350269999999,0,0,1.4317326545715332,0,0,0.9172800183296204
1.3532351249999999,0,0,1.482010841369629,0,0,1.223039984703064
1.354235668,0,0,1.4652514457702637,0,0,0.6879600286483765
1.355234488,0,0,1.6089035272598267,0,0,0.305759996175766
1.356234771,0,0,1.5682021379470825,0,0,0.9937199950218201
1.357235295,0,0,1.4939818382263184,0,0,0.8408399820327759
1.358235782,0,0,1.50355863571167,0,0,0.8408399820327759
1.35923401,0,0,1.522712230682373,0,0,0.7644000053405762
1.360234849,0,0,1.3287819623947144,0,0,1.070159912109375
1.361235354,0,0,1.3527239561080933,0,0,0.7644000053405762
1.3622359529999999,0,0,1.316810965538025,0,0,0.8408399820327759
1.363234588,0,0,1.460463047027588,0,0,0.9172800183296204
1.364235223,0,0,1.3192051649093628,0,0,0.611519992351532
1.365235154,0,0,1.4077905416488647,0,0,1.070159912109375
1.3662356039999999,0,0,1.4867992401123047,0,0,1.452359914779663
1.367234758,0,0,1.5897499322891235,0,0,0.0764399990439415
1.368235115,0,0,1.5083470344543457,0,0,0.7644000053405762
1.369238065,0,0,1.7142484188079834,0,0,0.7644000053405762
1.370235071,0,0,1.3694833517074585,0,0,0.9937199950218201
1.371235947,0,0,1.4077905416488647,0,0,0.7644000053405762
1.3722414889999999,0,0,1.4269442558288574,0,0,0.9172800183296204
1.373235199,0,0,1.381454348564148,0,0,0.7644000053405762
1.374236186,0,0,1.4053963422775269,0,0,0.9937199950218201
1.37523208,0,0,1.3766659498214722,0,0,0.3822000026702881
1.376232882,0,0,1.5753847360610962,0,0,0.3822000026702881
1.377231813,0,0,1.5610195398330688,0,0,0.9172800183296204
1.378235226,0,0,1.4460978507995605,0,0,0.9172800183296204
1.379237176,0,0,1.6687586307525635,0,0,0.7644000053405762
1.38023533,0,0,1.721431016921997,0,0,0.6879600286483765
1.381234669,0,0,1.525106430053711,0,0,1.070159912109375
1.382235545,0,0,1.5131354331970215,0,0,1.070159912109375
1.383232606,0,0,1.4173674583435059,0,0,0.9937199950218201
1.384232259,0,0,1.580173134803772,0,0,0.611519992351532
1.385232265,0,0,1.3694833517074585,0,0,0.9172800183296204
1.386234215,0,0,1.455674648284912,0,0,0.9172800183296204
1.387235757,0,0,1.53707754611969,0,0,1.2994799613952637
1.388235374,0,0,1.5538369417190552,0,0,0.152879998087883
1.389235102,0,0,1.4772224426269531,0,0,0.4586400091648102
1.390235904,0,0,1.7357962131500244,0,0,0.9172800183296204
1.391235057,0,0,1.3120225667953491,0,0,0.9937199950218201
1.392235081,0,0,1.3551181554794312,0,0,0.611519992351532
1.393235217,0,0,1.3215993642807007,0,0,0.9937199950218201
1.394235963,0,0,1.479616641998291,0,0,0.6879600286483765
1.395260986,0,0,1.482010841369629,0,0,0.9172800183296204
1.396270381,0,0,1.482010841369629,0,0,0.7644000053405762
1.397239127,0,0,1.6280571222305298,0,0,0.3822000026702881
1.3982400400000001,0,0,1.6065093278884888,0,0,1.2994799613952637
1.3992342500000001,0,0,1.5394717454910278,0,0,1.2994799613952637
1.400235348,0,0,1.6136919260025024,0,0,0.611519992351532
1.4012352240000001,0,0,1.6208745241165161,0,0,0.6879600286483765
1.402235359,0,0,1.3096283674240112,0,0,1.2994799613952637
1.4032343090000001,0,0,1.357512354850769,0,0,0.9937199950218201
1.4042351659999999,0,0,1.338358759880066,0,0,0.9172800183296204
1.405235209,0,0,1.3910311460494995,0,0,0.4586400091648102
1.406235862,0,0,1.3192051649093628,0,0,0.8408399820327759
1.40723472,0,0,1.5466543436050415,0,0,0.6879600286483765
1.408235003,0,0,1.577778935432434,0,0,1.223039984703064
1.409236009,0,0,1.5610195398330688,0,0,0
1.410236125,0,0,1.4748282432556152,0,0,0.7644000053405762
1.4112346119999999,0,0,1.625662922859192,0,0,1.375920057296753
1.412235562,0,0,1.4508862495422363,0,0,1.070159912109375
1.413235049,0,0,1.4508862495422363,0,0,0.611519992351532
1.4142359070000001,0,0,1.4389152526855469,0,0,0.8408399820327759
1.415234709,0,0,1.4484920501708984,0,0,1.1466000080108643
1.41623514,0,0,1.3670891523361206,0,0,0.9172800183296204
1.417235145,0,0,1.5083470344543457,0,0,0.9172800183296204
1.418238058,0,0,1.5825673341751099,0,0,0.5350799560546875
1.419235453,0,0,1.5921441316604614,0,0,0.611519992351532
1.420235088,0,0,1.4508862495422363,0,0,1.1466000080108643
1.421235297,0,0,1.6735470294952393,0,0,0.8408399820327759
1.422240155,0,0,1.580173134803772,0,0,0.611519992351532
1.423236901,0,0,1.41257905960083,0,0,0.9937199950218201
1.424234851,0,0,1.4245500564575195,0,0,0.611519992351532
1.425235356,0,0,1.2617442607879639,0,0,0.9172800183296204
1.426236232,0,0,1.5179238319396973,0,0,0.7644000053405762
1.4272351269999999,0,0,1.4413094520568848,0,0,0.611519992351532
1.428235077,0,0,1.4939818382263184,0,0,1.070159912109375
1.4292349899999999,0,0,1.580173134803772,0,0,1.5288000106811523
1.43023568,0,0,1.6376339197158813,0,0,0.2293200045824051
1.431234501,0,0,1.4963760375976563,0,0,0.8408399820327759
1.432235136,0,0,1.6496049165725708,0,0,0.9172800183296204
1.433235345,0,0,1.4772224426269531,0,0,1.070159912109375
1.434235758,0,0,1.4532804489135742,0,0,0.6879600286483765
1.435234541,0,0,1.4221558570861816,0,0,0.8408399820327759
1.436235084,0,0,1.455674648284912,0,0,0.9172800183296204
1.437235015,0,0,1.4748282432556152,0,0,0.9172800183296204
1.438235799,0,0,1.4484920501708984,0,0,0.8408399820327759
1.439234452,0,0,1.50355863571167,0,0,0.5350799560546875
1.4402350689999999,0,0,1.5298948287963867,0,0,0.4586400091648102
1.441235037,0,0,1.3982137441635132,0,0,1.1466000080108643
1.442235636,0,0,1.702277421951294,0,0,0.8408399820327759
1.443234845,0,0,1.5490485429763794,0,0,0.6879600286483765
1.444234961,0,0,1.4389152526855469,0,0,0.8408399820327759
1.44523506,0,0,1.4460978507995605,0,0,0.9172800183296204
1.446235306,0,0,1.37906014919281,0,0,1.070159912109375
1.447234497,0,0,1.5873557329177856,0,0,0.9172800183296204
1.448235113,0,0,1.45806884765625,0,0,0.6879600286483765
1.449235119,0,0,1.534683346748352,0,0,0.7644000053405762
1.450235698,0,0,1.6089035272598267,0,0,1.452359914779663
1.45123463,0,0,1.5442601442337036,0,0,0.9937199950218201
1.452235154,0,0,1.4652514457702637,0,0,0.9172800183296204
1.453235141,0,0,1.6112977266311646,0,0,0.611519992351532
1.454235832,0,0,1.3694833517074585,0,0,0.9937199950218201
1.455234726,0,0,1.5155296325683594,0,0,0.8408399820327759
1.456235306,0,0,1.3287819623947144,0,0,0.8408399820327759
1.457235219,0,0,1.400607943534851,0,0,0.9172800183296204
1.4582525020000001,0,0,1.3718775510787964,0,0,0.9937199950218201
1.459236248,0,0,1.4245500564575195,0,0,0.8408399820327759
1.460235068,0,0,1.556231141090393,0,0,0.7644000053405762
1.461235296,0,0,1.6759412288665771,0,0,0.3822000026702881
1.462236135,0,0,1.5083470344543457,0,0,1.1466000080108643
1.4632347700000001,0,0,1.7166426181793213,0,0,0.7644000053405762
1.464234683,0,0,1.5514427423477173,0,0,0.5350799560546875
1.465235189,0,0,1.3694833517074585,0,0,0.7644000053405762
1.466235528,0,0,1.436521053314209,0,0,0.9937199950218201
1.467244218,0,0,1.3862427473068237,0,0,0.9172800183296204
1.4682420010000001,0,0,1.482010841369629,0,0,0.8408399820327759
1.469236118,0,0,1.4748282432556152,0,0,0.5350799560546875
1.470236994,0,0,1.5945383310317993,0,0,0.9937199950218201
1.471235037,0,0,1.6376339197158813,0,0,1.6816799640655518
1.47223682,0,0,1.5322890281677246,0,0,0.3822000026702881
1.473235233,0,0,1.556231141090393,0,0,0.7644000053405762
1.4742358119999999,0,0,1.7597382068634033,0,0,0.7644000053405762
1.4752342999999999,0,0,1.4700398445129395,0,0,1.223039984703064
1.476234787,0,0,1.4484920501708984,0,0,0.9172800183296204
1.477234718,0,0,1.338358759880066,0,0,1.375920057296753
1.4782355200000001,0,0,1.4724340438842773,0,0,0.9172800183296204
1.479234136,0,0,1.3407529592514038,0,0,0.9937199950218201
1.480234679,0,0,1.436521053314209,0,0,0.8408399820327759
1.481234592,0,0,1.6400281190872192,0,0,0.611519992351532
1.482235523,0,0,1.601720929145813,0,0,0.4586400091648102
1.483234066,0,0,1.4724340438842773,0,0,1.223039984703064
1.484234609,0,0,1.680729627609253,0,0,0.7644000053405762
1.485234207,0,0,1.5203180313110352,0,0,0.8408399820327759
1.48623536,0,0,1.400607943534851,0,0,0.7644000053405762
1.487234162,0,0,1.5107412338256836,0,0,0.9172800183296204
1.488234631,0,0,1.4772224426269531,0,0,0.8408399820327759
1.489234247,0,0,1.5179238319396973,0,0,0.6879600286483765
1.490235531,0,0,1.4389152526855469,0,0,1.070159912109375
1.491234258,0,0,1.5179238319396973,0,0,0.7644000053405762
1.492234523,0,0,1.5945383310317993,0,0,1.9109998941421509
1.493234769,0,0,1.5107412338256836,0,0,0.6879600286483765
1.494235719,0,0,1.534683346748352,0,0,0.305759996175766
1.495234132,0,0,1.6663644313812256,0,0,0.9172800183296204
1.496234527,0,0,1.414973258972168,0,0,1.070159912109375
1.497247273,0,0,1.414973258972168,0,0,0.4586400091648102
1.498237482,0,0,1.256955862045288,0,0,0.9172800183296204
1.499235321,0,0,1.525106430053711,0,0,0.6879600286483765
1.500234956,0,0,1.37906014919281,0,0,0.9172800183296204
1.501234369,0,0,1.4867992401123047,0,0,0.5350799560546875
1.502235523,0,0,1.5682021379470825,0,0,0.9172800183296204
1.5032340469999999,0,0,1.6328455209732056,0,0,0
1.504234719,0,0,1.4628572463989258,0,0,1.223039984703064
1.505234484,0,0,1.699883222579956,0,0,0.9172800183296204
1.50623536,0,0,1.534683346748352,0,0,0.6879600286483765
1.507233606,0,0,1.3958195447921753,0,0,0.4586400091648102
1.508234667,0,0,1.434126853942871,0,0,0.9172800183296204
1.509234543,0,0,1.3982137441635132,0,0,1.070159912109375
1.510234826,0,0,1.4293384552001953,0,0,0.7644000053405762
1.51123348,0,0,1.4269442558288574,0,0,0.8408399820327759
1.512234652,0,0,1.5179238319396973,0,0,0.8408399820327759
1.5132347130000001,0,0,1.6136919260025024,0,0,1.6816799640655518
1.514235589,0,0,1.4891934394836426,0,0,0.6879600286483765
1.5152340949999998,0,0,1.5298948287963867,0,0,0.8408399820327759
1.5162346,0,0,1.7094600200653076,0,0,1.070159912109375
1.517234791,0,0,1.381454348564148,0,0,1.223039984703064
1.518235667,0,0,1.5418659448623657,0,0,0.8408399820327759
1.5192341169999999,0,0,1.3024457693099976,0,0,0.9172800183296204
1.5202347710000002,0,0,1.482010841369629,0,0,0.7644000053405762
1.5212358689999999,0,0,1.4077905416488647,0,0,1.1466000080108643
1.522243819,0,0,1.4652514457702637,0,0,0.9172800183296204
1.523234361,0,0,1.6304513216018677,0,0,0.3822000026702881
1.524234811,0,0,1.6065093278884888,0,0,0.305759996175766
1.525234743,0,0,1.482010841369629,0,0,1.070159912109375
1.526235341,0,0,1.7405846118927002,0,0,0.9937199950218201
1.52723392,0,0,1.4700398445129395,0,0,0.9172800183296204
1.5282342039999999,0,0,1.3670891523361206,0,0,0.7644000053405762
1.529234598,0,0,1.4437036514282227,0,0,0.8408399820327759
1.530235381,0,0,1.4628572463989258,0,0,0.9172800183296204
1.531234128,0,0,1.3742717504501343,0,0,0.6879600286483765
1.53223417,0,0,1.4269442558288574,0,0,0.6879600286483765
1.533234805,0,0,1.5083470344543457,0,0,0.6879600286483765
1.534235329,0,0,1.6543933153152466,0,0,1.452359914779663
1.535234187,0,0,1.522712230682373,0,0,0.9172800183296204
1.5362346919999998,0,0,1.5897499322891235,0,0,0.4586400091648102
1.537234642,0,0,1.6711528301239014,0,0,0.6879600286483765
1.53823537,0,0,1.400607943534851,0,0,1.223039984703064
1.539234024,0,0,1.4652514457702637,0,0,0.6879600286483765
1.5402347509999998,0,0,1.4389152526855469,0,0,0.9937199950218201
1.5412347199999998,0,0,1.5634137392044067,0,0,0.611519992351532
1.542235263,0,0,1.4772224426269531,0,0,0.9172800183296204
1.543234027,0,0,1.5059528350830078,0,0,0.9172800183296204
1.544234607,0,0,1.6208745241165161,0,0,0.4586400091648102
1.5452356310000002,0,0,1.6280571222305298,0,0,0
1.546235655,0,0,1.4772224426269531,0,0,0.9172800183296204
1.547233957,0,0,1.766920804977417,0,0,0.9937199950218201
1.5482347220000001,0,0,1.4700398445129395,0,0,0.7644000053405762
1.549234783,0,0,1.434126853942871,0,0,0.611519992351532
1.550234992,0,0,1.4221558570861816,0,0,0.9172800183296204
1.551234146,0,0,1.3838485479354858,0,0,0.9937199950218201
1.552234484,0,0,1.338358759880066,0,0,0.9172800183296204
1.553234342,0,0,1.4700398445129395,0,0,0.8408399820327759
1.554234903,0,0,1.5514427423477173,0,0,0.7644000053405762
1.555234242,0,0,1.678335428237915,0,0,1.5288000106811523
1.5562345990000002,0,0,1.4772224426269531,0,0,1.070159912109375
1.557234679,0,0,1.5514427423477173,0,0,0.6879600286483765
1.5582354619999998,0,0,1.5610195398330688,0,0,0.611519992351532
1.559234153,0,0,1.3958195447921753,0,0,1.1466000080108643
1.560235177,0,0,1.577778935432434,0,0,0.8408399820327759
1.561236349,0,0,1.3766659498214722,0,0,1.070159912109375
1.562235855,0,0,1.5394717454910278,0,0,0.7644000053405762
1.563233823,0,0,1.3910311460494995,0,0,1.070159912109375
1.564234718,0,0,1.455674648284912,0,0,0.7644000053405762
1.5652347789999999,0,0,1.6112977266311646,0,0,0.4586400091648102
1.5662353580000001,0,0,1.5466543436050415,0,0,0.4586400091648102
1.5672341969999999,0,0,1.4939818382263184,0,0,0.9172800183296204
1.568234517,0,0,1.6496049165725708,0,0,0.6879600286483765
1.569237356,0,0,1.2832920551300049,0,0,0.6879600286483765
1.5702362509999999,0,0,1.4748282432556152,0,0,0.611519992351532
1.571238738,0,0,1.4437036514282227,0,0,0.9937199950218201
1.572237095,0,0,1.455674648284912,0,0,0.9937199950218201
1.5732352120000002,0,0,1.4652514457702637,0,0,0.7644000053405762
1.574236588,0,0,1.4939818382263184,0,0,0.6879600286483765
1.575232593,0,0,1.6903064250946045,0,0,0.8408399820327759
1.576266339,0,0,1.5849615335464478,0,0,1.375920057296753
1.57723553,0,0,1.501164436340332,0,0,0.152879998087883
1.5782360359999998,0,0,1.6089035272598267,0,0,0.3822000026702881
1.579235597,0,0,1.623268723487854,0,0,0.6879600286483765
1.58023538,0,0,1.45806884765625,0,0,1.223039984703064
1.5812351260000002,0,0,1.4173674583435059,0,0,1.070159912109375
1.5822356499999999,0,0,1.2545616626739502,0,0,1.1466000080108643
1.583232304,0,0,1.501164436340332,0,0,0.7644000053405762
1.584232513,0,0,1.4173674583435059,0,0,0.7644000053405762
1.58523226,0,0,1.5107412338256836,0,0,1.1466000080108643
1.586250654,0,0,1.5753847360610962,0,0,0.4586400091648102
1.587235845,0,0,1.5873557329177856,0,0,0.2293200045824051
1.5882346649999999,0,0,1.3718775510787964,0,0,0.8408399820327759
1.589234596,0,0,1.7286136150360107,0,0,0.8408399820327759
1.590235324,0,0,1.45806884765625,0,0,0.9937199950218201
1.591234126,0,0,1.4652514457702637,0,0,0.3822000026702881
1.592234632,0,0,1.3934253454208374,0,0,1.223039984703064
1.593234119,0,0,1.3431471586227417,0,0,1.1466000080108643
1.594234624,0,0,1.4484920501708984,0,0,1.070159912109375
1.5952347040000001,0,0,1.5083470344543457,0,0,0.611519992351532
1.596234431,0,0,1.6352397203445435,0,0,0.611519992351532
1.597234085,0,0,1.699883222579956,0,0,1.375920057296753
1.598235517,0,0,1.4221558570861816,0,0,0.4586400091648102
1.599233707,0,0,1.5610195398330688,0,0,0.9172800183296204
1.600234268,0,0,1.6280571222305298,0,0,0.6879600286483765
1.601234441,0,0,1.436521053314209,0,0,1.070159912109375
1.602235168,0,0,1.436521053314209,0,0,1.070159912109375
1.6032343409999998,0,0,1.3335703611373901,0,0,1.1466000080108643
1.604234513,0,0,1.4652514457702637,0,0,0.8408399820327759
1.605234481,0,0,1.3120225667953491,0,0,0.7644000053405762
1.60623545,0,0,1.4772224426269531,0,0,1.070159912109375
1.607233789,0,0,1.5753847360610962,0,0,1.070159912109375
1.608234387,0,0,1.5083470344543457,0,0,0.2293200045824051
1.609234614,0,0,1.4053963422775269,0,0,0.9172800183296204
1.6102353790000001,0,0,1.723825216293335,0,0,0.7644000053405762
1.611234088,0,0,1.4269442558288574,0,0,0.9937199950218201
1.612234613,0,0,1.4939818382263184,0,0,0.7644000053405762
1.613239525,0,0,1.3886369466781616,0,0,0.7644000053405762
1.614237438,0,0,1.436521053314209,0,0,0.5350799560546875
1.6152336109999998,0,0,1.3766659498214722,0,0,0.9172800183296204
1.616234486,0,0,1.5083470344543457,0,0,0.7644000053405762
1.6172347139999999,0,0,1.6065093278884888,0,0,0.8408399820327759
1.618235257,0,0,1.5849615335464478,0,0,1.6816799640655518
1.619233429,0,0,1.53707754611969,0,0,0.4586400091648102
1.62023449,0,0,1.7357962131500244,0,0,0.611519992351532
1.6212354960000002,0,0,1.7094600200653076,0,0,0.7644000053405762
1.6222369460000001,0,0,1.3431471586227417,0,0,1.070159912109375
1.6232344699999999,0,0,1.434126853942871,0,0,0.6879600286483765
1.624234605,0,0,1.2665326595306396,0,0,0.9172800183296204
1.6252346100000001,0,0,1.3431471586227417,0,0,0.7644000053405762
1.626235097,0,0,1.434126853942871,0,0,0.7644000053405762
1.627333916,0,0,1.5059528350830078,0,0,1.070159912109375
1.628242034,0,0,1.7046716213226318,0,0,0.6879600286483765
1.629234558,0,0,1.580173134803772,0,0,0.152879998087883
1.630201305,0,0,1.3982137441635132,0,0,0.9937199950218201
1.631566361,0,0,1.7405846118927002,0,0,0.7644000053405762
1.6322348899999999,0,0,1.4484920501708984,0,0,1.2994799613952637
1.633232618,0,0,1.436521053314209,0,0,0.305759996175766
1.634233864,0,0,1.4053963422775269,0,0,1.1466000080108643
1.635232684,0,0,1.4676456451416016,0,0,0.9172800183296204
1.6362319300000001,0,0,1.4724340438842773,0,0,0.9172800183296204
1.637232399,0,0,1.4939818382263184,0,0,0.8408399820327759
1.638236516,0,0,1.6160861253738403,0,0,0.6879600286483765
1.639201836,0,0,1.678335428237915,0,0,1.223039984703064
1.6406974650000001,0,0,1.7573440074920654,0,0,0.611519992351532
1.64182945,0,0,1.7573440074920654,0,0,0.2293200045824051
1.6422346490000002,0,0,1.5753847360610962,0,0,0.5350799560546875
1.6432321540000001,0,0,1.3431471586227417,0,0,0.6879600286483765
1.644231419,0,0,1.3623007535934448,0,0,0.7644000053405762
1.645231202,0,0,1.4987702369689941,0,0,1.070159912109375
1.647475247,0,0,1.4987702369689941,0,0,1.070159912109375
1.647653671,0,0,1.436521053314209,0,0,0.9172800183296204
1.648238423,0,0,1.6041151285171509,0,0,1.070159912109375
1.649232928,0,0,1.5897499322891235,0,0,0.9937199950218201
1.650259267,0,0,1.4772224426269531,0,0,0
1.651234032,0,0,1.4724340438842773,0,0,1.2994799613952637
1.652233093,0,0,1.6687586307525635,0,0,0.9937199950218201
1.6532325989999999,0,0,1.41257905960083,0,0,1.070159912109375
1.654232937,0,0,1.4891934394836426,0,0,0.7644000053405762
1.655233054,0,0,1.4293384552001953,0,0,1.070159912109375
1.656232097,0,0,1.558625340461731,0,0,0.9937199950218201
1.657232398,0,0,1.41257905960083,0,0,1.070159912109375
1.658233052,0,0,1.4269442558288574,0,0,0.7644000053405762
1.659232687,0,0,1.6496049165725708,0,0,0.5350799560546875
1.66025747,0,0,1.6376339197158813,0,0,1.452359914779663
1.66130416,0,0,1.4939818382263184,0,0,1.070159912109375
1.662282425,0,0,1.6950948238372803,0,0,0.611519992351532
1.663270598,0,0,1.4748282432556152,0,0,0.7644000053405762
1.6642484,0,0,1.3096283674240112,0,0,0.8408399820327759
1.6652320170000001,0,0,1.3862427473068237,0,0,0.7644000053405762
1.666238041,0,0,1.4413094520568848,0,0,1.1466000080108643
1.667255342,0,0,1.5658079385757446,0,0,0.4586400091648102
1.668236255,0,0,1.3838485479354858,0,0,0.6879600286483765
1.669322964,0,0,1.522712230682373,0,0,0.9172800183296204
1.6702487480000001,0,0,1.599326729774475,0,0,1.2994799613952637
1.671236642,0,0,1.5849615335464478,0,0,0.2293200045824051
1.672283888,0,0,1.525106430053711,0,0,0.9172800183296204
1.6732395979999999,0,0,1.5969325304031372,0,0,1.070159912109375
1.674249955,0,0,1.3670891523361206,0,0,1.070159912109375
1.6752526269999999,0,0,1.479616641998291,0,0,0.7644000053405762
1.6762340770000002,0,0,1.3742717504501343,0,0,1.1466000080108643
1.677232509,0,0,1.460463047027588,0,0,0.6879600286483765
1.67823307,0,0,1.4891934394836426,0,0,1.070159912109375
1.679232539,0,0,1.4939818382263184,0,0,0.7644000053405762
1.6802319890000001,0,0,1.6543933153152466,0,0,0.611519992351532
1.681232179,0,0,1.6927006244659424,0,0,0.7644000053405762
1.682233148,0,0,1.4891934394836426,0,0,1.070159912109375
1.683232579,0,0,1.7693150043487549,0,0,0.7644000053405762
1.684232251,0,0,1.4317326545715332,0,0,0.8408399820327759
1.685232127,0,0,1.3742717504501343,0,0,1.070159912109375
1.6862335769999999,0,0,1.3551181554794312,0,0,0.7644000053405762
1.687232842,0,0,1.3718775510787964,0,0,1.1466000080108643
1.68823244,0,0,1.482010841369629,0,0,0.6879600286483765
1.6892322050000002,0,0,1.4101848602294922,0,0,0.8408399820327759
1.690232951,0,0,1.625662922859192,0,0,0.9937199950218201
1.691232049,0,0,1.6304513216018677,0,0,1.605239987373352
1.692232499,0,0,1.4173674583435059,0,0,0.305759996175766
1.6932320600000001,0,0,1.6352397203445435,0,0,0.7644000053405762
1.6942319179999998,0,0,1.5634137392044067,0,0,0.9172800183296204
1.69523259,0,0,1.37906014919281,0,0,1.1466000080108643
1.696232355,0,0,1.4987702369689941,0,0,0.611519992351532
1.697232064,0,0,1.338358759880066,0,0,0.8408399820327759
1.69823294,0,0,1.5634137392044067,0,0,0.7644000053405762
1.699245593,0,0,1.4844050407409668,0,0,1.070159912109375
1.700234266,0,0,1.5418659448623657,0,0,0.8408399820327759
1.701232531,0,0,1.5897499322891235,0,0,0.5350799560546875
1.7022329250000001,0,0,1.5179238319396973,0,0,0.9937199950218201
1.7032323379999998,0,0,1.4748282432556152,0,0,1.070159912109375
1.7042322319999998,0,0,1.723825216293335,0,0,0.6879600286483765
1.705232256,0,0,1.359906554222107,0,0,0.6879600286483765
1.706248391,0,0,1.434126853942871,0,0,1.070159912109375
1.707234175,0,0,1.3311761617660522,0,0,0.7644000053405762
1.708232551,0,0,1.3862427473068237,0,0,1.070159912109375
1.709232149,0,0,1.4269442558288574,0,0,0.6879600286483765
1.710232784,0,0,1.381454348564148,0,0,0.9937199950218201
1.71123253,0,0,1.6663644313812256,0,0,0.611519992351532
1.712231721,0,0,1.599326729774475,0,0,1.6816799640655518
1.713232171,0,0,1.4484920501708984,0,0,0.4586400091648102
1.714251213,0,0,1.6376339197158813,0,0,0.6879600286483765
1.7152354779999999,0,0,1.5825673341751099,0,0,0.9172800183296204
1.7162343359999999,0,0,1.3982137441635132,0,0,1.375920057296753
1.71723473,0,0,1.4460978507995605,0,0,0.4586400091648102
1.718236495,0,0,1.3096283674240112,0,0,1.1466000080108643
1.7192338889999998,0,0,1.4772224426269531,0,0,0.5350799560546875
1.720234562,0,0,1.3934253454208374,0,0,0.9937199950218201
1.7212346410000001,0,0,1.4963760375976563,0,0,1.070159912109375
1.722369997,0,0,1.6855180263519287,0,0,0.4586400091648102
1.7232376710000001,0,0,1.5658079385757446,0,0,0.5350799560546875
1.724235084,0,0,1.4317326545715332,0,0,1.1466000080108643
1.725241108,0,0,1.7046716213226318,0,0,0.8408399820327759
1.726236909,0,0,1.400607943534851,0,0,0.7644000053405762
1.727234545,0,0,1.4772224426269531,0,0,0.7644000053405762
1.7282345129999999,0,0,1.3694833517074585,0,0,0.9172800183296204
1.7292344819999999,0,0,1.37906014919281,0,0,0.8408399820327759
1.730235543,0,0,1.460463047027588,0,0,1.070159912109375
1.7312335669999999,0,0,1.3886369466781616,0,0,0.9172800183296204
1.732234461,0,0,1.53707754611969,0,0,0.3822000026702881
1.73323443,0,0,1.6615760326385498,0,0,1.5288000106811523
1.734234806,0,0,1.4939818382263184,0,0,0.5350799560546875
1.735233663,0,0,1.742978811264038,0,0,0.611519992351532
1.7362346309999999,0,0,1.5490485429763794,0,0,0.6879600286483765
1.737240729,0,0,1.3407529592514038,0,0,1.070159912109375
1.7382353830000001,0,0,1.3958195447921753,0,0,0.6879600286483765
1.7392345,0,0,1.292868971824646,0,0,0.9937199950218201
1.740234579,0,0,1.525106430053711,0,0,0.6879600286483765
1.741251326,0,0,1.403002142906189,0,0,0.8408399820327759
1.742236128,0,0,1.5729905366897583,0,0,1.1466000080108643
1.743234355,0,0,1.6376339197158813,0,0,0.9937199950218201
1.744234083,0,0,1.5322890281677246,0,0,0
1.7452468479999999,0,0,1.501164436340332,0,0,1.1466000080108643
1.7462364460000002,0,0,1.7621324062347412,0,0,0.9172800183296204
1.747234877,0,0,1.479616641998291,0,0,0.7644000053405762
1.748234587,0,0,1.525106430053711,0,0,0.3822000026702881
1.7492343510000001,0,0,1.3886369466781616,0,0,1.070159912109375
1.750235024,0,0,1.414973258972168,0,0,1.1466000080108643
1.751234307,0,0,1.45806884765625,0,0,0.9172800183296204
1.752234701,0,0,1.4532804489135742,0,0,0.6879600286483765
1.7532344659999999,0,0,1.678335428237915,0,0,0.611519992351532
1.7542356749999999,0,0,1.6543933153152466,0,0,1.1466000080108643
1.7552343110000002,0,0,1.4413094520568848,0,0,0.611519992351532
1.756234464,0,0,1.7501614093780518,0,0,0.611519992351532
1.7572345440000001,0,0,1.5873557329177856,0,0,0.9172800183296204
1.7582346599999998,0,0,1.3742717504501343,0,0,1.223039984703064
1.759233999,0,0,1.3958195447921753,0,0,0.7644000053405762
1.7602345050000001,0,0,1.292868971824646,0,0,1.223039984703064
1.7612345839999999,0,0,1.4484920501708984,0,0,0.7644000053405762
1.762235257,0,0,1.4724340438842773,0,0,1.070159912109375
1.76323417,0,0,1.6376339197158813,0,0,1.070159912109375
1.7642345640000001,0,0,1.5705963373184204,0,0,0.9172800183296204
1.765234477,0,0,1.460463047027588,0,0,-0.152879998087883
1.766234779,0,0,1.4867992401123047,0,0,1.070159912109375
1.7672344880000002,0,0,1.6735470294952393,0,0,0.611519992351532
1.7682343820000002,0,0,1.4173674583435059,0,0,0.7644000053405762
1.7692373319999999,0,0,1.5394717454910278,0,0,0.305759996175766
1.770234912,0,0,1.3742717504501343,0,0,0.9172800183296204
1.771250195,0,0,1.482010841369629,0,0,0.9172800183296204
1.772238256,0,0,1.381454348564148,0,0,0.9937199950218201
1.773234595,0,0,1.357512354850769,0,0,0.611519992351532
1.7742419900000002,0,0,1.4413094520568848,0,0,0.4586400091648102
1.7752354769999998,0,0,1.5155296325683594,0,0,1.5288000106811523
1.7762345750000001,0,0,1.3910311460494995,0,0,0.9937199950218201
1.777234043,0,0,1.6208745241165161,0,0,0.611519992351532
1.778249178,0,0,1.5658079385757446,0,0,0.8408399820327759
1.7792347400000001,0,0,1.4101848602294922,0,0,1.2994799613952637
1.7802343010000001,0,0,1.3838485479354858,0,0,0.5350799560546875
1.781234065,0,0,1.3024457693099976,0,0,0.7644000053405762
1.782234886,0,0,1.4844050407409668,0,0,0.6879600286483765
1.783345131,0,0,1.4939818382263184,0,0,0.9172800183296204
1.784235989,0,0,1.4772224426269531,0,0,0.9937199950218201
1.785234773,0,0,1.5825673341751099,0,0,1.070159912109375
1.786235149,0,0,1.5322890281677246,0,0,-0.305759996175766
1.787234376,0,0,1.5610195398330688,0,0,0.9937199950218201
1.788234289,0,0,1.800439715385437,0,0,1.1466000080108643
1.789234554,0,0,1.4317326545715332,0,0,0.7644000053405762
1.7902350230000001,0,0,1.4437036514282227,0,0,0.611519992351532
1.791234473,0,0,1.3096283674240112,0,0,0.7644000053405762
1.7922344780000001,0,0,1.434126853942871,0,0,1.1466000080108643
1.793234521,0,0,1.436521053314209,0,0,0.9937199950218201
1.7942347669999998,0,0,1.41257905960083,0,0,0.6879600286483765
1.795234587,0,0,1.5753847360610962,0,0,0.5350799560546875
1.796234482,0,0,1.6184803247451782,0,0,0.9172800183296204
1.797303727,0,0,1.4437036514282227,0,0,0.8408399820327759
1.7982361409999998,0,0,1.6903064250946045,0,0,0.305759996175766
1.7992344980000001,0,0,1.5490485429763794,0,0,0.611519992351532
1.800241615,0,0,1.4437036514282227,0,0,1.1466000080108643
1.801235713,0,0,1.455674648284912,0,0,0.9172800183296204
1.802235441,0,0,1.4197616577148438,0,0,1.1466000080108643
1.803234706,0,0,1.434126853942871,0,0,0.611519992351532
1.8042344890000002,0,0,1.434126853942871,0,0,0.9172800183296204
1.805234717,0,0,1.6160861253738403,0,0,0.7644000053405762
1.806235185,0,0,1.6280571222305298,0,0,1.6816799640655518
1.807233987,0,0,1.4652514457702637,0,0,0
1.808234659,0,0,1.53707754611969,0,0,0.9172800183296204
1.809234368,0,0,1.7046716213226318,0,0,1.070159912109375
1.810235541,0,0,1.3766659498214722,0,0,1.070159912109375
1.811233805,0,0,1.4700398445129395,0,0,0.4586400091648102
1.812234737,0,0,1.3407529592514038,0,0,0.7644000053405762
1.813234409,0,0,1.4532804489135742,0,0,0.7644000053405762
1.814235081,0,0,1.4532804489135742,0,0,0.8408399820327759
1.815233957,0,0,1.625662922859192,0,0,0.7644000053405762
1.8162344259999998,0,0,1.5873557329177856,0,0,0.5350799560546875
1.817234357,0,0,1.5945383310317993,0,0,1.070159912109375
1.818237511,0,0,1.4269442558288574,0,0,0.9937199950218201
1.8192339419999999,0,0,1.678335428237915,0,0,0.611519992351532
1.8202340769999998,0,0,1.5155296325683594,0,0,0.7644000053405762
1.821251212,0,0,1.403002142906189,0,0,0.7644000053405762
1.822239551,0,0,1.4484920501708984,0,0,0.6879600286483765
1.823234668,0,0,1.4724340438842773,0,0,1.070159912109375
1.8242418219999998,0,0,1.4700398445129395,0,0,0.7644000053405762
1.825235586,0,0,1.381454348564148,0,0,0.8408399820327759
1.8262356290000001,0,0,1.5490485429763794,0,0,1.070159912109375
1.827233653,0,0,1.644816517829895,0,0,1.5288000106811523
1.82823464,0,0,1.5658079385757446,0,0,0.2293200045824051
1.829234627,0,0,1.6615760326385498,0,0,0.9172800183296204
1.830235225,0,0,1.7334020137786865,0,0,0.9937199950218201
1.831234009,0,0,1.3958195447921753,0,0,0.9937199950218201
1.832234588,0,0,1.3694833517074585,0,0,0.4586400091648102
1.833234557,0,0,1.292868971824646,0,0,1.070159912109375
1.834235099,0,0,1.403002142906189,0,0,0.6879600286483765
1.8352338449999999,0,0,1.4077905416488647,0,0,0.5350799560546875
1.8362343700000001,0,0,1.5083470344543457,0,0,0.7644000053405762
1.837234412,0,0,1.5490485429763794,0,0,0.6879600286483765
1.838248658,0,0,1.5203180313110352,0,0,0.7644000053405762
1.8392344600000001,0,0,1.4772224426269531,0,0,1.375920057296753
1.840234595,0,0,1.766920804977417,0,0,0.8408399820327759
1.841234471,0,0,1.5107412338256836,0,0,0.3822000026702881
1.8422407170000001,0,0,1.3766659498214722,0,0,1.070159912109375
1.8432345190000001,0,0,1.3646949529647827,0,0,0.7644000053405762
1.844234377,0,0,1.3527239561080933,0,0,0.8408399820327759
1.845233956,0,0,1.3431471586227417,0,0,0.6879600286483765
1.846234814,0,0,1.3958195447921753,0,0,0.8408399820327759
1.847233819,0,0,1.53707754611969,0,0,0.9172800183296204
1.848234473,0,0,1.6735470294952393,0,0,1.2994799613952637
1.849234756,0,0,1.525106430053711,0,0,0.2293200045824051
1.850235669,0,0,1.6376339197158813,0,0,1.070159912109375
1.8512341559999999,0,0,1.6424223184585571,0,0,0.9172800183296204
1.8522345690000002,0,0,1.3934253454208374,0,0,1.070159912109375
1.853234482,0,0,1.4724340438842773,0,0,0.4586400091648102
1.854235173,0,0,1.4101848602294922,0,0,0.7644000053405762
1.855233863,0,0,1.4748282432556152,0,0,0.9172800183296204
1.8562345169999999,0,0,1.4437036514282227,0,0,0.9172800183296204
1.8572343,0,0,1.601720929145813,0,0,1.070159912109375
1.858235324,0,0,1.6136919260025024,0,0,0.5350799560546875
1.859234034,0,0,1.5298948287963867,0,0,0.7644000053405762
1.8602401130000001,0,0,1.4053963422775269,0,0,1.223039984703064
1.861239063,0,0,1.678335428237915,0,0,0.7644000053405762
1.8622360869999999,0,0,1.381454348564148,0,0,0.6879600286483765
1.86323326,0,0,1.4437036514282227,0,0,1.070159912109375
1.8642346349999999,0,0,1.436521053314209,0,0,0.7644000053405762
1.865234308,0,0,1.4317326545715332,0,0,0.9937199950218201
1.866235184,0,0,1.4628572463989258,0,0,0.611519992351532
1.8672335960000002,0,0,1.5538369417190552,0,0,0.8408399820327759
1.868234621,0,0,1.656787633895874,0,0,0.9937199950218201
1.8692342,0,0,1.6735470294952393,0,0,0.8408399820327759
1.870234854,0,0,1.4437036514282227,0,0,0.5350799560546875
1.8712345259999998,0,0,1.6711528301239014,0,0,0.5350799560546875
1.872243383,0,0,1.6615760326385498,0,0,0.8408399820327759
1.8732358150000001,0,0,1.3958195447921753,0,0,1.2994799613952637
1.874266838,0,0,1.41257905960083,0,0,0.9172800183296204
1.8752383259999998,0,0,1.316810965538025,0,0,1.070159912109375
1.876234831,0,0,1.5322890281677246,0,0,0.9937199950218201
1.877241096,0,0,1.460463047027588,0,0,1.070159912109375
1.87823662,0,0,1.5514427423477173,0,0,0.9172800183296204
1.879233922,0,0,1.6400281190872192,0,0,0.7644000053405762
1.880234779,0,0,1.6615760326385498,0,0,0
1.881234433,0,0,1.4915876388549805,0,0,1.223039984703064
1.882235291,0,0,1.7693150043487549,0,0,0.9172800183296204
1.883234074,0,0,1.4628572463989258,0,0,0.611519992351532
1.884234524,0,0,1.403002142906189,0,0,0.7644000053405762
1.885233937,0,0,1.359906554222107,0,0,0.9937199950218201
1.886235164,0,0,1.4437036514282227,0,0,1.070159912109375
1.8872338,0,0,1.4867992401123047,0,0,0.6879600286483765
1.888234416,0,0,1.4293384552001953,0,0,0.6879600286483765
1.889234163,0,0,1.5059528350830078,0,0,0.9937199950218201
1.89023489,0,0,1.6304513216018677,0,0,1.223039984703064
1.8912334880000001,0,0,1.3910311460494995,0,0,0.7644000053405762
1.8922338829999998,0,0,1.5969325304031372,0,0,0.4586400091648102
1.893233851,0,0,1.5107412338256836,0,0,0.9937199950218201
1.894245246,0,0,1.3862427473068237,0,0,1.223039984703064
1.895235455,0,0,1.5059528350830078,0,0,0.6879600286483765
1.896260312,0,0,1.3646949529647827,0,0,1.070159912109375
1.897271836,0,0,1.479616641998291,0,0,0.5350799560546875
1.898243675,0,0,1.3527239561080933,0,0,0.9172800183296204
1.899234162,0,0,1.5442601442337036,0,0,0.7644000053405762
1.900234575,0,0,1.7094600200653076,0,0,0.3822000026702881
1.901234321,0,0,1.6855180263519287,0,0,-8.714159965515137
1.902235123,0,0,1.45806884765625,0,0,1.223039984703064
1.903233907,0,0,1.7357962131500244,0,0,0.9937199950218201
1.904234431,0,0,1.4245500564575195,0,0,0.9172800183296204
1.905234492,0,0,1.5155296325683594,0,0,0.9172800183296204
1.9062526819999999,0,0,1.37906014919281,0,0,0.9172800183296204
1.9072360769999999,0,0,1.455674648284912,0,0,0.9937199950218201
1.908234768,0,0,1.4652514457702637,0,0,0.611519992351532
1.909234347,0,0,1.5298948287963867,0,0,0.7644000053405762
1.9102347229999999,0,0,1.5466543436050415,0,0,0.8408399820327759
1.911233895,0,0,1.5490485429763794,0,0,1.1466000080108643
1.912234605,0,0,1.4460978507995605,0,0,0.152879998087883
1.913234406,0,0,1.7046716213226318,0,0,0.7644000053405762
1.914235208,0,0,1.5897499322891235,0,0,0.7644000053405762
1.9152338800000002,0,0,1.4676456451416016,0,0,1.223039984703064
1.916234386,0,0,1.4101848602294922,0,0,0.6879600286483765
1.917234503,0,0,1.3431471586227417,0,0,1.223039984703064
1.9182366929999999,0,0,1.3982137441635132,0,0,0.6879600286483765
1.919292661,0,0,1.292868971824646,0,0,0.7644000053405762
1.920235204,0,0,1.482010841369629,0,0,0.7644000053405762
1.9212346359999999,0,0,1.5945383310317993,0,0,1.1466000080108643
1.9226333580000001,0,0,1.601720929145813,0,0,0
1.9235352909999999,0,0,1.6184803247451782,0,0,0.9937199950218201
1.924543056,0,0,1.723825216293335,0,0,0.9937199950218201
1.9255407469999999,0,0,1.3838485479354858,0,0,0.8408399820327759
1.926546622,0,0,1.4676456451416016,0,0,0.6879600286483765
1.927532665,0,0,1.3192051649093628,0,0,0.9172800183296204
1.928530393,0,0,1.455674648284912,0,0,0.9172800183296204
1.9295311389999998,0,0,1.4724340438842773,0,0,0.8408399820327759
1.930555811,0,0,1.479616641998291,0,0,0.7644000053405762
1.931531298,0,0,1.6280571222305298,0,0,0.611519992351532
1.932531563,0,0,1.5466543436050415,0,0,1.452359914779663
1.933531439,0,0,1.381454348564148,0,0,0.9172800183296204
1.9345524630000002,0,0,1.7477672100067139,0,0,0.5350799560546875
1.935532209,0,0,1.5107412338256836,0,0,0.6879600286483765
1.9365314740000001,0,0,1.4269442558288574,0,0,1.070159912109375
1.9375319800000002,0,0,1.400607943534851,0,0,1.070159912109375
1.938553003,0,0,1.3551181554794312,0,0,1.070159912109375
1.93953162,0,0,1.5203180313110352,0,0,0.5350799560546875
1.9406950680000001,0,0,1.45806884765625,0,0,0.9172800183296204
1.941530576,0,0,1.6208745241165161,0,0,0.8408399820327759
1.942553118,0,0,1.6065093278884888,0,0,0.8408399820327759
1.9435296050000002,0,0,1.4891934394836426,0,0,0.2293200045824051
1.944529815,0,0,1.6735470294952393,0,0,0.5350799560546875
1.9455622830000001,0,0,1.680729627609253,0,0,0.9937199950218201
1.946560548,0,0,1.403002142906189,0,0,1.070159912109375
1.9478061420000001,0,0,1.5322890281677246,0,0,0.6879600286483765
1.9485352439999999,0,0,1.3096283674240112,0,0,0.8408399820327759
1.949532027,0,0,1.4437036514282227,0,0,0.611519992351532
1.950594403,0,0,1.3431471586227417,0,0,0.9172800183296204
1.9515357610000001,0,0,1.3910311460494995,0,0,0.5350799560546875
1.952532988,0,0,1.5610195398330688,0,0,0.5350799560546875
1.953532383,0,0,1.5298948287963867,0,0,1.9109998941421509
1.954555314,0,0,1.4077905416488647,0,0,0.4586400091648102
1.95553369,0,0,1.7573440074920654,0,0,0.5350799560546875
1.956532103,0,0,1.41257905960083,0,0,0.7644000053405762
1.9575325160000001,0,0,1.3742717504501343,0,0,0.9172800183296204
1.958553984,0,0,1.4101848602294922,0,0,0.9172800183296204
1.959531972,0,0,1.4101848602294922,0,0,1.070159912109375
1.960533403,0,0,1.4891934394836426,0,0,0.3822000026702881
1.961532612,0,0,1.4724340438842773,0,0,0.9172800183296204
1.962551914,0,0,1.6065093278884888,0,0,0.611519992351532
1.963533457,0,0,1.6496049165725708,0,0,0.9172800183296204
1.964532647,0,0,1.4748282432556152,0,0,-9.554999351501465
1.9655326340000001,0,0,1.6663644313812256,0,0,0.8408399820327759
1.9665526770000001,0,0,1.6950948238372803,0,0,0.611519992351532
1.967532923,0,0,1.3048399686813354,0,0,1.1466000080108643
1.968532892,0,0,1.3503297567367554,0,0,0.4586400091648102
1.969538953,0,0,1.1803414821624756,0,0,0.9937199950218201
1.970600087,0,0,1.4437036514282227,0,0,0.6879600286483765
1.971588019,0,0,1.3910311460494995,0,0,0.9937199950218201
1.97253721,0,0,1.436521053314209,0,0,0.8408399820327759
1.973530753,0,0,1.580173134803772,0,0,0.4586400091648102
1.9746019609999999,0,0,1.5825673341751099,0,0,1.223039984703064
1.9755360039999998,0,0,1.4987702369689941,0,0,0.7644000053405762
1.976533343,0,0,1.7501614093780518,0,0,0.9937199950218201
1.9775334789999999,0,0,1.4293384552001953,0,0,0.611519992351532
1.9785614649999999,0,0,1.4413094520568848,0,0,0.9172800183296204
1.979532879,0,0,1.3982137441635132,0,0,1.1466000080108643
1.9805326060000001,0,0,1.5083470344543457,0,0,0.8408399820327759
1.981531871,0,0,1.479616641998291,0,0,0.9172800183296204
1.982555728,0,0,1.5083470344543457,0,0,0.7644000053405762
1.9835331040000002,0,0,1.6184803247451782,0,0,0.8408399820327759
1.984533054,0,0,1.5610195398330688,0,0,0.9172800183296204
1.985532412,0,0,1.4317326545715332,0,0,0
1.9865569170000001,0,0,1.6711528301239014,0,0,1.1466000080108643
1.987533682,0,0,1.5873557329177856,0,0,1.070159912109375
1.988533243,0,0,1.4676456451416016,0,0,1.1466000080108643
1.989532675,0,0,1.400607943534851,0,0,0.6879600286483765
1.99055668,0,0,1.3694833517074585,0,0,1.070159912109375
1.991533241,0,0,1.5394717454910278,0,0,0.8408399820327759
1.992532821,0,0,1.338358759880066,0,0,0.9937199950218201
1.993531993,0,0,1.5179238319396973,0,0,0.8408399820327759
1.9945543319999999,0,0,1.6711528301239014,0,0,0.611519992351532
1.9955334850000002,0,0,1.5418659448623657,0,0,0.9172800183296204
1.9965325649999999,0,0,1.41257905960083,0,0,1.2994799613952637
1.9975326820000001,0,0,1.7094600200653076,0,0,0.3822000026702881
1.998553206,0,0,1.3982137441635132,0,0,0.7644000053405762
1.999532841,0,0,1.4891934394836426,0,0,0.3822000026702881
2.000532754,0,0,1.3215993642807007,0,0,0.9172800183296204
2.001532315,0,0,1.3694833517074585,0,0,0.9172800183296204
2.002553357,0,0,1.4173674583435059,0,0,0.6879600286483765
2.003531474,0,0,1.3431471586227417,0,0,0.8408399820327759
2.004533146,0,0,1.5873557329177856,0,0,0.9937199950218201
2.005533004,0,0,1.6974890232086182,0,0,1.605239987373352
2.006552083,0,0,1.4293384552001953,0,0,-0.152879998087883
2.007533589,0,0,1.644816517829895,0,0,0.611519992351532
2.008532817,0,0,1.4939818382263184,0,0,0.9172800183296204
2.009533452,0,0,1.4724340438842773,0,0,1.1466000080108643
2.010552457,0,0,1.4891934394836426,0,0,0.8408399820327759
2.011532592,0,0,1.3096283674240112,0,0,0.9172800183296204
2.012532357,0,0,1.5059528350830078,0,0,0.6879600286483765
2.0135329,0,0,1.4628572463989258,0,0,0.9937199950218201
2.01455209,0,0,1.5418659448623657,0,0,0.9937199950218201
2.015531726,0,0,1.656787633895874,0,0,0.5350799560546875
2.01653262,0,0,1.4748282432556152,0,0,0.6879600286483765
2.017532552,0,0,1.5658079385757446,0,0,1.223039984703064
2.018554538,0,0,1.8411411046981812,0,0,0.7644000053405762
2.019626469,0,0,1.4173674583435059,0,0,0.8408399820327759
2.02053755,0,0,1.4987702369689941,0,0,0.305759996175766
2.021647683,0,0,1.3527239561080933,0,0,1.1466000080108643
2.022832279,0,0,1.4389152526855469,0,0,0.8408399820327759
2.023394716,0,0,1.4197616577148438,0,0,0.8408399820327759
2.024395277,0,0,1.3886369466781616,0,0,0.6879600286483765
2.025483671,0,0,1.50355863571167,0,0,0.7644000053405762
2.026427695,0,0,1.5729905366897583,0,0,1.8345600366592407
2.027394664,0,0,1.4317326545715332,0,0,0.4586400091648102
2.028394855,0,0,1.7717092037200928,0,0,0.4586400091648102
2.02939436,0,0,1.6065093278884888,0,0,0.9172800183296204
2.03041531,0,0,1.460463047027588,0,0,1.1466000080108643
2.031394557,0,0,1.4628572463989258,0,0,0.6879600286483765
2.032393896,0,0,1.3623007535934448,0,0,1.223039984703064
2.033394197,0,0,1.4389152526855469,0,0,0.5350799560546875
2.034434277,0,0,1.4676456451416016,0,0,0.8408399820327759
2.035395394,0,0,1.5634137392044067,0,0,0.9172800183296204
2.036393547,0,0,1.6112977266311646,0,0,0.4586400091648102
2.037394331,0,0,1.53707754611969,0,0,0.4586400091648102
2.038397244,0,0,1.5969325304031372,0,0,1.223039984703064
2.039389138,0,0,1.6615760326385498,0,0,0.9172800183296204
2.040388588,0,0,1.400607943534851,0,0,0.5350799560546875
2.04138876,0,0,1.5610195398330688,0,0,0.9172800183296204
2.044631811,0,0,1.5610195398330688,0,0,0.5350799560546875
2.044962973,0,0,1.4772224426269531,0,0,0.305759996175766
2.045280525,0,0,1.4772224426269531,0,0,0.8408399820327759
2.045597576,0,0,1.4437036514282227,0,0,0.611519992351532
2.046423621,0,0,1.5418659448623657,0,0,0.6879600286483765
2.047392275,0,0,1.4748282432556152,0,0,1.8345600366592407
2.048390225,0,0,1.403002142906189,0,0,0.8408399820327759
2.049657894,0,0,1.8267759084701538,0,0,0.5350799560546875
2.050428624,0,0,1.6328455209732056,0,0,0.611519992351532
2.051393408,0,0,1.50355863571167,0,0,1.223039984703064
2.05239121,0,0,1.3646949529647827,0,0,0.611519992351532
2.053391901,0,0,1.37906014919281,0,0,1.1466000080108643
2.054407424,0,0,1.5059528350830078,0,0,0.6879600286483765
2.055390671,0,0,1.4748282432556152,0,0,0.8408399820327759
2.056390973,0,0,1.5897499322891235,0,0,0.9172800183296204
2.057390978,0,0,1.5921441316604614,0,0,1.1466000080108643
2.058412854,0,0,1.4245500564575195,0,0,0.0764399990439415
2.0593916,0,0,1.623268723487854,0,0,0.9172800183296204
2.060390791,0,0,1.7142484188079834,0,0,0.9172800183296204
2.061391278,0,0,1.4077905416488647,0,0,0.8408399820327759
2.062412024,0,0,1.455674648284912,0,0,0.5350799560546875
2.063391549,0,0,1.3024457693099976,0,0,0.9937199950218201
2.064391443,0,0,1.4221558570861816,0,0,0.9172800183296204
2.065390856,0,0,1.4077905416488647,0,0,0.9937199950218201
2.066412176,0,0,1.4748282432556152,0,0,0.9937199950218201
2.067391608,0,0,1.556231141090393,0,0,0.3822000026702881
2.06839078,0,0,1.5753847360610962,0,0,1.2994799613952637
2.069391045,0,0,1.4844050407409668,0,0,0.9172800183296204
2.070397272,0,0,1.7310078144073486,0,0,0.7644000053405762
2.071442962,0,0,1.4724340438842773,0,0,0.611519992351532
2.072392783,0,0,1.4437036514282227,0,0,1.1466000080108643
2.073390882,0,0,1.3718775510787964,0,0,0.7644000053405762
