Time,AccelX1,AccelY1,AccelZ1,AccelX2,AccelY2,AccelZ2
0.000012833,0,0,0,0,0,0.9172800183296204
0.01004711,0,0,0,0,0,0.5350799560546875
0.010239626,0,0,0,0,0,-0.8408399820327759
0.010401457,0,0,0,0,0,-0.8408399820327759
0.010563659,0,0,0,0,0,0.9172800183296204
0.010728416,0,0,0,0,0,0.9172800183296204
0.010893414,0,0,0,0,0,0
0.011166206,0,0,0,0,0,0.7644000053405762
0.011333315,0,0,0,0,0,0.7644000053405762
0.011496961,0,0,0,0,0,1.223039984703064
0.011659681,0,0,0,0,0,1.223039984703064
0.011821698,0,0,0,0,0,1.1466000080108643
0.012228415,0,0,0,0,0,0.9172800183296204
0.013224439,0,0,0,0,0,0.611519992351532
0.014231944,0,0,0,0,0,0.611519992351532
0.015225746,0,0,0,0,0,0.8408399820327759
0.016241696,0,0,0,0,0,0.6879600286483765
0.01722735,0,0,0,0,0,0.8408399820327759
0.0182248,0,0,0,0,0,0.611519992351532
0.01923312,0,0,0,0,0,0.6879600286483765
0.020225329,0,0,0,0,0,0.611519992351532
0.021230131,0,0,0,0,0,0.7644000053405762
0.022225285,0,0,0,0,0,0.9937199950218201
0.023251142,0,0,0,0,0,0.6879600286483765
0.024227314,0,0,0,0,0,0.9937199950218201
0.025224357,0,0,0,0,0,0.9937199950218201
0.026231399,0,0,0,0,0,0.6879600286483765
0.027239867,0,0,0,0,0,0.8408399820327759
0.028224503,0,0,0,0,0,0.8408399820327759
0.029229601,0,0,0,0,0,0.6879600286483765
0.03022468,0,0,0,0,0,1.223039984703064
0.031229519,0,0,0,0,0,0.8408399820327759
0.03222408,0,0,0,0,0,0.6879600286483765
0.033280789,0,0,0,0,0,0.8408399820327759
0.034226073,0,0,0,0,0,0.4586400091648102
0.035226023,0,0,0,0,0,1.070159912109375
0.03625725,0,0,0,0,0,0.9172800183296204
0.037226052,0,0,0,0,0,0.8408399820327759
0.038224687,0,0,0,0,0,0.9172800183296204
0.039224785,0,0,0,0,0,0.611519992351532
0.040223495,0,0,0,0,0,0.6879600286483765
0.041210074,0,0,0,0,0,0.6879600286483765
0.042224691,0,0,0,0,0,0.611519992351532
0.043228622,0,0,0,0,0,0.611519992351532
0.044226683,0,0,0,0,0,0.9172800183296204
0.045226133,0,0,0,0,0,0.9172800183296204
0.046226231,0,0,0,0,0,0.9937199950218201
0.047226237,0,0,0,0,0,0.7644000053405762
0.04822602,0,0,0,0,0,0.3822000026702881
0.04922597,0,0,0,0,0,0.7644000053405762
0.050226198,0,0,0,0,0,0.7644000053405762
0.051226388,0,0,0,0,0,0.5350799560546875
0.05222582,0,0,0,0,0,0.9937199950218201
0.053225844,0,0,0,0,0,0.611519992351532
0.054353959,0,0,0,0,0,0.6879600286483765
0.055228966,0,0,0,0,0,1.070159912109375
0.056226083,0,0,0,0,0,0.4586400091648102
0.057225533,0,0,0,0,0,1.223039984703064
0.058225908,0,0,0,0,0,0.6879600286483765
0.059227044,0,0,0,0,0,0.6879600286483765
0.060226031,0,0,0,0,0,0.8408399820327759
0.061225962,0,0,0,0,0,0.9172800183296204
0.062225986,0,0,0,0,0,0.5350799560546875
0.063226806,0,0,0,0,0,1.070159912109375
0.064237367,0,0,0,0,0,0.8408399820327759
0.06524841,0,0,0,0,0,0.4586400091648102
0.066228508,0,0,0,0,0,0.9937199950218201
0.067227958,0,0,0,0,0,0.4586400091648102
0.068226278,0,0,0,0,0,0.9937199950218201
0.069226543,0,0,0,0,0,0.6879600286483765
0.070226511,0,0,0,0,0,0.6879600286483765
0.071227221,0,0,0,0,0,1.1466000080108643
0.072226189,0,0,0,0,0,0.8408399820327759
0.07322638,0,0,0,0,0,0.9937199950218201
0.074226274,0,0,0,0,0,0.8408399820327759
0.075226761,0,0,0,0,0,1.070159912109375
0.076226322,0,0,0,0,0,0.9172800183296204
0.077226476,0,0,0,0,0,0.5350799560546875
0.078226185,0,0,0,0,0,0.6879600286483765
0.079226672,0,0,0,0,0,0.8408399820327759
0.0802264,0,0,0,0,0,0.8408399820327759
0.081226127,0,0,0,0,0,0.8408399820327759
0.082226429,0,0,0,0,0,0.9937199950218201
0.083227101,0,0,0,0,0,1.070159912109375
0.084226162,0,0,0,0,0,0.8408399820327759
0.085226131,0,0,0,0,0,0.4586400091648102
0.08622621,0,0,0,0,0,1.070159912109375
0.087227272,0,0,0,0,0,0.8408399820327759
0.088225962,0,0,0,0,0,1.070159912109375
0.089226745,0,0,0,0,0,0.6879600286483765
0.090226362,0,0,0,0,0,0.9172800183296204
0.091227349,0,0,0,0,0,0.6879600286483765
0.092226225,0,0,0,0,0,0.8408399820327759
0.09322636,0,0,0,0,0,0.8408399820327759
0.094226273,0,0,0,0,0,0.7644000053405762
0.095226964,0,0,0,0,0,1.1466000080108643
0.096226191,0,0,0,0,0,0.611519992351532
0.097225678,0,0,0,0,0,0.7644000053405762
0.098248572,0,0,0,0,0,0.9172800183296204
0.09925817,0,0,0,0,0,0.611519992351532
0.100233343,0,0,0,0,0,0.8408399820327759
0.101226719,0,0,0,0,0,0.9172800183296204
0.102226947,0,0,0,0,0,0.7644000053405762
0.103227063,0,0,0,0,0,0.6879600286483765
0.104223995,0,0,0,0,0,0.9172800183296204
0.105223796,0,0,0,0,0,0.8408399820327759
0.106240005,0,0,0,0,0,1.070159912109375
0.107234104,0,0,0,0,0,0.5350799560546875
0.108226017,0,0,0,0,0,0.611519992351532
0.109228152,0,0,0,0,0,1.223039984703064
0.110259194,0,0,0,0,0,0.8408399820327759
0.111231181,0,0,0,0,0,0.8408399820327759
0.112249686,0,0,0,0,0,0.6879600286483765
0.11322834,0,0,0,0,0,0.6879600286483765
0.114225957,0,0,0,0,0,0.9172800183296204
0.115228777,0,0,0,0,0,0.8408399820327759
0.116225875,0,0,0,0,0,0.4586400091648102
0.117225955,0,0,0,0,0,0.9172800183296204
0.118225942,0,0,0,0,0,0.7644000053405762
0.119226781,0,0,0,0,0,0.9172800183296204
0.120242175,0,0,0,0,0,0.9172800183296204
0.121227903,0,0,0,0,0,0.4586400091648102
0.122225427,0,0,0,0,0,1.070159912109375
0.123227858,0,0,0,0,0,0.9937199950218201
0.124225956,0,0,0,0,0,0.5350799560546875
0.125225647,0,0,0,0,0,0.9937199950218201
0.126225708,0,0,0,0,0,0.9937199950218201
0.127226732,0,0,0,0,0,0.6879600286483765
0.128225867,0,0,0,0,0,0.9172800183296204
0.129245224,0,0,0,0,0,0.7644000053405762
0.13022736,0,0,0,0,0,0.611519992351532
0.131227032,0,0,0,0,0,0.8408399820327759
0.132225741,0,0,0,0,0,0.8408399820327759
0.133225784,0,0,0,0,0,0.9937199950218201
0.134225919,0,0,0,0,0,0.6879600286483765
0.135226684,0,0,0,0,0,0.6879600286483765
0.136225911,0,0,0,0,0,0.7644000053405762
0.137225695,0,0,0,0,0,0.6879600286483765
0.138225885,0,0,0,0,0,0.8408399820327759
0.139226817,0,0,0,0,0,0.6879600286483765
0.140225285,0,0,0,0,0,0.9937199950218201
0.14122568,0,0,0,0,0,0.7644000053405762
0.142225704,0,0,0,0,0,0.9172800183296204
0.143225894,0,0,0,0,0,0.6879600286483765
0.144225233,0,0,0,0,0,1.1466000080108643
0.145225887,0,0,0,0,0,0.7644000053405762
0.146225781,0,0,0,0,0,0.611519992351532
0.147226824,0,0,0,0,0,0.9172800183296204
0.148225811,0,0,0,0,0,0.6879600286483765
0.149225668,0,0,0,0,0,0.7644000053405762
0.150225766,0,0,0,0,0,0.4586400091648102
0.151225809,0,0,0,0,0,0.9172800183296204
0.152225684,0,0,0,0,0,1.070159912109375
0.153225912,0,0,0,0,0,1.070159912109375
0.154225547,0,0,0,0,0,0.9172800183296204
0.155226942,0,0,0,0,0,1.2994799613952637
0.156226077,0,0,0,0,0,0.7644000053405762
0.157225749,0,0,0,0,0,0.6879600286483765
0.158225754,0,0,0,0,0,0.7644000053405762
0.159227964,0,0,0,0,0,0.6879600286483765
0.160225654,0,0,0,0,0,1.223039984703064
0.161225901,0,0,0,0,0,0.5350799560546875
0.162225202,0,0,0,0,0,0.9172800183296204
0.163226245,0,0,0,0,0,0.9172800183296204
0.164225287,0,0,0,0,0,0.611519992351532
0.165434957,0,0,0,0,0,0.6879600286483765
0.166233521,0,0,0,0,0,1.070159912109375
0.167232915,0,0,0,0,0,0.611519992351532
0.168225254,0,0,0,0,0,0.5350799560546875
0.169223852,0,0,0,0,0,0.611519992351532
0.170223617,0,0,0,0,0,0.6879600286483765
0.171224141,0,0,0,0,0,0.9937199950218201
0.172223535,0,0,0,0,0,0.3822000026702881
0.173223355,0,0,0,0,0,0.8408399820327759
0.174223491,0,0,0,0,0,0.9937199950218201
0.175223978,0,0,0,0,0,0.7644000053405762
0.176223724,0,0,0,0,0,0.8408399820327759
0.177224174,0,0,0,0,0,1.070159912109375
0.178223735,0,0,0,0,0,0.9172800183296204
0.179227351,0,0,0,0,0,0.7644000053405762
0.180225894,0,0,0,0,0,0.611519992351532
0.181225622,0,0,0,0,0,0.5350799560546875
0.182225812,0,0,0,0,0,0.7644000053405762
0.183226651,0,0,0,0,0,0.6879600286483765
0.184225842,0,0,0,0,0,0.8408399820327759
0.185225718,0,0,0,0,0,0.9172800183296204
0.186235593,0,0,0,0,0,0.6879600286483765
0.187226988,0,0,0,0,0,1.070159912109375
0.18822579,0,0,0,0,0,0.9172800183296204
0.18922574,0,0,0,0,0,0.611519992351532
0.190225782,0,0,0,0,0,1.070159912109375
0.191226602,0,0,0,0,0,0.9172800183296204
0.192225682,0,0,0,0,0,0.9937199950218201
0.193225502,0,0,0,0,0,0.9937199950218201
0.19422573,0,0,0,0,0,0.611519992351532
0.195226736,0,0,0,0,0,1.1466000080108643
0.196225778,0,0,0,0,0,0.8408399820327759
0.197225728,0,0,0,0,0,0.7644000053405762
0.198225863,0,0,0,0,0,0.9937199950218201
0.199226813,0,0,0,0,0,0.5350799560546875
0.200225893,0,0,0,0,0,0.7644000053405762
0.201225583,0,0,0,0,0,0.9937199950218201
0.202225756,0,0,0,0,0,0.6879600286483765
0.203226631,0,0,0,0,0,0.9937199950218201
0.204225618,0,0,0,0,0,0.5350799560546875
0.205225328,0,0,0,0,0,0.9172800183296204
0.206225611,0,0,0,0,0,0.9172800183296204
0.207227153,0,0,0,0,0,1.070159912109375
0.208225085,0,0,0,0,0,1.070159912109375
0.209225738,0,0,0,0,0,1.223039984703064
0.210225781,0,0,0,0,0,1.070159912109375
0.211226657,0,0,0,0,0,0.7644000053405762
0.212225811,0,0,0,0,0,0.9172800183296204
0.213225927,0,0,0,0,0,0.5350799560546875
0.214225636,0,0,0,0,0,0.6879600286483765
0.215226623,0,0,0,0,0,0.6879600286483765
0.216225944,0,0,0,0,0,0.7644000053405762
0.217225708,0,0,0,0,0,0.9172800183296204
0.218225677,0,0,0,0,0,0.8408399820327759
0.219226812,0,0,0,0,0,0.9172800183296204
0.220225725,0,0,0,0,0,0.9937199950218201
0.221225564,0,0,0,0,0,0.8408399820327759
0.22222581,0,0,0,0,0,0.611519992351532
0.223226982,0,0,0,0,0,0.9172800183296204
0.224225691,0,0,0,0,0,0.9172800183296204
0.225225993,0,0,0,0,0,1.1466000080108643
0.226225665,0,0,0,0,0,0.3822000026702881
0.227226763,0,0,0,0,0,0.9172800183296204
0.228225861,0,0,0,0,0,1.070159912109375
0.229225663,0,0,0,0,0,0.611519992351532
0.230225428,0,0,0,0,0,0.5350799560546875
0.231226378,0,0,0,0,0,0.9172800183296204
0.232225513,0,0,0,0,0,1.070159912109375
0.233225593,0,0,0,0,0,0.9937199950218201
0.234225802,0,0,0,0,0,1.070159912109375
0.235226844,0,0,0,0,0,0.9172800183296204
0.236225646,0,0,0,0,0,0.9172800183296204
0.237225874,0,0,0,0,0,0.6879600286483765
0.238225787,0,0,0,0,0,0.9172800183296204
0.239226552,0,0,0,0,0,1.1466000080108643
0.240225668,0,0,0,0,0,0.7644000053405762
0.241225803,0,0,0,0,0,0.6879600286483765
0.24222555,0,0,0,0,0,0.9937199950218201
0.243225944,0,0,0,0,0,0.6879600286483765
0.244225783,0,0,0,0,0,0.7644000053405762
0.245225973,0,0,0,0,0,0.7644000053405762
0.246225849,0,0,0,0,0,0.6879600286483765
0.247226984,0,0,0,0,0,0.9172800183296204
0.24822549,0,0,0,0,0,0.7644000053405762
0.249225681,0,0,0,0,0,0.7644000053405762
0.250234186,0,0,0,0,0,0.9937199950218201
0.251227562,0,0,0,0,0,0.5350799560546875
0.252226864,0,0,0,0,0,1.070159912109375
0.253225777,0,0,0,0,0,0.9172800183296204
0.254225801,0,0,0,0,0,0.7644000053405762
0.255226639,0,0,0,0,0,0.9937199950218201
0.256225664,0,0,0,0,0,0.6879600286483765
0.257243206,0,0,0,0,0,0.611519992351532
0.258227174,0,0,0,0,0,0.5350799560546875
0.259226828,0,0,0,0,0,0
0.260225797,0,0,0,0,0,0
0.261225672,0,0,0,0,0,0.6879600286483765
0.26222553,0,0,0,0,0,-0.7644000053405762
0.263226443,0,0,0,0,0,0
0.264225856,0,0,0,0,0,-0.2293200045824051
0.265225417,0,0,0,0,0,-0.9172800183296204
0.266225904,0,0,0,0,0,0.2293200045824051
0.267226668,0,0,0,0,0,0
0.268225618,0,0,0,0,0,-0.152879998087883
0.269225531,0,0,0,0,0,0.0764399990439415
0.270225648,0,0,0,0,0,0.8408399820327759
0.271226653,0,0,0,0,0,0.9172800183296204
0.272225826,0,0,0,0,0,0.9937199950218201
0.27322535,0,0,0,0,0,1.5288000106811523
0.274298373,0,0,0,0,0,0.6879600286483765
0.275228138,0,0,0,0,0,0.6879600286483765
0.276226107,0,0,0,0,0,1.1466000080108643
0.27726689,0,0,0,0,0,0
0.278227136,0,0,0,0,0,0
0.27922716,0,0,0,0,0,0
0.280225851,0,0,0,0,0,-0.2293200045824051
0.281225838,0,0,0,0,0,0.0764399990439415
0.282225806,0,0,0,0,0,0
0.283226905,0,0,0,0,0,0.305759996175766
0.284225854,0,0,0,0,0,0.152879998087883
0.285225953,0,0,0,0,0,0.6879600286483765
0.286225606,0,0,0,0,0,0.152879998087883
0.287226908,0,0,0,0,0,0.6879600286483765
0.288225858,0,0,0,0,0,0.6879600286483765
0.289225826,0,0,0,0,0,0.5350799560546875
0.290225832,0,0,0,0,0,0.611519992351532
0.291226467,0,0,0,0,0,0.7644000053405762
0.292225713,0,0,0,0,0,0.5350799560546875
0.293225774,0,0,0,0,0,0.4586400091648102
0.29422565,0,0,0,0,0,0
0.295226396,0,0,0,0,0,-0.152879998087883
0.296226069,0,0,0,0,0,0.152879998087883
0.297225852,0,0,0,0,0,0.4586400091648102
0.298226024,0,0,0,0,0,0.0764399990439415
0.2992269,0,0,0,0,0,0.3822000026702881
0.300225868,0,0,0,0,0,0.305759996175766
0.301225855,0,0,0,0,0,0.3822000026702881
0.302225935,0,0,0,0,0,0
0.303226903,0,0,0,0,0,0.152879998087883
0.304226001,0,0,0,0,0,0
0.305225877,0,0,0,0,0,0.152879998087883
0.306225735,0,0,0,0,0,0.4586400091648102
0.307226722,0,0,0,0,0,0.6879600286483765
0.308225894,0,0,0,0,0,0.9937199950218201
0.309226066,0,0,0,0,0,0.3822000026702881
0.310225738,0,0,0,0,0,0.0764399990439415
0.311255984,0,0,0,0,0,0
0.312282471,0,0,0,0,0,-0.152879998087883
0.313229069,0,0,0,0,0,-0.305759996175766
0.314226371,0,0,0,0,0,0.5350799560546875
0.315230377,0,0,0,0,0,0.6879600286483765
0.31622553,0,0,0,0,0,1.1466000080108643
0.317232277,0,0,0,0,0,1.605239987373352
0.318226967,0,0,0,0,0,0.8408399820327759
0.31923151,0,0,0,0,0,0.3822000026702881
0.320229423,0,0,0,0,0,0.6879600286483765
0.321244169,0,0,0,0,0,0.7644000053405762
0.322232637,0,0,0,0,0,0
0.323226773,0,0,0,0,0,0.9937199950218201
0.324259074,0,0,0,0,0,0
0.325227043,0,0,0,0,0,0
0.326226122,0,0,0,0,0,0.4586400091648102
0.327226091,0,0,0,0,0,0
0.328225782,0,0,0,0,0,0
0.329225898,0,0,0,0,0,0.152879998087883
0.330225867,0,0,0,0,0,-0.5350799560546875
0.331226946,0,0,0,0,0,-0.305759996175766
0.332225674,0,0,0,0,0,0.0764399990439415
0.333225828,0,0,0,0,0,-0.305759996175766
0.334225777,0,0,0,0,0,0
0.335226839,0,0,0,0,0,0.152879998087883
0.336225826,0,0,0,0,0,0.6879600286483765
0.337225794,0,0,0,0,0,0.4586400091648102
0.338225374,0,0,0,0,0,1.070159912109375
0.339226842,0,0,0,0,0,1.5288000106811523
0.340225829,0,0,0,0,0,0.0764399990439415
0.341225872,0,0,0,0,0,1.1466000080108643
0.342225914,0,0,0,0,0,0.8408399820327759
0.343226845,0,0,0,0,0,0.305759996175766
0.344226018,0,0,0,0,0,0.305759996175766
0.345225931,0,0,0,0,0,-0.152879998087883
0.346225732,0,0,0,0,0,0
0.347226904,0,0,0,0,0,0
0.34823054,0,0,0,0,0,0.5350799560546875
0.349259378,0,0,0,0,0,0.152879998087883
0.350249087,0,0,0,0,0,0
0.351232075,0,0,0,0,0,-0.3822000026702881
0.352225895,0,0,0,0,0,-0.6879600286483765
0.353227012,0,0,0,0,0,0.2293200045824051
0.354349719,0,0,0,0,0,-0.611519992351532
0.355229948,0,0,0,0,0,0
0.356225917,0,0,0,0,0,1.223039984703064
0.357226071,0,0,0,0,0,0.611519992351532
0.358225798,0,0,0,0,0,1.5288000106811523
0.359226637,0,0,0,0,0,1.5288000106811523
0.360225457,0,0,0,0,0,0.9172800183296204
0.361226037,0,0,0,0,0,0.8408399820327759
0.362225746,0,0,0,0,0,0.0764399990439415
0.363226585,0,0,0,0,0,0.2293200045824051
0.364225516,0,0,0,0,0,0
0.365225689,0,0,0,0,0,0.152879998087883
0.366237805,0,0,0,0,0,0.0764399990439415
0.367225996,0,0,0,0,0,0
0.36822415,0,0,0,0,0,-0.152879998087883
0.369224192,0,0,0,0,0,-0.9937199950218201
0.370223346,0,0,0,0,0,0
0.371223999,0,0,0,0,0,9.631440162658691
0.372223616,0,0,0,0,0,0.6879600286483765
0.373223566,0,0,0,0,0,0.9937199950218201
0.37422346,0,0,0,0,0,1.452359914779663
0.375224188,0,0,0,0,0,1.070159912109375
0.376223601,0,0,0,0,0,0.2293200045824051
0.377223532,0,0,0,0,0,0.5350799560546875
0.378223371,0,0,0,0,0,0.0764399990439415
0.379227284,0,0,0,0,0,0
0.380226049,0,0,0,0,0,0.305759996175766
0.381228888,0,0,0,0,0,0.7644000053405762
0.382226412,0,0,0,0,0,0
0.383227362,0,0,0,0,0,0.9937199950218201
0.384226293,0,0,0,0,0,0.9937199950218201
0.385226169,0,0,0,0,0,0.2293200045824051
0.386226045,0,0,0,0,0,1.223039984703064
0.387227161,0,0,0,0,0,0.9172800183296204
0.388226167,0,0,0,0,0,0
0.389226061,0,0,0,0,0,-0.152879998087883
0.390226308,0,0,0,0,0,0.8408399820327759
0.391226183,0,0,0,0,0,-0.7644000053405762
0.392226022,0,0,0,0,0,-0.305759996175766
0.393226213,0,0,0,0,0,0.8408399820327759
0.394226126,0,0,0,0,0,-0.9172800183296204
0.395227205,0,0,0,0,0,0.8408399820327759
0.396226174,0,0,0,0,0,1.5288000106811523
0.397226179,0,0,0,0,0,0
0.398226426,0,0,0,0,0,1.605239987373352
0.399226783,0,0,0,0,0,2.06387996673584
0.400226122,0,0,0,0,0,-1.375920057296753
0.40122609,0,0,0,0,0,0.5350799560546875
0.40222617,0,0,0,0,0,0.5350799560546875
0.403226898,0,0,0,0,0,-1.223039984703064
0.404226236,0,0,0,0,0,0.6879600286483765
0.405226205,0,0,0,0,0,-0.7644000053405762
0.406226266,0,0,0,0,0,0.2293200045824051
0.407226105,0,0,0,0,0,1.5288000106811523
0.408223407,0,0,0,0,0,0.2293200045824051
0.409223616,0,0,0,0,0,0.9172800183296204
0.410239973,0,0,0,0,0,0.9172800183296204
0.411227312,0,0,0,0,0,-0.7644000053405762
0.412226003,0,0,0,0,0,-0.5350799560546875
0.413225767,0,0,0,0,0,-1.2994799613952637
0.41422568,0,0,0,0,0,0.5350799560546875
0.415226945,0,0,0,0,0,-0.7644000053405762
0.416225839,0,0,0,0,0,1.5288000106811523
0.417225752,0,0,0,0,0,1.375920057296753
0.418225647,0,0,0,0,0,0.3822000026702881
0.419226763,0,0,0,0,0,3.210479974746704
0.42022575,0,0,0,0,0,0.4586400091648102
0.421225422,0,0,0,0,0,0.6879600286483765
0.422225669,0,0,0,0,0,0.5350799560546875
0.423226452,0,0,0,0,0,-1.758120059967041
0.424225069,0,0,0,0,0,1.070159912109375
0.425225352,0,0,0,0,0,-0.6879600286483765
0.426391318,0,0,0,0,0,1.070159912109375
0.42724114,0,0,0,0,0,2.14031982421875
0.428230794,0,0,0,0,0,2.2167599201202393
0.429234337,0,0,0,0,0,3.592679977416992
0.430226416,0,0,0,0,0,0.2293200045824051
0.431231125,0,0,0,0,0,1.375920057296753
0.432226112,0,0,0,0,0,0.2293200045824051
0.433226155,0,0,0,0,0,-0.7644000053405762
0.43422592,0,0,0,0,0,0.4586400091648102
0.435226055,0,0,0,0,0,-0.4586400091648102
0.436225764,0,0,0,0,0,1.452359914779663
0.437226029,0,0,0,0,0,0.9172800183296204
0.438225831,0,0,0,0,0,1.758120059967041
0.439226151,0,0,0,0,0,1.223039984703064
0.440225916,0,0,0,0,0,0
0.441225977,0,0,0,0,0,1.1466000080108643
0.442225927,0,0,0,0,0,-1.070159912109375
0.44322634,0,0,0,0,0,0.5350799560546875
0.444225882,0,0,0,0,0,0.305759996175766
0.445226017,0,0,0,0,0,0.5350799560546875
0.446225467,0,0,0,0,0,2.06387996673584
0.447227862,0,0,0,0,0,0.9937199950218201
0.448225849,0,0,0,0,0,3.210479974746704
0.449225632,0,0,0,0,0,1.223039984703064
0.450225693,0,0,0,0,0,1.070159912109375
0.451227217,0,0,0,0,0,0
0.452226019,0,0,0,0,0,-1.223039984703064
0.453226006,0,0,0,0,0,0.6879600286483765
0.454225808,0,0,0,0,0,-0.5350799560546875
0.455227035,0,0,0,0,0,1.452359914779663
0.456225837,0,0,0,0,0,1.223039984703064
0.45722575,0,0,0,0,0,1.758120059967041
0.458226163,0,0,0,0,0,2.5989599227905273
0.459226057,0,0,0,0,0,0.0764399990439415
0.460225933,0,0,0,0,0,1.223039984703064
0.461225809,0,0,0,0,0,-0.611519992351532
0.462226055,0,0,0,0,0,0.5350799560546875
0.463226931,0,0,0,0,0,0.0764399990439415
0.464225325,0,0,0,0,0,0.6879600286483765
0.465225961,0,0,0,0,0,1.9874399900436401
0.466225966,0,0,0,0,0,1.070159912109375
0.467226435,0,0,0,0,0,3.2869198322296143
0.468225496,0,0,0,0,0,1.605239987373352
0.469225853,0,0,0,0,0,0.152879998087883
0.470225803,0,0,0,0,0,0.9937199950218201
0.471226919,0,0,0,0,0,-1.2994799613952637
0.472226018,0,0,0,0,0,0
0.473225671,0,0,0,0,0,-0.5350799560546875
0.474239788,0,0,0,0,0,1.452359914779663
0.47522709,0,0,0,0,0,1.2994799613952637
0.476225873,0,0,0,0,0,1.6816799640655518
0.477225878,0,0,0,0,0,2.6754000186920166
0.478225976,0,0,0,0,0,0.152879998087883
0.479226834,0,0,0,0,0,1.2994799613952637
0.480225876,0,0,0,0,0,-0.2293200045824051
0.481225882,0,0,0,0,0,-0.6879600286483765
0.482225869,0,0,0,0,0,1.070159912109375
0.483227078,0,0,0,0,0,0
0.484226028,0,0,0,0,0,2.522519826889038
0.485225756,0,0,0,0,0,0.9937199950218201
0.486225798,0,0,0,0,0,2.6754000186920166
0.487226896,0,0,0,0,0,1.375920057296753
0.488225865,0,0,0,0,0,-0.2293200045824051
0.489225537,0,0,0,0,0,0.5350799560546875
0.490225913,0,0,0,0,0,-1.223039984703064
0.491226992,0,0,0,0,0,0.4586400091648102
0.492226035,0,0,0,0,0,0.6879600286483765
0.493226022,0,0,0,0,0,0.9172800183296204
0.494226101,0,0,0,0,0,2.446079969406128
0.495226996,0,0,0,0,0,1.1466000080108643
0.496225853,0,0,0,0,0,1.9874399900436401
0.497226136,0,0,0,0,0,-0.305759996175766
0.498225864,0,0,0,0,0,0
0.499226777,0,0,0,0,0,-0.4586400091648102
0.500226097,0,0,0,0,0,-0.5350799560546875
0.501225844,0,0,0,0,0,1.2994799613952637
0.502225942,0,0,0,0,0,0.2293200045824051
0.50322704,0,0,0,0,0,2.14031982421875
0.504226027,0,0,0,0,0,2.06387996673584
0.505225921,0,0,0,0,0,1.375920057296753
0.50622576,0,0,0,0,0,1.5288000106811523
0.507226969,0,0,0,0,0,-0.6879600286483765
0.508226049,0,0,0,0,0,0.8408399820327759
0.509225888,0,0,0,0,0,-0.8408399820327759
0.510225838,0,0,0,0,0,0.305759996175766
0.511225547,0,0,0,0,0,1.1466000080108643
0.512225608,0,0,0,0,0,0.9937199950218201
0.513264205,0,0,0,0,0,2.751840114593506
0.514227582,0,0,0,0,0,1.1466000080108643
0.515227402,0,0,0,0,0,2.2932000160217285
0.516225982,0,0,0,0,0,1.070159912109375
0.517226117,0,0,0,0,0,0
0.518226011,0,0,0,0,0,0.0764399990439415
0.519226906,0,0,0,0,0,-1.2994799613952637
0.5202258,0,0,0,0,0,0.9172800183296204
0.521225824,0,0,0,0,0,0
0.522225663,0,0,0,0,0,1.8345600366592407
0.523227057,0,0,0,0,0,1.6816799640655518
0.5242261,0,0,0,0,0,1.8345600366592407
0.525225864,0,0,0,0,0,2.6754000186920166
0.526225722,0,0,0,0,0,-0.152879998087883
0.527226987,0,0,0,0,0,0.2293200045824051
0.528225974,0,0,0,0,0,-0.5350799560546875
0.52922572,0,0,0,0,0,-0.4586400091648102
0.530225873,0,0,0,0,0,0.6879600286483765
0.531226731,0,0,0,0,0,0.2293200045824051
0.532225421,0,0,0,0,0,2.9811599254608154
0.533226038,0,0,0,0,0,1.8345600366592407
0.534225932,0,0,0,0,0,2.522519826889038
0.535226864,0,0,0,0,0,2.2932000160217285
0.53622574,0,0,0,0,0,-0.3822000026702881
0.537225819,0,0,0,0,0,0.2293200045824051
0.538226029,0,0,0,0,0,-1.375920057296753
0.539226553,0,0,0,0,0,0
0.540225743,0,0,0,0,0,0.2293200045824051
0.541261489,0,0,0,0,0,1.5288000106811523
0.542226902,0,0,0,0,0,2.522519826889038
0.543227075,0,0,0,0,0,1.758120059967041
0.544225839,0,0,0,0,0,2.751840114593506
0.545225919,0,0,0,0,0,0.6879600286483765
0.54622585,0,0,0,0,0,0.4586400091648102
0.547227115,0,0,0,0,0,-0.6879600286483765
0.548225658,0,0,0,0,0,-1.1466000080108643
0.549225793,0,0,0,0,0,0.5350799560546875
0.550225428,0,0,0,0,0,-0.152879998087883
0.551226841,0,0,0,0,0,2.6754000186920166
0.552225809,0,0,0,0,0,1.5288000106811523
0.553225759,0,0,0,0,0,2.2932000160217285
0.554225376,0,0,0,0,0,2.3696401119232178
0.555225863,0,0,0,0,0,0
0.556225887,0,0,0,0,0,0.3822000026702881
0.557225837,0,0,0,0,0,-0.8408399820327759
0.558225935,0,0,0,0,0,-0.3822000026702881
0.559227162,0,0,0,0,0,0.7644000053405762
0.560225853,0,0,0,0,0,0.611519992351532
0.561225933,0,0,0,0,0,2.904719829559326
0.56222592,0,0,0,0,0,1.758120059967041
0.563225388,0,0,0,0,0,2.828279972076416
0.564225412,0,0,0,0,0,1.1466000080108643
0.565448007,0,0,0,0,0,0.2293200045824051
0.566225757,0,0,0,0,0,-0.2293200045824051
0.567232669,0,0,0,0,0,-1.452359914779663
0.568232749,0,0,0,0,0,0.7644000053405762
0.56922518,0,0,0,0,0,-0.5350799560546875
0.570223853,0,0,0,0,0,1.1466000080108643
0.571224377,0,0,0,0,0,2.522519826889038
0.572223252,0,0,0,0,0,1.2994799613952637
0.573223462,0,0,0,0,0,2.6754000186920166
0.574367521,0,0,0,0,0,-0.2293200045824051
0.575224954,0,0,0,0,0,0.611519992351532
0.576223608,0,0,0,0,0,-0.3822000026702881
0.577234743,0,0,0,0,0,-0.2293200045824051
0.5782241,0,0,0,0,0,0.305759996175766
0.579227272,0,0,0,0,0,0.3822000026702881
0.580226222,0,0,0,0,0,2.5989599227905273
0.581226265,0,0,0,0,0,1.452359914779663
0.58222577,0,0,0,0,0,2.446079969406128
0.583227165,0,0,0,0,0,2.446079969406128
0.5842258,0,0,0,0,0,-0.2293200045824051
0.585225879,0,0,0,0,0,-0.152879998087883
0.586225959,0,0,0,0,0,-1.070159912109375
0.587227187,0,0,0,0,0,0.4586400091648102
0.588225952,0,0,0,0,0,-0.4586400091648102
0.589226124,0,0,0,0,0,1.2994799613952637
0.590226296,0,0,0,0,0,2.522519826889038
0.591227098,0,0,0,0,0,1.8345600366592407
0.592226159,0,0,0,0,0,3.4398000240325928
0.593225775,0,0,0,0,0,1.605239987373352
0.594225985,0,0,0,0,0,0.8408399820327759
0.59522686,0,0,0,0,0,0.8408399820327759
0.596225829,0,0,0,0,0,-0.4586400091648102
0.597225501,0,0,0,0,0,0.152879998087883
0.598226044,0,0,0,0,0,-0.6879600286483765
0.599230123,0,0,0,0,0,2.06387996673584
0.600260721,0,0,0,0,0,1.223039984703064
0.6012508,0,0,0,0,0,1.8345600366592407
0.602226936,0,0,0,0,0,2.446079969406128
0.603230478,0,0,0,0,0,0
0.604226336,0,0,0,0,0,0.5350799560546875
0.605226082,0,0,0,0,0,-0.9172800183296204
0.606225958,0,0,0,0,0,-0.3822000026702881
0.607228167,0,0,0,0,0,-0.3822000026702881
0.608225895,0,0,0,0,0,0.611519992351532
0.609226123,0,0,0,0,0,2.14031982421875
0.610226109,0,0,0,0,0,1.223039984703064
0.611227096,0,0,0,0,0,3.6691200733184814
0.612225954,0,0,0,0,0,1.9109998941421509
0.613225682,0,0,0,0,0,0.305759996175766
0.614226113,0,0,0,0,0,0.7644000053405762
0.615226693,0,0,0,0,0,-1.070159912109375
0.616226217,0,0,0,0,0,0.2293200045824051
0.617225907,0,0,0,0,0,-0.6879600286483765
0.618226024,0,0,0,0,0,1.5288000106811523
0.619226622,0,0,0,0,0,1.2994799613952637
0.620225924,0,0,0,0,0,1.9874399900436401
0.62122617,0,0,0,0,0,3.2869198322296143
0.622226027,0,0,0,0,0,1.223039984703064
0.623226811,0,0,0,0,0,1.452359914779663
0.624225835,0,0,0,0,0,0
0.625226044,0,0,0,0,0,-0.9172800183296204
0.626226105,0,0,0,0,0,-0.305759996175766
0.627226833,0,0,0,0,0,-0.7644000053405762
0.628226208,0,0,0,0,0,1.758120059967041
0.62922601,0,0,0,0,0,0.9937199950218201
0.630225886,0,0,0,0,0,3.134040117263794
0.631227169,0,0,0,0,0,2.2932000160217285
0.632226027,0,0,0,0,0,0.611519992351532
0.633225884,0,0,0,0,0,0.9937199950218201
0.634226038,0,0,0,0,0,-0.611519992351532
0.635227173,0,0,0,0,0,0.611519992351532
0.636225845,0,0,0,0,0,-0.2293200045824051
0.637225443,0,0,0,0,0,0.6879600286483765
0.638225763,0,0,0,0,0,2.522519826889038
0.639227973,0,0,0,0,0,0.9937199950218201
0.640225404,0,0,0,0,0,3.3633599281311035
0.641226002,0,0,0,0,0,0.8408399820327759
0.642225841,0,0,0,0,0,0.9172800183296204
0.64322705,0,0,0,0,0,0
0.644225908,0,0,0,0,0,-0.611519992351532
0.645226006,0,0,0,0,0,0
0.646226011,0,0,0,0,0,-0.9937199950218201
0.647227017,0,0,0,0,0,1.375920057296753
0.64822617,0,0,0,0,0,0.7644000053405762
0.649225954,0,0,0,0,0,1.5288000106811523
0.650225644,0,0,0,0,0,2.751840114593506
0.651226983,0,0,0,0,0,0.0764399990439415
0.652225859,0,0,0,0,0,1.1466000080108643
0.653225864,0,0,0,0,0,-0.5350799560546875
0.654365794,0,0,0,0,0,0.5350799560546875
0.655229135,0,0,0,0,0,0
0.656226288,0,0,0,0,0,0.611519992351532
0.657226072,0,0,0,0,0,2.2932000160217285
0.658225781,0,0,0,0,0,1.1466000080108643
0.659226916,0,0,0,0,0,2.5989599227905273
0.660225977,0,0,0,0,0,2.3696401119232178
0.66122589,0,0,0,0,0,0.152879998087883
0.662225525,0,0,0,0,0,1.223039984703064
0.663227049,0,0,0,0,0,-0.2293200045824051
0.664226054,0,0,0,0,0,0.3822000026702881
0.665225967,0,0,0,0,0,-0.611519992351532
0.666225954,0,0,0,0,0,1.5288000106811523
0.667227256,0,0,0,0,0,0.6879600286483765
0.668226151,0,0,0,0,0,1.070159912109375
0.669225934,0,0,0,0,0,2.5989599227905273
0.670226032,0,0,0,0,0,0.0764399990439415
0.671227074,0,0,0,0,0,0.9937199950218201
0.672225913,0,0,0,0,0,-0.2293200045824051
0.673225863,0,0,0,0,0,-0.9172800183296204
0.674225906,0,0,0,0,0,-0.2293200045824051
0.67522693,0,0,0,0,0,0
0.676226176,0,0,0,0,0,1.9109998941421509
0.677226089,0,0,0,0,0,1.070159912109375
0.678225983,0,0,0,0,0,2.9811599254608154
0.679227044,0,0,0,0,0,2.2932000160217285
0.680225568,0,0,0,0,0,0.152879998087883
0.681226018,0,0,0,0,0,1.375920057296753
0.682225931,0,0,0,0,0,-0.4586400091648102
0.683226474,0,0,0,0,0,0.3822000026702881
0.684225535,0,0,0,0,0,0
0.685226133,0,0,0,0,0,0.6879600286483765
0.686225805,0,0,0,0,0,1.375920057296753
0.687240125,0,0,0,0,0,1.223039984703064
0.688227075,0,0,0,0,0,3.0576000213623047
0.689226099,0,0,0,0,0,0.2293200045824051
0.690225938,0,0,0,0,0,0.8408399820327759
0.691227221,0,0,0,0,0,0.152879998087883
0.692333781,0,0,0,0,0,-1.452359914779663
0.693236492,0,0,0,0,0,0.3822000026702881
0.69422646,0,0,0,0,0,-0.8408399820327759
0.695227558,0,0,0,0,0,1.452359914779663
0.696226008,0,0,0,0,0,1.1466000080108643
0.69722581,0,0,0,0,0,1.9874399900436401
0.698226112,0,0,0,0,0,2.5989599227905273
0.699227025,0,0,0,0,0,-0.3822000026702881
0.70022603,0,0,0,0,0,0.8408399820327759
0.701225906,0,0,0,0,0,0
0.702225819,0,0,0,0,0,0.5350799560546875
0.703227084,0,0,0,0,0,0.4586400091648102
0.704225756,0,0,0,0,0,0.6879600286483765
0.705226706,0,0,0,0,0,2.446079969406128
0.706226378,0,0,0,0,0,1.375920057296753
0.707226476,0,0,0,0,0,3.0576000213623047
0.708226204,0,0,0,0,0,0.6879600286483765
0.709226357,0,0,0,0,0,0.305759996175766
0.710225881,0,0,0,0,0,0.152879998087883
0.711227109,0,0,0,0,0,-0.611519992351532
0.712225985,0,0,0,0,0,0.305759996175766
0.713225879,0,0,0,0,0,0
0.714225885,0,0,0,0,0,1.5288000106811523
0.715226761,0,0,0,0,0,1.070159912109375
0.716225785,0,0,0,0,0,1.070159912109375
0.71722605,0,0,0,0,0,2.904719829559326
0.718225722,0,0,0,0,0,-0.305759996175766
0.719227172,0,0,0,0,0,1.070159912109375
0.720225918,0,0,0,0,0,-0.2293200045824051
0.72122609,0,0,0,0,0,0
0.722225984,0,0,0,0,0,0.5350799560546875
0.723226564,0,0,0,0,0,0.3822000026702881
0.724225977,0,0,0,0,0,2.446079969406128
0.725225982,0,0,0,0,0,1.1466000080108643
0.726226155,0,0,0,0,0,2.14031982421875
0.72722653,0,0,0,0,0,1.758120059967041
0.728226129,0,0,0,0,0,-0.2293200045824051
0.729244949,0,0,0,0,0,1.375920057296753
0.730226677,0,0,0,0,0,-0.6879600286483765
0.731227404,0,0,0,0,0,1.375920057296753
0.732226113,0,0,0,0,0,0.2293200045824051
0.733226063,0,0,0,0,0,1.223039984703064
0.734225976,0,0,0,0,0,1.5288000106811523
0.735227093,0,0,0,0,0,1.1466000080108643
0.736226043,0,0,0,0,0,3.210479974746704
0.737226289,0,0,0,0,0,0
0.738226146,0,0,0,0,0,-0.2293200045824051
0.739227004,0,0,0,0,0,0
0.740225935,0,0,0,0,0,-0.8408399820327759
0.741225904,0,0,0,0,0,0.611519992351532
0.742226168,0,0,0,0,0,0.3822000026702881
0.743227118,0,0,0,0,0,2.3696401119232178
0.744225902,0,0,0,0,0,1.375920057296753
0.745225574,0,0,0,0,0,2.2167599201202393
0.746226042,0,0,0,0,0,1.758120059967041
0.74723314,0,0,0,0,0,0
0.748225868,0,0,0,0,0,0.9172800183296204
0.749226114,0,0,0,0,0,-0.611519992351532
0.750226175,0,0,0,0,0,0.305759996175766
0.75122707,0,0,0,0,0,0.9172800183296204
0.752226038,0,0,0,0,0,0.611519992351532
0.753226229,0,0,0,0,0,1.9874399900436401
0.754226179,0,0,0,0,0,1.070159912109375
0.755227092,0,0,0,0,0,2.9811599254608154
0.756226227,0,0,0,0,0,0.3822000026702881
0.757226029,0,0,0,0,0,-0.611519992351532
0.758226108,0,0,0,0,0,0.4586400091648102
0.759227262,0,0,0,0,0,-1.2994799613952637
0.760225916,0,0,0,0,0,0.7644000053405762
0.761226088,0,0,0,0,0,0
0.762226075,0,0,0,0,0,1.223039984703064
0.763226673,0,0,0,0,0,1.8345600366592407
0.764225808,0,0,0,0,0,1.9874399900436401
0.765225591,0,0,0,0,0,2.14031982421875
0.7662378,0,0,0,0,0,-0.3822000026702881
0.767233213,0,0,0,0,0,0.4586400091648102
0.768224793,0,0,0,0,0,-1.070159912109375
0.76922378,0,0,0,0,0,-0.305759996175766
0.7702231,0,0,0,0,0,1.1466000080108643
0.771224328,0,0,0,0,0,0.6879600286483765
0.77222363,0,0,0,0,0,2.5989599227905273
0.773223783,0,0,0,0,0,2.06387996673584
0.774223567,0,0,0,0,0,2.6754000186920166
0.775224017,0,0,0,0,0,1.223039984703064
0.776223485,0,0,0,0,0,-0.3822000026702881
0.777223565,0,0,0,0,0,0.5350799560546875
0.778223292,0,0,0,0,0,-1.8345600366592407
0.779224298,0,0,0,0,0,0.2293200045824051
0.780223489,0,0,0,0,0,0
0.78122342,0,0,0,0,0,0.8408399820327759
0.782223555,0,0,0,0,0,2.5989599227905273
0.783224153,0,0,0,0,0,1.6816799640655518
0.784223307,0,0,0,0,0,2.904719829559326
0.785223349,0,0,0,0,0,1.1466000080108643
0.78622341,0,0,0,0,0,0
0.787227194,0,0,0,0,0,-1.605239987373352
0.788226384,0,0,0,0,0,-0.9172800183296204
0.78922626,0,0,0,0,0,0
0.790226525,0,0,0,0,0,0
0.791226771,0,0,0,0,0,1.9874399900436401
0.79222624,0,0,0,0,0,2.06387996673584
0.793235208,0,0,0,0,0,2.828279972076416
0.794226825,0,0,0,0,0,2.9811599254608154
0.795227682,0,0,0,0,0,0.305759996175766
0.796226447,0,0,0,0,0,0.6879600286483765
0.797226304,0,0,0,0,0,-1.223039984703064
0.798226421,0,0,0,0,0,0
0.79922726,0,0,0,0,0,-0.4586400091648102
0.80022658,0,0,0,0,0,0.5350799560546875
0.801226122,0,0,0,0,0,2.2932000160217285
0.802226387,0,0,0,0,0,1.452359914779663
0.803227133,0,0,0,0,0,2.9811599254608154
0.804226583,0,0,0,0,0,1.8345600366592407
0.805226441,0,0,0,0,0,0
0.806226224,0,0,0,0,0,0.6879600286483765
0.807226785,0,0,0,0,0,-1.223039984703064
0.808226161,0,0,0,0,0,0.3822000026702881
0.809226278,0,0,0,0,0,0
0.810228913,0,0,0,0,0,2.06387996673584
0.811246844,0,0,0,0,0,1.9109998941421509
0.812227183,0,0,0,0,0,2.3696401119232178
0.813226114,0,0,0,0,0,2.3696401119232178
0.814226601,0,0,0,0,0,0.0764399990439415
0.81522831,0,0,0,0,0,1.070159912109375
0.816226427,0,0,0,0,0,-0.611519992351532
0.817226414,0,0,0,0,0,-0.8408399820327759
0.818226512,0,0,0,0,0,0.9172800183296204
0.819227444,0,0,0,0,0,-0.152879998087883
0.820226727,0,0,0,0,0,2.3696401119232178
0.821226455,0,0,0,0,0,1.375920057296753
0.82222633,0,0,0,0,0,2.6754000186920166
0.823227447,0,0,0,0,0,2.14031982421875
0.824226416,0,0,0,0,0,0
0.82522644,0,0,0,0,0,0.8408399820327759
0.826226352,0,0,0,0,0,-1.223039984703064
0.827227488,0,0,0,0,0,0.2293200045824051
0.828226438,0,0,0,0,0,-0.3822000026702881
0.829226387,0,0,0,0,0,0.5350799560546875
0.830226504,0,0,0,0,0,2.2167599201202393
0.831226787,0,0,0,0,0,1.758120059967041
0.83222633,0,0,0,0,0,2.9811599254608154
0.833226391,0,0,0,0,0,0.6879600286483765
0.834225767,0,0,0,0,0,1.070159912109375
0.835227328,0,0,0,0,0,0.0764399990439415
0.836226685,0,0,0,0,0,-1.070159912109375
0.83722645,0,0,0,0,0,0.7644000053405762
0.838226492,0,0,0,0,0,-0.611519992351532
0.839227331,0,0,0,0,0,1.6816799640655518
0.840226485,0,0,0,0,0,1.8345600366592407
0.841226398,0,0,0,0,0,1.9109998941421509
0.842226366,0,0,0,0,0,3.0576000213623047
0.843227613,0,0,0,0,0,0.0764399990439415
0.844226211,0,0,0,0,0,1.223039984703064
0.84522642,0,0,0,0,0,-0.7644000053405762
0.846226481,0,0,0,0,0,0.152879998087883
0.847227301,0,0,0,0,0,0
0.848226233,0,0,0,0,0,0.2293200045824051
0.849226423,0,0,0,0,0,1.9109998941421509
0.850230299,0,0,0,0,0,1.6816799640655518
0.851259249,0,0,0,0,0,2.446079969406128
0.852255106,0,0,0,0,0,2.2932000160217285
0.853227205,0,0,0,0,0,0.8408399820327759
0.854226192,0,0,0,0,0,0.5350799560546875
0.85523029,0,0,0,0,0,-0.9172800183296204
0.856226147,0,0,0,0,0,0.5350799560546875
0.857244041,0,0,0,0,0,-0.7644000053405762
0.858228584,0,0,0,0,0,2.06387996673584
0.859227719,0,0,0,0,0,2.446079969406128
0.860226502,0,0,0,0,0,2.828279972076416
0.861226508,0,0,0,0,0,4.662839889526367
0.862226384,0,0,0,0,0,2.2932000160217285
0.863227445,0,0,0,0,0,1.758120059967041
0.864226376,0,0,0,0,0,1.1466000080108643
0.865226363,0,0,0,0,0,-0.7644000053405762
0.866235387,0,0,0,0,0,0
0.867994864,0,0,0,0,0,-0.7644000053405762
0.868235657,0,0,0,0,0,1.605239987373352
0.86927507,0,0,0,0,0,2.446079969406128
0.870281594,0,0,0,0,0,1.605239987373352
0.871234507,0,0,0,0,0,3.210479974746704
0.872227846,0,0,0,0,0,1.452359914779663
0.873227277,0,0,0,0,0,0.4586400091648102
0.874229505,0,0,0,0,0,1.5288000106811523
0.875227307,0,0,0,0,0,-0.5350799560546875
0.876226868,0,0,0,0,0,1.605239987373352
0.877226596,0,0,0,0,0,1.223039984703064
0.878226583,0,0,0,0,0,0.8408399820327759
0.879227736,0,0,0,0,0,2.9811599254608154
0.880227186,0,0,0,0,0,1.5288000106811523
0.881226673,0,0,0,0,0,1.9109998941421509
0.882226753,0,0,0,0,0,2.446079969406128
0.883225481,0,0,0,0,0,1.8345600366592407
0.884223394,0,0,0,0,0,1.2994799613952637
0.885223955,0,0,0,0,0,0.9172800183296204
0.886223664,0,0,0,0,0,0.6879600286483765
0.887227762,0,0,0,0,0,0
0.888226786,0,0,0,0,0,0.5350799560546875
0.889226421,0,0,0,0,0,0.305759996175766
0.890226371,0,0,0,0,0,0.611519992351532
0.891226765,0,0,0,0,0,2.06387996673584
0.892226586,0,0,0,0,0,2.06387996673584
0.893226239,0,0,0,0,0,1.223039984703064
0.894226615,0,0,0,0,0,2.446079969406128
0.89522801,0,0,0,0,0,2.446079969406128
0.896226608,0,0,0,0,0,0.9937199950218201
0.897227372,0,0,0,0,0,1.9109998941421509
0.898226396,0,0,0,0,0,1.8345600366592407
0.899227532,0,0,0,0,0,1.070159912109375
0.900226556,0,0,0,0,0,1.605239987373352
0.901226376,0,0,0,0,0,1.1466000080108643
0.902226233,0,0,0,0,0,0.611519992351532
0.903227516,0,0,0,0,0,1.605239987373352
0.904226596,0,0,0,0,0,1.070159912109375
0.905226157,0,0,0,0,0,0.4586400091648102
0.9062262,0,0,0,0,0,1.1466000080108643
0.907227668,0,0,0,0,0,1.5288000106811523
0.908226637,0,0,0,0,0,0.9172800183296204
0.909226494,0,0,0,0,0,0.9937199950218201
0.910226518,0,0,0,0,0,1.2994799613952637
0.911227709,0,0,0,0,0,1.2994799613952637
0.912226659,0,0,0,0,0,1.452359914779663
0.913226312,0,0,0,0,0,2.3696401119232178
0.914226521,0,0,0,0,0,1.5288000106811523
0.915226064,0,0,0,0,0,1.375920057296753
0.91622381,0,0,0,0,0,1.223039984703064
0.917223668,0,0,0,0,0,0.4586400091648102
0.918223525,0,0,0,0,0,1.1466000080108643
0.919227697,0,0,0,0,0,0.7644000053405762
0.92022661,0,0,0,0,0,0.9172800183296204
0.921245874,0,0,0,0,0,1.8345600366592407
0.92222738,0,0,0,0,0,1.6816799640655518
0.923226423,0,0,0,0,0,1.452359914779663
0.924226502,0,0,0,0,0,1.070159912109375
0.925226545,0,0,0,0,0,1.605239987373352
0.926226661,0,0,0,0,0,1.2994799613952637
0.927226704,0,0,0,0,0,1.6816799640655518
0.928226487,0,0,0,0,0,1.2994799613952637
0.929226456,0,0,0,0,0,1.6816799640655518
0.930226387,0,0,0,0,0,1.452359914779663
0.931227541,0,0,0,0,0,1.070159912109375
0.932226528,0,0,0,0,0,0.9172800183296204
0.933226607,0,0,0,0,0,0.611519992351532
0.934226817,0,0,0,0,0,0.7644000053405762
0.935227452,0,0,0,0,0,1.9874399900436401
0.936226642,0,0,0,0,0,1.605239987373352
0.937226629,0,0,0,0,0,1.6816799640655518
0.938226468,0,0,0,0,0,1.758120059967041
0.939226603,0,0,0,0,0,1.223039984703064
0.940226479,0,0,0,0,0,1.758120059967041
0.941226596,0,0,0,0,0,1.223039984703064
0.942226453,0,0,0,0,0,0.9172800183296204
0.943227681,0,0,0,0,0,1.2994799613952637
0.944242779,0,0,0,0,0,1.6816799640655518
0.945235155,0,0,0,0,0,2.06387996673584
0.946226512,0,0,0,0,0,2.14031982421875
0.947226999,0,0,0,0,0,1.223039984703064
0.948226319,0,0,0,0,0,1.1466000080108643
0.949226195,0,0,0,0,0,0.9172800183296204
0.950226627,0,0,0,0,0,0.4586400091648102
0.951225354,0,0,0,0,0,0.7644000053405762
0.952223786,0,0,0,0,0,0.3822000026702881
0.953223828,0,0,0,0,0,0.9937199950218201
0.954226297,0,0,0,0,0,1.605239987373352
0.95522908,0,0,0,0,0,1.605239987373352
0.956226808,0,0,0,0,0,2.3696401119232178
0.957226573,0,0,0,0,0,1.8345600366592407
0.958241522,0,0,0,0,0,1.452359914779663
0.959290194,0,0,0,0,0,1.8345600366592407
0.96024257,0,0,0,0,0,1.452359914779663
0.961228465,0,0,0,0,0,1.6816799640655518
0.962228119,0,0,0,0,0,1.6816799640655518
0.963230883,0,0,0,0,0,1.5288000106811523
0.964227315,0,0,0,0,0,1.2994799613952637
0.965227117,0,0,0,0,0,0.6879600286483765
0.966230807,0,0,0,0,0,0.6879600286483765
0.967226757,0,0,0,0,0,1.1466000080108643
0.968228152,0,0,0,0,0,0.8408399820327759
0.969226157,0,0,0,0,0,1.452359914779663
0.970226218,0,0,0,0,0,1.6816799640655518
0.971225742,0,0,0,0,0,1.452359914779663
0.972223711,0,0,0,0,0,0.8408399820327759
0.973223772,0,0,0,0,0,0.5350799560546875
0.974223611,0,0,0,0,0,0.611519992351532
0.975228005,0,0,0,0,0,0.9937199950218201
0.976226584,0,0,0,0,0,1.2994799613952637
0.977226386,0,0,0,0,0,1.758120059967041
0.978226521,0,0,0,0,0,2.446079969406128
0.979225175,0,0,0,0,0,1.605239987373352
0.980223866,0,0,0,0,0,1.070159912109375
0.981223686,0,0,0,0,0,1.2994799613952637
0.98222371,0,0,0,0,0,0.9172800183296204
0.983226919,0,0,0,0,0,0.9937199950218201
0.984226628,0,0,0,0,0,1.6816799640655518
0.985241097,0,0,0,0,0,1.758120059967041
0.986227547,0,0,0,0,0,2.14031982421875
0.987226571,0,0,0,0,0,1.6816799640655518
0.988226243,0,0,0,0,0,1.5288000106811523
0.989244804,0,0,0,0,0,1.375920057296753
0.990294512,0,0,0,0,0,1.1466000080108643
0.991259296,0,0,0,0,0,0.8408399820327759
0.992262635,0,0,0,0,0,1.070159912109375
0.993354806,0,0,0,0,0,1.070159912109375
0.994293127,0,0,0,0,0,1.2994799613952637
0.995229319,0,0,0,0,0,1.5288000106811523
0.996224528,0,0,0,0,0,1.452359914779663
0.997235811,0,0,0,0,0,1.9109998941421509
0.99830239,0,0,0,0,0,1.223039984703064
0.999284747,0,0,0,0,0,1.2994799613952637
1.000275105,0,0,0,0,0,1.452359914779663
1.001284258,0,0,0,0,0,0.9937199950218201
1.002295152,0,0,0,0,0,1.2994799613952637
1.003347491,0,0,0,0,0,1.5288000106811523
1.004269904,0,0,0,0,0,1.1466000080108643
1.005284595,0,0,0,0,0,1.2994799613952637
1.006253156,0,0,0,0,0,1.2994799613952637
1.007260532,0,0,0,0,0,1.1466000080108643
1.008265538,0,0,0,0,0,1.070159912109375
1.009322005,0,0,0,0,0,1.070159912109375
1.010298307,0,0,0,0,0,0.7644000053405762
1.011280276,0,0,0,0,0,21.173879623413086
1.012281578,0,0,0,0,0,0
1.013279269,0,0,0,0,0,1.6816799640655518
1.014296422,0,0,0,0,0,1.605239987373352
1.015280354,0,0,0,0,0,1.452359914779663
1.016303507,0,0,0,0,0,1.5288000106811523
1.017257421,0,0,0,0,0,1.223039984703064
1.018248,0,0,0,0,0,0.9172800183296204
1.019282302,0,0,0,0,0,1.2994799613952637
1.020245789,0,0,0,0,0,1.070159912109375
1.021250535,0,0,0,0,0,1.452359914779663
1.022251504,0,0,0,0,0,1.452359914779663
1.023306527,0,0,0,0,0,1.1466000080108643
1.0242947550000001,0,0,0,0,0,1.2994799613952637
1.025319667,0,0,0,0,0,0.9937199950218201
1.026241526,0,0,0,0,0,0.9937199950218201
1.027236031,0,0,0,0,0,1.223039984703064
1.028229648,0,0,0,0,0,1.1466000080108643
1.029228876,0,0,0,0,0,1.9874399900436401
1.030227826,0,0,0,0,0,1.2994799613952637
1.031230794,0,0,0,0,0,2.2167599201202393
1.032229448,0,0,0,0,0,1.605239987373352
1.033227676,0,0,0,0,0,1.5288000106811523
1.034227996,0,0,0,0,0,1.2994799613952637
1.035232483,0,0,0,0,0,1.5288000106811523
1.036230803,0,0,0,0,0,1.8345600366592407
1.037229068,0,0,0,0,0,1.5288000106811523
1.038229351,0,0,0,0,0,1.6816799640655518
1.039230542,0,0,0,0,0,1.605239987373352
1.040228325,0,0,0,0,0,1.1466000080108643
1.041294978,0,0,0,0,0,1.452359914779663
1.042298743,0,0,0,0,0,1.223039984703064
1.043273304,0,0,0,0,0,0.9937199950218201
1.044253958,0,0,0,0,0,1.070159912109375
1.045249445,0,0,0,0,0,0.6879600286483765
1.046297154,0,0,0,0,0,1.375920057296753
1.047299344,0,0,0,0,0,1.070159912109375
1.048260795,0,0,0,0,0,1.070159912109375
1.049283078,0,0,0,0,0,1.375920057296753
1.050318768,0,0,0,0,0,1.2994799613952637
1.051297718,0,0,0,0,0,1.9874399900436401
1.052275483,0,0,0,0,0,1.375920057296753
1.053263137,0,0,0,0,0,1.8345600366592407
1.054274994,0,0,0,0,0,1.5288000106811523
1.055254963,0,0,0,0,0,1.758120059967041
1.056268561,0,0,0,0,0,1.5288000106811523
1.057272918,0,0,0,0,0,1.223039984703064
1.05826785,0,0,0,0,0,0.7644000053405762
1.059267133,0,0,0,0,0,0.6879600286483765
1.060265935,0,0,0,0,0,0.9172800183296204
1.06127581,0,0,0,0,0,1.223039984703064
1.062268612,0,0,0,0,0,1.9109998941421509
1.063281303,0,0,0,0,0,1.452359914779663
1.064277568,0,0,0,0,0,1.6816799640655518
1.0652701470000001,0,0,0,0,0,1.6816799640655518
1.066278856,0,0,0,0,0,1.5288000106811523
1.067268566,0,0,0,0,0,1.1466000080108643
1.068273701,0,0,0,0,0,1.070159912109375
1.069275762,0,0,0,0,0,0.9937199950218201
1.070255601,0,0,0,0,0,1.1466000080108643
1.071242699,0,0,0,0,0,1.1466000080108643
1.072224427,0,0,0,0,0,1.223039984703064
1.073223877,0,0,0,0,0,1.6816799640655518
1.074223494,0,0,0,0,0,0.9937199950218201
1.075226684,0,0,0,0,0,0.9937199950218201
1.076223931,0,0,0,0,0,1.070159912109375
1.077223584,0,0,0,0,0,0.4586400091648102
1.078223182,0,0,0,0,0,0.9937199950218201
1.07922454,0,0,0,0,0,1.1466000080108643
1.080223712,0,0,0,0,0,2.446079969406128
1.08122381,0,0,0,0,0,2.446079969406128
1.082223741,0,0,0,0,0,2.14031982421875
1.083224747,0,0,0,0,0,1.6816799640655518
1.084223697,0,0,0,0,0,1.452359914779663
1.085223591,0,0,0,0,0,0.8408399820327759
1.086223597,0,0,0,0,0,1.1466000080108643
1.087224102,0,0,0,0,0,1.1466000080108643
1.088233959,0,0,0,0,0,1.223039984703064
1.089224187,0,0,0,0,0,2.06387996673584
1.090223619,0,0,0,0,0,1.375920057296753
1.091226643,0,0,0,0,0,1.2994799613952637
1.092224241,0,0,0,0,0,1.375920057296753
1.093223672,0,0,0,0,0,0.9172800183296204
1.094223585,0,0,0,0,0,1.070159912109375
1.09522422,0,0,0,0,0,1.070159912109375
1.09622354,0,0,0,0,0,1.2994799613952637
1.097223787,0,0,0,0,0,1.1466000080108643
1.098223792,0,0,0,0,0,0.9937199950218201
1.099223909,0,0,0,0,0,1.1466000080108643
1.100223174,0,0,0,0,0,0.9937199950218201
1.101227901,0,0,0,0,0,0.9937199950218201
1.103115099,0,0,0,0,0,1.223039984703064
1.103282782,0,0,0,0,0,1.2994799613952637
1.104236992,0,0,0,0,0,1.6816799640655518
1.105241182,0,0,0,0,0,1.9874399900436401
1.106227929,0,0,0,0,0,0.6879600286483765
1.107228156,0,0,0,0,0,1.8345600366592407
1.108226366,0,0,0,0,0,1.2994799613952637
1.109226667,0,0,0,0,0,1.070159912109375
1.110226247,0,0,0,0,0,1.6816799640655518
1.111226567,0,0,0,0,0,1.375920057296753
1.11222574,0,0,0,0,0,2.14031982421875
1.113226375,0,0,0,0,0,21.173879623413086
1.114226251,0,0,0,0,0,1.375920057296753
1.115225812,0,0,0,0,0,1.6816799640655518
1.1162262059999999,0,0,0,0,0,0.9937199950218201
1.117226137,0,0,0,0,0,0.5350799560546875
1.118225847,0,0,0,0,0,0.6879600286483765
1.119226741,0,0,0,0,0,0.2293200045824051
1.120226246,0,0,0,0,0,1.1466000080108643
1.121226048,0,0,0,0,0,1.605239987373352
1.122226165,0,0,0,0,0,2.2932000160217285
1.123226189,0,0,0,0,0,2.2167599201202393
1.124226028,0,0,0,0,0,2.3696401119232178
1.125226348,0,0,0,0,0,1.8345600366592407
1.126226983,0,0,0,0,0,1.223039984703064
1.127227378,0,0,0,0,0,1.1466000080108643
1.128225976,0,0,0,0,0,1.1466000080108643
1.129226055,0,0,0,0,0,1.070159912109375
1.1302260610000001,0,0,0,0,0,1.2994799613952637
1.131227029,0,0,0,0,0,1.6816799640655518
1.132225998,0,0,0,0,0,0.9172800183296204
1.133225707,0,0,0,0,0,0.9937199950218201
1.134226249,0,0,0,0,0,0.152879998087883
1.135227236,0,0,0,0,0,0.6879600286483765
1.136225946,0,0,0,0,0,0.8408399820327759
1.137225377,0,0,0,0,0,1.070159912109375
1.1382261599999999,0,0,0,0,0,2.446079969406128
1.139227166,0,0,0,0,0,2.14031982421875
1.140226023,0,0,0,0,0,2.14031982421875
1.141226103,0,0,0,0,0,2.3696401119232178
1.142226127,0,0,0,0,0,1.8345600366592407
1.143227336,0,0,0,0,0,1.223039984703064
1.144226027,0,0,0,0,0,1.5288000106811523
1.145226088,0,0,0,0,0,1.5288000106811523
1.146226,0,0,0,0,0,0.7644000053405762
1.147227024,0,0,0,0,0,0.5350799560546875
1.148226011,0,0,0,0,0,1.1466000080108643
1.149225961,0,0,0,0,0,0.9937199950218201
1.150225893,0,0,0,0,0,0.4586400091648102
1.151227009,0,0,0,0,0,1.8345600366592407
1.152225959,0,0,0,0,0,1.605239987373352
1.15322602,0,0,0,0,0,2.14031982421875
1.154225878,0,0,0,0,0,2.446079969406128
1.155226772,0,0,0,0,0,2.06387996673584
1.156226148,0,0,0,0,0,1.1466000080108643
1.157226117,0,0,0,0,0,2.14031982421875
1.158225918,0,0,0,0,0,0.2293200045824051
1.159226739,0,0,0,0,0,0.305759996175766
1.160226392,0,0,0,0,0,1.5288000106811523
1.161226194,0,0,0,0,0,0.152879998087883
1.162226125,0,0,0,0,0,1.223039984703064
1.163226761,0,0,0,0,0,2.2167599201202393
1.164226655,0,0,0,0,0,0.2293200045824051
1.16522579,0,0,0,0,0,2.06387996673584
1.1663232940000001,0,0,0,0,0,1.5288000106811523
1.16730267,0,0,0,0,0,0
1.168230658,0,0,0,0,0,1.375920057296753
1.169224423,0,0,0,0,0,0.305759996175766
1.170223688,0,0,0,0,0,0.5350799560546875
1.171224379,0,0,0,0,0,1.375920057296753
1.172223662,0,0,0,0,0,0.6879600286483765
1.173223667,0,0,0,0,0,2.3696401119232178
1.174398134,0,0,0,0,0,2.522519826889038
1.175226067,0,0,0,0,0,1.9874399900436401
1.176223906,0,0,0,0,0,3.210479974746704
1.17722356,0,0,0,0,0,1.9109998941421509
1.178223528,0,0,0,0,0,1.9874399900436401
1.1792242370000001,0,0,0,0,0,1.2994799613952637
1.180223187,0,0,0,0,0,0.152879998087883
1.181223452,0,0,0,0,0,1.9874399900436401
1.182223365,0,0,0,0,0,-0.9172800183296204
1.183224074,0,0,0,0,0,0.7644000053405762
1.18422358,0,0,0,0,0,2.446079969406128
1.185223289,0,0,0,0,0,0.7644000053405762
1.186223702,0,0,0,0,0,3.516240119934082
1.187227059,0,0,0,0,0,1.605239987373352
1.188226509,0,0,0,0,0,0.9172800183296204
1.1892262,0,0,0,0,0,1.1466000080108643
1.190226187,0,0,0,0,0,-1.2994799613952637
1.191227174,0,0,0,0,0,-0.305759996175766
1.192226068,0,0,0,0,0,-1.2994799613952637
1.193226166,0,0,0,0,0,0.7644000053405762
1.194226172,0,0,0,0,0,0
1.195227251,0,0,0,0,0,1.758120059967041
1.196226386,0,0,0,0,0,2.2932000160217285
1.197225966,0,0,0,0,0,0.4586400091648102
1.198225564,0,0,0,0,0,1.070159912109375
1.1992273469999999,0,0,0,0,0,-0.305759996175766
1.200226168,0,0,0,0,0,-0.305759996175766
1.201225932,0,0,0,0,0,0
1.202225771,0,0,0,0,0,-0.152879998087883
1.203227184,0,0,0,0,0,3.134040117263794
1.204225986,0,0,0,0,0,1.375920057296753
1.205226029,0,0,0,0,0,3.0576000213623047
1.206226053,0,0,0,0,0,2.446079969406128
1.207226262,0,0,0,0,0,0.7644000053405762
1.208226452,0,0,0,0,0,1.375920057296753
1.20922618,0,0,0,0,0,-0.7644000053405762
1.210226667,0,0,0,0,0,0.3822000026702881
1.211231321,0,0,0,0,0,-0.611519992351532
1.212230697,0,0,0,0,0,0.8408399820327759
1.213233572,0,0,0,0,0,1.5288000106811523
1.214228374,0,0,0,0,0,1.452359914779663
1.215228898,0,0,0,0,0,2.3696401119232178
1.216337199,0,0,0,0,0,0.3822000026702881
1.217268446,0,0,0,0,0,0.8408399820327759
1.218233304,0,0,0,0,0,-0.3822000026702881
1.21923092,0,0,0,0,0,-0.9172800183296204
1.220226463,0,0,0,0,0,0.2293200045824051
1.221226691,0,0,0,0,0,-0.9937199950218201
1.222226437,0,0,0,0,0,1.452359914779663
1.223226757,0,0,0,0,0,1.605239987373352
1.224229485,0,0,0,0,0,2.3696401119232178
1.225228305,0,0,0,0,0,2.446079969406128
1.2262278659999999,0,0,0,0,0,0.6879600286483765
1.227230668,0,0,0,0,0,1.9874399900436401
1.2282288399999999,0,0,0,0,0,-0.611519992351532
1.22922666,0,0,0,0,0,0.5350799560546875
1.230228999,0,0,0,0,0,0.2293200045824051
1.231228208,0,0,0,0,0,0.305759996175766
1.23222814,0,0,0,0,0,2.14031982421875
1.233227016,0,0,0,0,0,1.070159912109375
1.23422691,0,0,0,0,0,2.3696401119232178
1.235228582,0,0,0,0,0,0.8408399820327759
1.236227421,0,0,0,0,0,0.9172800183296204
1.237226723,0,0,0,0,0,0
1.238228006,0,0,0,0,0,-0.9937199950218201
1.239229197,0,0,0,0,0,-0.3822000026702881
1.240227684,0,0,0,0,0,-1.605239987373352
1.24122643,0,0,0,0,0,0.4586400091648102
1.242227436,0,0,0,0,0,1.375920057296753
1.243229034,0,0,0,0,0,1.605239987373352
1.244227484,0,0,0,0,0,3.6691200733184814
1.245227082,0,0,0,0,0,1.2994799613952637
1.246227346,0,0,0,0,0,1.9874399900436401
1.247227537,0,0,0,0,0,-0.5350799560546875
1.248248598,0,0,0,0,0,0
1.249297066,0,0,0,0,0,-1.070159912109375
1.25053592,0,0,0,0,0,-0.6879600286483765
1.2512639110000001,0,0,0,0,0,2.06387996673584
1.252274897,0,0,0,0,0,1.9109998941421509
1.253268773,0,0,0,0,0,2.9811599254608154
1.25430626,0,0,0,0,0,3.134040117263794
1.255290636,0,0,0,0,0,1.9109998941421509
1.256293401,0,0,0,0,0,2.06387996673584
1.2572593699999999,0,0,0,0,0,-0.6879600286483765
1.258250801,0,0,0,0,0,-0.8408399820327759
1.259487378,0,0,0,0,0,-2.2167599201202393
1.260246831,0,0,0,0,0,0
1.261296261,0,0,0,0,0,1.070159912109375
1.262240101,0,0,0,0,0,0.611519992351532
1.263252829,0,0,0,0,0,2.751840114593506
1.264251334,0,0,0,0,0,1.2994799613952637
1.26525471,0,0,0,0,0,1.5288000106811523
1.266226068,0,0,0,0,0,0.9937199950218201
1.267226073,0,0,0,0,0,-0.9172800183296204
1.268223764,0,0,0,0,0,-0.3822000026702881
1.26922314,0,0,0,0,0,-0.9937199950218201
1.270223701,0,0,0,0,0,1.8345600366592407
1.2712294100000001,0,0,0,0,0,1.758120059967041
1.272226341,0,0,0,0,0,2.9811599254608154
1.273226106,0,0,0,0,0,2.828279972076416
1.274226741,0,0,0,0,0,1.9109998941421509
1.275226617,0,0,0,0,0,2.2167599201202393
1.276226567,0,0,0,0,0,-0.6879600286483765
1.277226498,0,0,0,0,0,0.2293200045824051
1.278226245,0,0,0,0,0,-0.5350799560546875
1.279226769,0,0,0,0,0,9.096360206604004
1.280226552,0,0,0,0,0,1.1466000080108643
1.2812261870000001,0,0,0,0,0,0.611519992351532
1.282226304,0,0,0,0,0,2.522519826889038
1.283226365,0,0,0,0,0,1.1466000080108643
1.284226278,0,0,0,0,0,1.070159912109375
1.285226228,0,0,0,0,0,1.070159912109375
1.286226381,0,0,0,0,0,-1.1466000080108643
1.287226757,0,0,0,0,0,0
1.2882263,0,0,0,0,0,-1.375920057296753
1.289226435,0,0,0,0,0,-0.305759996175766
1.2902262,0,0,0,0,0,1.6816799640655518
1.291226686,0,0,0,0,0,1.758120059967041
1.2922262660000001,0,0,0,0,0,2.751840114593506
1.2932264199999999,0,0,0,0,0,1.9109998941421509
1.294226203,0,0,0,0,0,1.9874399900436401
1.295226449,0,0,0,0,0,0.0764399990439415
1.29622614,0,0,0,0,0,0.4586400091648102
1.297226331,0,0,0,0,0,-0.152879998087883
1.298226355,0,0,0,0,0,-0.9937199950218201
1.299226212,0,0,0,0,0,1.452359914779663
1.300226217,0,0,0,0,0,0.611519992351532
1.3012264820000001,0,0,0,0,0,2.446079969406128
1.302226191,0,0,0,0,0,1.223039984703064
1.3032267339999999,0,0,0,0,0,1.2994799613952637
1.304226406,0,0,0,0,0,1.5288000106811523
1.305226078,0,0,0,0,0,0
1.3062263060000001,0,0,0,0,0,0.611519992351532
1.30722933,0,0,0,0,0,-1.070159912109375
1.3082231690000001,0,0,0,0,0,-0.2293200045824051
1.309223674,0,0,0,0,0,0.6879600286483765
1.310223643,0,0,0,0,0,0.0764399990439415
1.311224908,0,0,0,0,0,2.2167599201202393
1.312224098,0,0,0,0,0,1.5288000106811523
1.313223659,0,0,0,0,0,1.8345600366592407
1.314223702,0,0,0,0,0,0.8408399820327759
1.315225985,0,0,0,0,0,0.2293200045824051
1.316224768,0,0,0,0,0,0.5350799560546875
1.3172256070000001,0,0,0,0,0,-0.7644000053405762
1.318279334,0,0,0,0,0,1.452359914779663
1.320047996,0,0,0,0,0,1.1466000080108643
1.320222679,0,0,0,0,0,1.605239987373352
1.321226351,0,0,0,0,0,2.522519826889038
1.3222241160000001,0,0,0,0,0,0.8408399820327759
1.323224677,0,0,0,0,0,2.2932000160217285
1.324224016,0,0,0,0,0,-0.305759996175766
1.325223688,0,0,0,0,0,0.6879600286483765
1.3262234720000001,0,0,0,0,0,-0.3822000026702881
1.327224236,0,0,0,0,0,-0.305759996175766
1.328223631,0,0,0,0,0,1.8345600366592407
1.329223636,0,0,0,0,0,0.152879998087883
1.330223753,0,0,0,0,0,2.06387996673584
1.3312245360000001,0,0,0,0,0,1.758120059967041
1.332223634,0,0,0,0,0,1.223039984703064
1.333223436,0,0,0,0,0,0.9937199950218201
1.334223664,0,0,0,0,0,0
1.3352270210000001,0,0,0,0,0,0.4586400091648102
1.336226063,0,0,0,0,0,-1.223039984703064
1.337225402,0,0,0,0,0,0.9172800183296204
1.338226112,0,0,0,0,0,0.7644000053405762
1.339226969,0,0,0,0,0,1.8345600366592407
1.340225789,0,0,0,0,0,2.751840114593506
1.341225869,0,0,0,0,0,1.1466000080108643
1.3422258,0,0,0,0,0,1.5288000106811523
1.3432269350000001,0,0,0,0,0,0
1.3442257739999999,0,0,0,0,0,0
1.345225631,0,0,0,0,0,0.152879998087883
1.3462257850000001,0,0,0,0,0,-0.7644000053405762
1.347226754,0,0,0,0,0,2.6754000186920166
1.348225796,0,0,0,0,0,1.452359914779663
1.349225691,0,0,0,0,0,2.3696401119232178
1.350225881,0,0,0,0,0,2.14031982421875
1.351226794,0,0,0,0,0,0.7644000053405762
1.352244207,0,0,0,0,0,0
1.353636263,0,0,0,0,0,-0.2293200045824051
1.354229866,0,0,0,0,0,0
1.355231779,0,0,0,0,0,-0.9937199950218201
1.356226062,0,0,0,0,0,0.0764399990439415
1.3572262720000001,0,0,0,0,0,2.3696401119232178
1.358226073,0,0,0,0,0,1.8345600366592407
1.359226764,0,0,0,0,0,2.828279972076416
1.360226066,0,0,0,0,0,0.4586400091648102
1.361225905,0,0,0,0,0,1.223039984703064
1.3622260769999999,0,0,0,0,0,0
1.363226934,0,0,0,0,0,-0.305759996175766
1.364226143,0,0,0,0,0,1.070159912109375
1.3652261860000001,0,0,0,0,0,-0.611519992351532
1.366225877,0,0,0,0,0,1.8345600366592407
1.367227938,0,0,0,0,0,1.375920057296753
1.368276442,0,0,0,0,0,0.9937199950218201
1.369208801,0,0,0,0,0,1.605239987373352
1.370231102,0,0,0,0,0,0.0764399990439415
1.371226941,0,0,0,0,0,0.9937199950218201
1.3722265949999999,0,0,0,0,0,-0.152879998087883
1.373226434,0,0,0,0,0,0.5350799560546875
1.3742263829999999,0,0,0,0,0,0.5350799560546875
1.375226685,0,0,0,0,0,0.4586400091648102
1.376226487,0,0,0,0,0,2.828279972076416
1.377226104,0,0,0,0,0,0.9937199950218201
1.378226628,0,0,0,0,0,1.6816799640655518
1.379226337,0,0,0,0,0,1.605239987373352
1.380225991,0,0,0,0,0,0.2293200045824051
1.381226052,0,0,0,0,0,0
1.382226483,0,0,0,0,0,0
1.383226192,0,0,0,0,0,0.5350799560546875
1.384226457,0,0,0,0,0,-0.6879600286483765
1.385226518,0,0,0,0,0,1.375920057296753
1.386226394,0,0,0,0,0,1.6816799640655518
1.387226251,0,0,0,0,0,0.4586400091648102
1.388226479,0,0,0,0,0,2.828279972076416
1.389226244,0,0,0,0,0,-0.0764399990439415
1.390226268,0,0,0,0,0,0.8408399820327759
1.391227477,0,0,0,0,0,-9.478560447692871
1.392226316,0,0,0,0,0,0.611519992351532
1.393226414,0,0,0,0,0,0
1.3942263449999999,0,0,0,0,0,-0.4586400091648102
1.395227277,0,0,0,0,0,2.2167599201202393
1.396226245,0,0,0,0,0,0.7644000053405762
1.397226343,0,0,0,0,0,2.06387996673584
1.398226293,0,0,0,0,0,2.06387996673584
1.399227373,0,0,0,0,0,0.9937199950218201
1.400226341,0,0,0,0,0,1.1466000080108643
1.401226347,0,0,0,0,0,0.0764399990439415
1.402225926,0,0,0,0,0,0.5350799560546875
1.4032271729999999,0,0,0,0,0,-1.2994799613952637
1.404226326,0,0,0,0,0,0.9172800183296204
1.405226202,0,0,0,0,0,1.9109998941421509
1.406226411,0,0,0,0,0,0.9172800183296204
1.407227454,0,0,0,0,0,3.0576000213623047
1.40822633,0,0,0,0,0,1.5288000106811523
1.409227206,0,0,0,0,0,0.5350799560546875
1.4102269330000001,0,0,0,0,0,0.6879600286483765
1.41122755,0,0,0,0,0,-0.5350799560546875
1.412226444,0,0,0,0,0,-0.152879998087883
1.413226561,0,0,0,0,0,-1.2994799613952637
1.414226455,0,0,0,0,0,2.3696401119232178
1.415227609,0,0,0,0,0,1.758120059967041
1.416226263,0,0,0,0,0,2.2932000160217285
1.417226435,0,0,0,0,0,2.2167599201202393
1.418226533,0,0,0,0,0,1.070159912109375
1.419227427,0,0,0,0,0,0.9172800183296204
1.420226155,0,0,0,0,0,-1.1466000080108643
1.421226234,0,0,0,0,0,0
1.422226296,0,0,0,0,0,-1.070159912109375
1.423226912,0,0,0,0,0,0
1.424226232,0,0,0,0,0,2.904719829559326
1.425226534,0,0,0,0,0,1.605239987373352
1.426226503,0,0,0,0,0,3.6691200733184814
1.427227564,0,0,0,0,0,1.1466000080108643
1.428226384,0,0,0,0,0,0.6879600286483765
1.42924113,0,0,0,0,0,0.305759996175766
1.430226765,0,0,0,0,0,-1.070159912109375
1.431227493,0,0,0,0,0,-0.3822000026702881
1.43222635,0,0,0,0,0,-1.8345600366592407
1.433232411,0,0,0,0,0,0.9937199950218201
1.434226806,0,0,0,0,0,1.758120059967041
1.4352261259999999,0,0,0,0,0,1.2994799613952637
1.436226558,0,0,0,0,0,2.5989599227905273
1.437226285,0,0,0,0,0,0.6879600286483765
1.438226513,0,0,0,0,0,1.2994799613952637
1.439226759,0,0,0,0,0,-0.8408399820327759
1.44022632,0,0,0,0,0,-0.4586400091648102
1.441226122,0,0,0,0,0,-0.6879600286483765
1.442226183,0,0,0,0,0,-0.4586400091648102
1.443227078,0,0,0,0,0,2.3696401119232178
1.4442262129999999,0,0,0,0,0,1.375920057296753
1.445225996,0,0,0,0,0,2.6754000186920166
1.446226539,0,0,0,0,0,2.828279972076416
1.4472271,0,0,0,0,0,1.070159912109375
1.448226531,0,0,0,0,0,1.1466000080108643
1.449226425,0,0,0,0,0,-0.5350799560546875
1.450226357,0,0,0,0,0,0
1.451227159,0,0,0,0,0,-1.375920057296753
1.452226572,0,0,0,0,0,0.611519992351532
1.453226188,0,0,0,0,0,1.5288000106811523
1.45422636,0,0,0,0,0,0.7644000053405762
1.455227088,0,0,0,0,0,3.0576000213623047
1.456226464,0,0,0,0,0,1.9874399900436401
1.457226395,0,0,0,0,0,0.7644000053405762
1.458226327,0,0,0,0,0,-9.096360206604004
1.459227351,0,0,0,0,0,0
1.4602265970000001,0,0,0,0,0,-0.8408399820327759
1.461226288,0,0,0,0,0,-0.9172800183296204
1.4622263119999999,0,0,0,0,0,1.452359914779663
1.463226836,0,0,0,0,0,0.6879600286483765
1.464226212,0,0,0,0,0,1.9109998941421509
1.465226273,0,0,0,0,0,2.446079969406128
1.466226223,0,0,0,0,0,0.7644000053405762
1.467226765,0,0,0,0,0,2.14031982421875
1.468226326,0,0,0,0,0,0.0764399990439415
1.469226295,0,0,0,0,0,0
1.470226393,0,0,0,0,0,-0.611519992351532
1.471227083,0,0,0,0,0,0.4586400091648102
1.472226552,0,0,0,0,0,1.9874399900436401
1.473226335,0,0,0,0,0,1.223039984703064
1.474228359,0,0,0,0,0,3.0576000213623047
1.475228161,0,0,0,0,0,1.605239987373352
1.476226611,0,0,0,0,0,0.611519992351532
1.477226339,0,0,0,0,0,0.7644000053405762
1.478226307,0,0,0,0,0,-1.1466000080108643
1.479227238,0,0,0,0,0,-0.5350799560546875
1.480226244,0,0,0,0,0,-1.8345600366592407
1.481226287,0,0,0,0,0,1.5288000106811523
1.482226422,0,0,0,0,0,1.1466000080108643
1.483227223,0,0,0,0,0,2.14031982421875
1.484226673,0,0,0,0,0,3.134040117263794
1.485225864,0,0,0,0,0,1.2994799613952637
1.486226314,0,0,0,0,0,2.14031982421875
1.48722719,0,0,0,0,0,0.3822000026702881
1.488225918,0,0,0,0,0,-0.6879600286483765
1.489225905,0,0,0,0,0,-0.6879600286483765
1.490226317,0,0,0,0,0,-1.1466000080108643
1.49122723,0,0,0,0,0,1.6816799640655518
1.492226328,0,0,0,0,0,1.1466000080108643
1.493226482,0,0,0,0,0,3.2869198322296143
1.494226414,0,0,0,0,0,2.904719829559326
1.495227363,0,0,0,0,0,1.070159912109375
1.496226406,0,0,0,0,0,0.9172800183296204
1.497234874,0,0,0,0,0,-0.6879600286483765
1.498227306,0,0,0,0,0,-1.2994799613952637
1.499227034,0,0,0,0,0,-2.3696401119232178
1.5002262800000001,0,0,0,0,0,0.152879998087883
1.501226322,0,0,0,0,0,1.452359914779663
1.502226439,0,0,0,0,0,1.2994799613952637
1.503227167,0,0,0,0,0,3.134040117263794
1.50422645,0,0,0,0,0,0.305759996175766
1.5052262330000001,0,0,0,0,0,0.6879600286483765
1.506225739,0,0,0,0,0,-0.5350799560546875
1.507227374,0,0,0,0,0,7.2617998123168945
1.5082260280000002,0,0,0,0,0,-0.9937199950218201
1.509226181,0,0,0,0,0,-2.3696401119232178
1.510226094,0,0,0,0,0,0.611519992351532
1.511226414,0,0,0,0,0,1.452359914779663
1.512226142,0,0,0,0,0,0.5350799560546875
1.513226166,0,0,0,0,0,3.0576000213623047
1.514226264,0,0,0,0,0,0.4586400091648102
1.515227473,0,0,0,0,0,0.9937199950218201
1.516226423,0,0,0,0,0,0.3822000026702881
1.517226207,0,0,0,0,0,-1.5288000106811523
1.518226212,0,0,0,0,0,0.7644000053405762
1.519227329,0,0,0,0,0,-0.5350799560546875
1.520226334,0,0,0,0,0,-0.0764399990439415
1.52122608,0,0,0,0,0,2.2167599201202393
1.522226345,0,0,0,0,0,0.8408399820327759
1.52322724,0,0,0,0,0,1.375920057296753
1.524226523,0,0,0,0,0,1.8345600366592407
1.5252261950000001,0,0,0,0,0,-9.784319877624512
1.5262261449999999,0,0,0,0,0,0
1.527225891,0,0,0,0,0,-1.1466000080108643
1.528223304,0,0,0,0,0,-1.605239987373352
1.5292235870000002,0,0,0,0,0,-0.9937199950218201
1.5302235560000002,0,0,0,0,0,-0.611519992351532
1.53122721,0,0,0,0,0,0.3822000026702881
1.532226289,0,0,0,0,0,0.5350799560546875
1.533226332,0,0,0,0,0,1.605239987373352
1.534226022,0,0,0,0,0,1.1466000080108643
1.535227065,0,0,0,0,0,1.070159912109375
1.536225978,0,0,0,0,0,1.6816799640655518
1.5372261680000001,0,0,0,0,0,0
1.538226211,0,0,0,0,0,0.9172800183296204
1.5392271050000002,0,0,0,0,0,0.8408399820327759
1.540226352,0,0,0,0,0,0.0764399990439415
1.541226116,0,0,0,0,0,-0.6879600286483765
1.5422261769999999,0,0,0,0,0,0.3822000026702881
1.543227275,0,0,0,0,0,0.2293200045824051
1.5442259109999998,0,0,0,0,0,0
1.545226101,0,0,0,0,0,0.3822000026702881
1.546226403,0,0,0,0,0,0.152879998087883
1.547226927,0,0,0,0,0,-0.2293200045824051
1.548226007,0,0,0,0,0,0
1.54922616,0,0,0,0,0,-0.611519992351532
1.550226221,0,0,0,0,0,0
1.55122719,0,0,0,0,0,0.8408399820327759
1.55222601,0,0,0,0,0,0
1.5532258300000001,0,0,0,0,0,1.1466000080108643
1.554228817,0,0,0,0,0,0.3822000026702881
1.55522586,0,0,0,0,0,0
1.556223588,0,0,0,0,0,0.6879600286483765
1.557223741,0,0,0,0,0,0.2293200045824051
1.5582236360000001,0,0,0,0,0,0
1.559227141,0,0,0,0,0,0.9937199950218201
1.560226554,0,0,0,0,0,1.070159912109375
1.561235485,0,0,0,0,0,0.5350799560546875
1.562226917,0,0,0,0,0,0.6879600286483765
1.563227311,0,0,0,0,0,0.5350799560546875
1.56422615,0,0,0,0,0,0.305759996175766
1.5652262110000001,0,0,0,0,0,0.4586400091648102
1.5662268830000001,0,0,0,0,0,0.611519992351532
1.567227333,0,0,0,0,0,0.4586400091648102
1.568227357,0,0,0,0,0,0.0764399990439415
1.569226344,0,0,0,0,0,-0.2293200045824051
1.57022622,0,0,0,0,0,-1.070159912109375
1.571224707,0,0,0,0,0,-0.305759996175766
1.572223953,0,0,0,0,0,0
1.573223848,0,0,0,0,0,1.1466000080108643
1.574223594,0,0,0,0,0,0.6879600286483765
1.5752266000000001,0,0,0,0,0,1.1466000080108643
1.576226031,0,0,0,0,0,0.611519992351532
1.577225925,0,0,0,0,0,0.305759996175766
1.578225857,0,0,0,0,0,0.3822000026702881
1.579225825,0,0,0,0,0,-0.152879998087883
1.580225979,0,0,0,0,0,0.6879600286483765
1.581225818,0,0,0,0,0,0.9937199950218201
1.5822260639999999,0,0,0,0,0,0.7644000053405762
1.583226051,0,0,0,0,0,0.611519992351532
1.584225816,0,0,0,0,0,0.0764399990439415
1.585225506,0,0,0,0,0,0
1.586225642,0,0,0,0,0,-0.3822000026702881
1.5872256660000001,0,0,0,0,0,-0.611519992351532
1.5882258930000002,0,0,0,0,0,-0.9937199950218201
1.589225732,0,0,0,0,0,0.152879998087883
1.590225775,0,0,0,0,0,0.3822000026702881
1.591226984,0,0,0,0,0,0.611519992351532
1.592226026,0,0,0,0,0,1.5288000106811523
1.593225421,0,0,0,0,0,0.3822000026702881
1.5942257039999999,0,0,0,0,0,0.5350799560546875
1.595226728,0,0,0,0,0,0.0764399990439415
1.596225289,0,0,0,0,0,0
1.597226109,0,0,0,0,0,0.6879600286483765
1.598226041,0,0,0,0,0,0.7644000053405762
1.599226694,0,0,0,0,0,0.5350799560546875
1.600233496,0,0,0,0,0,1.223039984703064
1.601226298,0,0,0,0,0,0.7644000053405762
1.602226063,0,0,0,0,0,0.4586400091648102
1.603237198,0,0,0,0,0,0
1.60468516,0,0,0,0,0,0
1.606186733,0,0,0,0,0,-1.452359914779663
1.6063549350000002,0,0,0,0,0,-0.2293200045824051
1.6073095149999999,0,0,0,0,0,-0.305759996175766
1.608227022,0,0,0,0,0,-0.305759996175766
1.609226546,0,0,0,0,0,0.0764399990439415
1.610225848,0,0,0,0,0,-0.2293200045824051
1.611232909,0,0,0,0,0,0.2293200045824051
1.6122261180000002,0,0,0,0,0,0.152879998087883
1.613248956,0,0,0,0,0,0.8408399820327759
1.614226444,0,0,0,0,0,0.9937199950218201
1.615226338,0,0,0,0,0,1.1466000080108643
1.616231492,0,0,0,0,0,0.7644000053405762
1.617225997,0,0,0,0,0,0.0764399990439415
1.618231762,0,0,0,0,0,0.3822000026702881
1.6192281560000001,0,0,0,0,0,0.2293200045824051
1.62022494,0,0,0,0,0,0
1.6212248900000001,0,0,0,0,0,0.3822000026702881
1.622224839,0,0,0,0,0,1.070159912109375
1.623226049,0,0,0,0,0,0.6879600286483765
1.62422461,0,0,0,0,0,0.4586400091648102
1.625242948,0,0,0,0,0,0
1.626225454,0,0,0,0,0,-0.4586400091648102
1.6272257190000001,0,0,0,0,0,-0.305759996175766
1.628224854,0,0,0,0,0,-0.6879600286483765
1.6292244710000001,0,0,0,0,0,0.2293200045824051
1.630224883,0,0,0,0,0,0.7644000053405762
1.631225704,0,0,0,0,0,0.611519992351532
1.632224172,0,0,0,0,0,0.8408399820327759
1.633224604,0,0,0,0,0,0.9937199950218201
1.634224776,0,0,0,0,0,0.3822000026702881
1.6352256330000001,0,0,0,0,0,0.152879998087883
1.636224324,0,0,0,0,0,0.0764399990439415
1.637224681,0,0,0,0,0,0
1.638224798,0,0,0,0,0,0.6879600286483765
1.639226211,0,0,0,0,0,0.2293200045824051
1.640224587,0,0,0,0,0,0.4586400091648102
1.641224462,0,0,0,0,0,0.6879600286483765
1.64222482,0,0,0,0,0,0.3822000026702881
1.64322564,0,0,0,0,0,0.305759996175766
1.644224683,0,0,0,0,0,0
1.645224521,0,0,0,0,0,0.2293200045824051
1.646224545,0,0,0,0,0,0.2293200045824051
1.647224477,0,0,0,0,0,0.611519992351532
1.648224686,0,0,0,0,0,0.2293200045824051
1.6492245620000001,0,0,0,0,0,0.611519992351532
1.6502245119999999,0,0,0,0,0,0.152879998087883
1.651225832,0,0,0,0,0,0.2293200045824051
1.652224782,0,0,0,0,0,0.4586400091648102
1.653224399,0,0,0,0,0,0
1.654225201,0,0,0,0,0,0.611519992351532
1.6552257799999999,0,0,0,0,0,0.152879998087883
1.65622473,0,0,0,0,0,0
1.6572243279999999,0,0,0,0,0,0.6879600286483765
1.65822413,0,0,0,0,0,0.611519992351532
1.659225895,0,0,0,0,0,0.152879998087883
1.660224771,0,0,0,0,0,1.1466000080108643
1.6612245350000001,0,0,0,0,0,0.2293200045824051
1.662224578,0,0,0,0,0,0.611519992351532
1.663225657,0,0,0,0,0,0.8408399820327759
1.664224496,0,0,0,0,0,0.7644000053405762
1.665224631,0,0,0,0,0,0.9172800183296204
1.666224489,0,0,0,0,0,0.6879600286483765
1.667225661,0,0,0,0,0,0.5350799560546875
1.668224703,0,0,0,0,0,0.0764399990439415
1.66922469,0,0,0,0,0,0
1.670224548,0,0,0,0,0,0.305759996175766
1.67122522,0,0,0,0,0,0.611519992351532
1.672235299,0,0,0,0,0,0.5350799560546875
1.6732258789999999,0,0,0,0,0,0.3822000026702881
1.674225162,0,0,0,0,0,0.8408399820327759
1.675226409,0,0,0,0,0,0
1.6762248400000002,0,0,0,0,0,0
1.677237568,0,0,0,0,0,0.0764399990439415
1.678225573,0,0,0,0,0,-0.4586400091648102
1.679226264,0,0,0,0,0,0.4586400091648102
1.680225177,0,0,0,0,0,0
1.681224905,0,0,0,0,0,0.4586400091648102
1.682224799,0,0,0,0,0,0.3822000026702881
1.683225934,0,0,0,0,0,0.152879998087883
1.6842249950000001,0,0,0,0,0,0.3822000026702881
1.68522463,0,0,0,0,0,0
1.686224784,0,0,0,0,0,0.3822000026702881
1.687225863,0,0,0,0,0,0.611519992351532
1.6882249059999999,0,0,0,0,0,0.305759996175766
1.689235874,0,0,0,0,0,0.611519992351532
1.690225287,0,0,0,0,0,0.3822000026702881
1.691225793,0,0,0,0,0,0
1.692224854,0,0,0,0,0,0.4586400091648102
1.693224711,0,0,0,0,0,-0.2293200045824051
1.694225087,0,0,0,0,0,0.0764399990439415
1.695225981,0,0,0,0,0,0.152879998087883
1.696224857,0,0,0,0,0,0.3822000026702881
1.697224289,0,0,0,0,0,0.3822000026702881
1.6982249980000002,0,0,0,0,0,0.6879600286483765
1.699225707,0,0,0,0,0,0.5350799560546875
1.700224731,0,0,0,0,0,0.7644000053405762
1.7012242,0,0,0,0,0,0.5350799560546875
1.702224779,0,0,0,0,0,0.8408399820327759
1.703225544,0,0,0,0,0,0.305759996175766
1.7042248089999998,0,0,0,0,0,0.2293200045824051
1.705224796,0,0,0,0,0,0
1.70622482,0,0,0,0,0,0
1.707232529,0,0,0,0,0,0
1.70822572,0,0,0,0,0,-0.3822000026702881
1.709225021,0,0,0,0,0,0.305759996175766
1.710224916,0,0,0,0,0,0.2293200045824051
1.7112258470000001,0,0,0,0,0,0.7644000053405762
1.712224964,0,0,0,0,0,0.7644000053405762
1.7132246549999999,0,0,0,0,0,0.611519992351532
1.714224845,0,0,0,0,0,0.9172800183296204
1.7152257579999999,0,0,0,0,0,-0.2293200045824051
1.7162250970000001,0,0,0,0,0,0
1.717224677,0,0,0,0,0,0.0764399990439415
1.718224941,0,0,0,0,0,0
1.719225336,0,0,0,0,0,0.9937199950218201
1.7202248039999999,0,0,0,0,0,1.1466000080108643
1.72122455,0,0,0,0,0,0.9172800183296204
1.7222244629999999,0,0,0,0,0,0.9172800183296204
1.723225784,0,0,0,0,0,0
1.724224808,0,0,0,0,0,-0.3822000026702881
1.725224795,0,0,0,0,0,-0.305759996175766
1.726224652,0,0,0,0,0,-0.611519992351532
1.727225898,0,0,0,0,0,0.0764399990439415
1.728224811,0,0,0,0,0,1.223039984703064
1.72922465,0,0,0,0,0,0.9937199950218201
1.730224859,0,0,0,0,0,1.1466000080108643
1.731225735,0,0,0,0,0,0.3822000026702881
1.732224611,0,0,0,0,0,0
1.733224727,0,0,0,0,0,-0.152879998087883
1.7342248630000001,0,0,0,0,0,0
1.735225572,0,0,0,0,0,0.152879998087883
1.7362247069999999,0,0,0,0,0,0.305759996175766
1.7372245830000002,0,0,0,0,0,0.5350799560546875
1.7382247180000001,0,0,0,0,0,0.4586400091648102
1.739226964,0,0,0,0,0,0.2293200045824051
1.740224321,0,0,0,0,0,0
1.741224623,0,0,0,0,0,0.5350799560546875
1.7422247400000002,0,0,0,0,0,0.611519992351532
1.743225597,0,0,0,0,0,0.2293200045824051
1.744224418,0,0,0,0,0,0.7644000053405762
1.745224849,0,0,0,0,0,0.7644000053405762
1.7462247990000002,0,0,0,0,0,0.2293200045824051
1.747225656,0,0,0,0,0,0.7644000053405762
1.748224699,0,0,0,0,0,0.2293200045824051
1.749224871,0,0,0,0,0,0
1.7502245250000001,0,0,0,0,0,0.5350799560546875
1.751225641,0,0,0,0,0,0
1.752224776,0,0,0,0,0,0.6879600286483765
1.753231856,0,0,0,0,0,0.152879998087883
1.75422525,0,0,0,0,0,-0.3822000026702881
1.755225608,0,0,0,0,0,-0.152879998087883
1.756224965,0,0,0,0,0,-0.3822000026702881
1.757224785,0,0,0,0,0,0
1.7582249760000002,0,0,0,0,0,0
1.759225722,0,0,0,0,0,0.152879998087883
1.760224802,0,0,0,0,0,0.6879600286483765
1.7612251780000001,0,0,0,0,0,1.375920057296753
1.762224128,0,0,0,0,0,1.223039984703064
1.763225763,0,0,0,0,0,1.758120059967041
1.764224676,0,0,0,0,0,0.9937199950218201
1.765224237,0,0,0,0,0,0.9172800183296204
1.766224427,0,0,0,0,0,0.0764399990439415
1.767228137,0,0,0,0,0,-0.4586400091648102
1.76822542,0,0,0,0,0,0
1.769225611,0,0,0,0,0,-0.152879998087883
1.770225486,0,0,0,0,0,-0.4586400091648102
1.77123864,0,0,0,0,0,-0.152879998087883
1.772223294,0,0,0,0,0,-0.305759996175766
1.773222521,0,0,0,0,0,-0.3822000026702881
1.77427023,0,0,0,0,0,0.152879998087883
1.775224014,0,0,0,0,0,0
1.776222982,0,0,0,0,0,0.5350799560546875
1.777222673,0,0,0,0,0,0.8408399820327759
1.778222493,0,0,0,0,0,1.070159912109375
1.779226295,0,0,0,0,0,1.8345600366592407
1.780225375,0,0,0,0,0,1.2994799613952637
1.781225251,0,0,0,0,0,0.7644000053405762
1.782225349,0,0,0,0,0,0.305759996175766
1.783223836,0,0,0,0,0,9.631440162658691
1.784222415,0,0,0,0,0,-0.2293200045824051
1.785222273,0,0,0,0,0,-0.305759996175766
1.786222389,0,0,0,0,0,-0.2293200045824051
1.7872255240000001,0,0,0,0,0,0.305759996175766
1.788225196,0,0,0,0,0,0.0764399990439415
1.789224739,0,0,0,0,0,-0.611519992351532
1.790224948,0,0,0,0,0,0.9172800183296204
1.791224824,0,0,0,0,0,0
1.792224756,0,0,0,0,0,0.305759996175766
1.793224835,0,0,0,0,0,0.9937199950218201
1.794224692,0,0,0,0,0,1.1466000080108643
1.795225994,0,0,0,0,0,0.7644000053405762
1.7962248889999999,0,0,0,0,0,0.611519992351532
1.797224839,0,0,0,0,0,0.9937199950218201
1.7982246960000001,0,0,0,0,0,0
1.799225498,0,0,0,0,0,-0.152879998087883
1.8002247439999999,0,0,0,0,0,0.6879600286483765
1.801224694,0,0,0,0,0,0
1.802224699,0,0,0,0,0,-0.6879600286483765
1.803225853,0,0,0,0,0,0.611519992351532
1.804224914,0,0,0,0,0,0.5350799560546875
1.805224401,0,0,0,0,0,0
1.8062246100000001,0,0,0,0,0,1.2994799613952637
1.807232356,0,0,0,0,0,-0.5350799560546875
1.808225288,0,0,0,0,0,-0.611519992351532
1.8092243300000002,0,0,0,0,0,0.9172800183296204
1.810225003,0,0,0,0,0,8.790599822998047
1.8117549830000002,0,0,0,0,0,-0.152879998087883
1.812238921,0,0,0,0,0,1.9109998941421509
1.813226741,0,0,0,0,0,-0.5350799560546875
1.8142265800000001,0,0,0,0,0,0.7644000053405762
1.815229178,0,0,0,0,0,2.06387996673584
1.816225832,0,0,0,0,0,0
1.817242652,0,0,0,0,0,1.452359914779663
1.818226787,0,0,0,0,0,-0.152879998087883
1.819227089,0,0,0,0,0,-0.7644000053405762
1.8202261320000002,0,0,0,0,0,-0.152879998087883
1.821226008,0,0,0,0,0,-1.2994799613952637
1.822225846,0,0,0,0,0,-0.3822000026702881
1.823226815,0,0,0,0,0,0.305759996175766
1.824226061,0,0,0,0,0,-0.305759996175766
1.8252261779999999,0,0,0,0,0,1.375920057296753
1.826225905,0,0,0,0,0,0.6879600286483765
1.827226892,0,0,0,0,0,1.8345600366592407
1.828226065,0,0,0,0,0,0.5350799560546875
1.8292258110000001,0,0,0,0,0,0
1.8302255010000001,0,0,0,0,0,1.1466000080108643
1.831226951,0,0,0,0,0,-1.8345600366592407
1.832225938,0,0,0,0,0,1.1466000080108643
1.833225611,0,0,0,0,0,0.305759996175766
1.834225357,0,0,0,0,0,-0.4586400091648102
1.835226955,0,0,0,0,0,2.751840114593506
1.836225886,0,0,0,0,0,0.9937199950218201
1.8372258179999998,0,0,0,0,0,2.2932000160217285
1.8382258230000001,0,0,0,0,0,1.9109998941421509
1.839226847,0,0,0,0,0,0
1.840225834,0,0,0,0,0,0.305759996175766
1.841225766,0,0,0,0,0,-0.9937199950218201
1.842225827,0,0,0,0,0,0.6879600286483765
1.843226795,0,0,0,0,0,-0.152879998087883
1.8442260780000002,0,0,0,0,0,1.452359914779663
1.845225954,0,0,0,0,0,2.751840114593506
1.84622596,0,0,0,0,0,1.605239987373352
1.847226836,0,0,0,0,0,3.2869198322296143
1.848225915,0,0,0,0,0,1.070159912109375
1.849225717,0,0,0,0,0,0.2293200045824051
1.850225945,0,0,0,0,0,-0.2293200045824051
1.851226654,0,0,0,0,0,-0.611519992351532
1.852225678,0,0,0,0,0,0
1.853225924,0,0,0,0,0,0.2293200045824051
1.854238707,0,0,0,0,0,2.2167599201202393
1.856081165,0,0,0,0,0,2.2167599201202393
1.8562463660000001,0,0,0,0,0,2.446079969406128
1.857230983,0,0,0,0,0,2.3696401119232178
1.858226637,0,0,0,0,0,0
1.859230624,0,0,0,0,0,0.5350799560546875
1.860225963,0,0,0,0,0,-1.2994799613952637
1.861225876,0,0,0,0,0,0
1.8622258440000001,0,0,0,0,0,0
1.863227238,0,0,0,0,0,1.452359914779663
1.8642260400000001,0,0,0,0,0,2.5989599227905273
1.8652257859999999,0,0,0,0,0,1.6816799640655518
1.866225996,0,0,0,0,0,3.0576000213623047
1.8673102959999999,0,0,0,0,0,0.5350799560546875
1.868322987,0,0,0,0,0,0.152879998087883
1.8693120300000001,0,0,0,0,0,0
1.870274591,0,0,0,0,0,-1.375920057296753
1.8712763369999998,0,0,0,0,0,0.4586400091648102
1.872232954,0,0,0,0,0,0.152879998087883
1.873225108,0,0,0,0,0,2.2932000160217285
1.8742240209999999,0,0,0,0,0,1.6816799640655518
1.87522499,0,0,0,0,0,2.3696401119232178
1.876223847,0,0,0,0,0,2.6754000186920166
1.87722363,0,0,0,0,0,0.3822000026702881
1.8782237099999999,0,0,0,0,0,0.2293200045824051
1.879224789,0,0,0,0,0,-1.223039984703064
1.880223443,0,0,0,0,0,-0.305759996175766
1.8812420410000001,0,0,0,0,0,0.3822000026702881
1.882224287,0,0,0,0,0,-0.152879998087883
1.883228219,0,0,0,0,0,2.5989599227905273
1.8842267430000001,0,0,0,0,0,1.8345600366592407
1.885226582,0,0,0,0,0,3.516240119934082
1.886226291,0,0,0,0,0,1.9109998941421509
1.887227722,0,0,0,0,0,0.2293200045824051
1.888226561,0,0,0,0,0,0.5350799560546875
1.889226196,0,0,0,0,0,-1.070159912109375
1.8902264610000001,0,0,0,0,0,0
1.891227485,0,0,0,0,0,-0.9172800183296204
1.8922263240000001,0,0,0,0,0,1.070159912109375
1.893226126,0,0,0,0,0,2.2167599201202393
1.894226501,0,0,0,0,0,1.452359914779663
1.895227174,0,0,0,0,0,2.9811599254608154
1.896226494,0,0,0,0,0,0.8408399820327759
1.897226296,0,0,0,0,0,0.7644000053405762
1.898226357,0,0,0,0,0,-0.6879600286483765
1.899227399,0,0,0,0,0,-0.3822000026702881
1.900226683,0,0,0,0,0,-0.5350799560546875
1.901226355,0,0,0,0,0,-0.3822000026702881
1.9022264899999999,0,0,0,0,0,1.9874399900436401
1.903227329,0,0,0,0,0,1.2994799613952637
1.90422639,0,0,0,0,0,2.6754000186920166
1.905226321,0,0,0,0,0,2.904719829559326
1.906226253,0,0,0,0,0,0.611519992351532
1.907227351,0,0,0,0,0,1.1466000080108643
1.9082261520000001,0,0,0,0,0,-0.9172800183296204
1.9092266759999998,0,0,0,0,0,0
1.910226163,0,0,0,0,0,-0.9172800183296204
1.911226891,0,0,0,0,0,0.3822000026702881
1.912226434,0,0,0,0,0,1.8345600366592407
1.913226291,0,0,0,0,0,1.223039984703064
1.9142257219999999,0,0,0,0,0,3.3633599281311035
1.915227432,0,0,0,0,0,2.2167599201202393
1.916226419,0,0,0,0,0,0.4586400091648102
1.917226387,0,0,0,0,0,0.5350799560546875
1.918226448,0,0,0,0,0,-0.9937199950218201
1.919227157,0,0,0,0,0,0
1.920226422,0,0,0,0,0,-0.7644000053405762
1.921226391,0,0,0,0,0,1.1466000080108643
1.922226174,0,0,0,0,0,1.223039984703064
1.9232272529999999,0,0,0,0,0,2.2932000160217285
1.9242264260000002,0,0,0,0,0,3.2869198322296143
1.9252264129999999,0,0,0,0,0,0.9937199950218201
1.926226437,0,0,0,0,0,1.375920057296753
1.927227368,0,0,0,0,0,-0.305759996175766
1.9282265029999999,0,0,0,0,0,-0.152879998087883
1.92922636,0,0,0,0,0,-0.305759996175766
1.930226329,0,0,0,0,0,0.305759996175766
1.931227297,0,0,0,0,0,2.5989599227905273
1.932226044,0,0,0,0,0,1.375920057296753
1.933226179,0,0,0,0,0,3.2869198322296143
1.9342263320000002,0,0,0,0,0,2.6754000186920166
1.93522756,0,0,0,0,0,0.9172800183296204
1.936225825,0,0,0,0,0,0.8408399820327759
1.937226201,0,0,0,0,0,-0.8408399820327759
1.93822641,0,0,0,0,0,-0.305759996175766
1.939226693,0,0,0,0,0,-1.223039984703064
1.940226106,0,0,0,0,0,0
1.941226315,0,0,0,0,0,0.9937199950218201
1.942226395,0,0,0,0,0,1.2994799613952637
1.943226289,0,0,0,0,0,2.6754000186920166
1.944223869,0,0,0,0,0,0.5350799560546875
1.945244707,0,0,0,0,0,1.1466000080108643
1.946243213,0,0,0,0,0,0.2293200045824051
1.947227996,0,0,0,0,0,-0.6879600286483765
1.948228854,0,0,0,0,0,0.305759996175766
1.9492269150000001,0,0,0,0,0,-0.2293200045824051
1.9502264569999999,0,0,0,0,0,1.8345600366592407
1.95122637,0,0,0,0,0,1.375920057296753
1.95222608,0,0,0,0,0,2.5989599227905273
1.9532259920000001,0,0,0,0,0,3.3633599281311035
1.954225461,0,0,0,0,0,-0.305759996175766
1.955226503,0,0,0,0,0,1.223039984703064
1.956226027,0,0,0,0,0,-0.5350799560546875
1.957225459,0,0,0,0,0,0.2293200045824051
1.958225557,0,0,0,0,0,-0.5350799560546875
1.959226211,0,0,0,0,0,0.4586400091648102
1.960225827,0,0,0,0,0,1.8345600366592407
1.961225999,0,0,0,0,0,0.6879600286483765
1.962226209,0,0,0,0,0,2.522519826889038
1.963226696,0,0,0,0,0,0.4586400091648102
1.964225757,0,0,0,0,0,0.9172800183296204
1.9652256700000001,0,0,0,0,0,0.152879998087883
1.96644708,0,0,0,0,0,-0.8408399820327759
1.967226014,0,0,0,0,0,0.3822000026702881
1.9682239080000001,0,0,0,0,0,-0.2293200045824051
1.969234562,0,0,0,0,0,1.375920057296753
1.970225734,0,0,0,0,0,1.070159912109375
1.971224591,0,0,0,0,0,1.6816799640655518
1.972223727,0,0,0,0,0,3.0576000213623047
1.973223399,0,0,0,0,0,0.2293200045824051
1.974223571,0,0,0,0,0,0.9172800183296204
1.97522465,0,0,0,0,0,0
1.9762237489999999,0,0,0,0,0,0.5350799560546875
1.9772234210000001,0,0,0,0,0,0.611519992351532
1.978223445,0,0,0,0,0,0.4586400091648102
1.979225654,0,0,0,0,0,2.446079969406128
1.98022977,0,0,0,0,0,1.1466000080108643
1.9812236090000002,0,0,0,0,0,2.522519826889038
1.982223819,0,0,0,0,0,1.758120059967041
1.983225806,0,0,0,0,0,0
1.984224311,0,0,0,0,0,1.1466000080108643
1.9852233350000001,0,0,0,0,0,-0.611519992351532
1.986223822,0,0,0,0,0,0.3822000026702881
1.98722755,0,0,0,0,0,-0.5350799560546875
1.988226759,0,0,0,0,0,1.1466000080108643
1.989226301,0,0,0,0,0,0.9172800183296204
1.9902267139999998,0,0,0,0,0,0.4586400091648102
1.991226516,0,0,0,0,0,3.2869198322296143
1.992226133,0,0,0,0,0,0.2293200045824051
1.993225953,0,0,0,0,0,0.611519992351532
1.994225996,0,0,0,0,0,0.611519992351532
1.995226816,0,0,0,0,0,-0.8408399820327759
1.9962262100000001,0,0,0,0,0,0.5350799560546875
1.9972255859999999,0,0,0,0,0,0
1.99822574,0,0,0,0,0,2.446079969406128
1.9992269120000001,0,0,0,0,0,1.5288000106811523
2.000225732,0,0,0,0,0,2.9811599254608154
2.00122546,0,0,0,0,0,1.9874399900436401
2.002225891,0,0,0,0,0,-0.305759996175766
2.003226823,0,0,0,0,0,0.8408399820327759
2.004225939,0,0,0,0,0,-0.9937199950218201
2.005225945,0,0,0,0,0,-0.2293200045824051
2.006225765,0,0,0,0,0,0
2.007226752,0,0,0,0,0,0.8408399820327759
2.008225999,0,0,0,0,0,1.5288000106811523
2.009240837,0,0,0,0,0,0.9172800183296204
2.010226472,0,0,0,0,0,2.9811599254608154
2.011227071,0,0,0,0,0,0
2.012225909,0,0,0,0,0,0.152879998087883
2.01322597,0,0,0,0,0,0.152879998087883
2.014225791,0,0,0,0,0,-0.9172800183296204
2.015226981,0,0,0,0,0,1.1466000080108643
2.016225783,0,0,0,0,0,0.2293200045824051
2.017225881,0,0,0,0,0,1.8345600366592407
2.018225776,0,0,0,0,0,1.452359914779663
2.019226966,0,0,0,0,0,1.8345600366592407
2.020225879,0,0,0,0,0,1.8345600366592407
2.021226959,0,0,0,0,0,0
2.022225316,0,0,0,0,0,0.8408399820327759
2.023226711,0,0,0,0,0,-0.3822000026702881
2.024225846,0,0,0,0,0,0.152879998087883
2.025225962,0,0,0,0,0,0.3822000026702881
2.026225875,0,0,0,0,0,0.9172800183296204
2.027226899,0,0,0,0,0,2.446079969406128
2.028225886,0,0,0,0,0,1.2994799613952637
2.029226132,0,0,0,0,0,2.5989599227905273
2.030225953,0,0,0,0,0,0.305759996175766
2.031226866,0,0,0,0,0,-0.7644000053405762
2.032226075,0,0,0,0,0,0.0764399990439415
2.033226025,0,0,0,0,0,-1.070159912109375
2.034225864,0,0,0,0,0,0.611519992351532
2.035226832,0,0,0,0,0,0.2293200045824051
2.036225819,0,0,0,0,0,1.5288000106811523
2.03722588,0,0,0,0,0,1.605239987373352
2.038225756,0,0,0,0,0,0.7644000053405762
2.039226447,0,0,0,0,0,2.2167599201202393
2.040225156,0,0,0,0,0,0.7644000053405762
2.041225254,0,0,0,0,0,0
2.042225389,0,0,0,0,0,-0.3822000026702881
2.043236746,0,0,0,0,0,0
2.04422703,0,0,0,0,0,0.7644000053405762
2.045226406,0,0,0,0,0,0.9172800183296204
2.046225726,0,0,0,0,0,2.446079969406128
2.047227454,0,0,0,0,0,1.6816799640655518
2.048225774,0,0,0,0,0,2.446079969406128
2.049350907,0,0,0,0,0,2.06387996673584
2.050230378,0,0,0,0,0,-0.611519992351532
2.051227513,0,0,0,0,0,1.375920057296753
2.052226018,0,0,0,0,0,-1.2994799613952637
2.053225894,0,0,0,0,0,0.3822000026702881
2.054226048,0,0,0,0,0,0
2.055227016,0,0,0,0,0,1.223039984703064
2.056225985,0,0,0,0,0,2.2932000160217285
2.057227675,0,0,0,0,0,1.223039984703064
2.058225736,0,0,0,0,0,2.5989599227905273
2.05922639,0,0,0,0,0,0.5350799560546875
2.060226766,0,0,0,0,0,-0.5350799560546875
2.061225179,0,0,0,0,0,-0.152879998087883
2.062225777,0,0,0,0,0,-1.1466000080108643
2.063232356,0,0,0,0,0,0.9937199950218201
2.06422688,0,0,0,0,0,0.3822000026702881
2.065261867,0,0,0,0,0,2.6754000186920166
2.066251891,0,0,0,0,0,2.06387996673584
2.067231915,0,0,0,0,0,2.5989599227905273
2.068226254,0,0,0,0,0,2.522519826889038
2.069226038,0,0,0,0,0,0
2.07022571,0,0,0,0,0,1.070159912109375
2.071316251,0,0,0,0,0,-1.375920057296753
2.07234259,0,0,0,0,0,-0.6879600286483765
2.073260392,0,0,0,0,0,0.152879998087883
2.07427849,0,0,0,0,0,0.5350799560546875
2.075259848,0,0,0,0,0,2.522519826889038
2.076256039,0,0,0,0,0,1.452359914779663
2.077371432,0,0,0,0,0,3.210479974746704
2.078249216,0,0,0,0,0,1.5288000106811523
2.079265611,0,0,0,0,0,-0.305759996175766
2.080490169,0,0,0,0,0,-0.7644000053405762
2.081276455,0,0,0,0,0,-1.452359914779663
2.082254831,0,0,0,0,0,-0.152879998087883
2.083333817,0,0,0,0,0,-0.305759996175766
2.0842829529999998,0,0,0,0,0,1.223039984703064
2.085341309,0,0,0,0,0,2.2167599201202393
2.086306315,0,0,0,0,0,2.904719829559326
2.087264525,0,0,0,0,0,3.134040117263794
2.088262438,0,0,0,0,0,0
2.089401534,0,0,0,0,0,0.9172800183296204
2.090285541,0,0,0,0,0,-1.070159912109375
2.091255936,0,0,0,0,0,-1.070159912109375
2.092225442,0,0,0,0,0,0.611519992351532
2.093223521,0,0,0,0,0,0
2.094223694,0,0,0,0,0,3.0576000213623047
2.095225847,0,0,0,0,0,1.605239987373352
2.096223871,0,0,0,0,0,2.2932000160217285
2.097223654,0,0,0,0,0,2.6754000186920166
2.098224012,0,0,0,0,0,-0.305759996175766
2.099224277,0,0,0,0,0,0.2293200045824051
2.100224004,0,0,0,0,0,-1.2994799613952637
2.101224306,0,0,0,0,0,0
2.102223182,0,0,0,0,0,0
2.103227558,0,0,0,0,0,0.7644000053405762
2.104223767,0,0,0,0,0,2.2932000160217285
2.105256754,0,0,0,0,0,2.06387996673584
2.106253148,0,0,0,0,0,2.751840114593506
2.107231913,0,0,0,0,0,1.070159912109375
2.108223067,0,0,0,0,0,-0.152879998087883
2.109223554,0,0,0,0,0,-0.6879600286483765
2.110224133,0,0,0,0,0,-0.7644000053405762
2.111245398,0,0,0,0,0,1.2994799613952637
2.112225385,0,0,0,0,0,-0.152879998087883
2.113223817,0,0,0,0,0,2.14031982421875
2.114223489,0,0,0,0,0,1.8345600366592407
2.11522779,0,0,0,0,0,1.758120059967041
2.116223481,0,0,0,0,0,2.522519826889038
2.117223709,0,0,0,0,0,0
2.11822414,0,0,0,0,0,0.8408399820327759
2.119223775,0,0,0,0,0,-0.611519992351532
2.120223799,0,0,0,0,0,0.4586400091648102
2.121223398,0,0,0,0,0,0.7644000053405762
2.122231829,0,0,0,0,0,0.2293200045824051
2.123230927,0,0,0,0,0,1.8345600366592407
2.12424808,0,0,0,0,0,1.1466000080108643
2.125224882,0,0,0,0,0,2.3696401119232178
2.126224036,0,0,0,0,0,1.2994799613952637
2.127225486,0,0,0,0,0,0.2293200045824051
2.128224121,0,0,0,0,0,0.8408399820327759
2.129224534,0,0,0,0,0,-0.7644000053405762
2.130222929,0,0,0,0,0,0.5350799560546875
2.131229397,0,0,0,0,0,-0.305759996175766
2.13222681,0,0,0,0,0,1.9109998941421509
2.133226852,0,0,0,0,0,1.6816799640655518
2.134226654,0,0,0,0,0,1.2994799613952637
2.135227549,0,0,0,0,0,2.828279972076416
2.136226647,0,0,0,0,0,0.611519992351532
2.137226874,0,0,0,0,0,0.9937199950218201
2.138226343,0,0,0,0,0,0.152879998087883
2.139227756,0,0,0,0,0,-0.9172800183296204
2.140226372,0,0,0,0,0,0.305759996175766
2.1412265440000002,0,0,0,0,0,-0.152879998087883
2.142226957,0,0,0,0,0,1.223039984703064
2.143227241,0,0,0,0,0,1.5288000106811523
2.144226542,0,0,0,0,0,2.446079969406128
2.145225974,0,0,0,0,0,2.2932000160217285
2.14622659,0,0,0,0,0,0.4586400091648102
2.147226985,0,0,0,0,0,-37.68491744995117
2.148226416,0,0,0,0,0,-0.03821999952197075
2.149225829,0,0,0,0,0,0.0764399990439415
2.150226483,0,0,0,0,0,0.3822000026702881
2.151227118,0,0,0,0,0,0.7644000053405762
2.152226309,0,0,0,0,0,2.751840114593506
2.153226259,0,0,0,0,0,2.6754000186920166
2.154372836,0,0,0,0,0,4.20419979095459
2.15522951,0,0,0,0,0,2.3696401119232178
2.156226627,0,0,0,0,0,1.070159912109375
2.157226318,0,0,0,0,0,1.2994799613952637
2.158226249,0,0,0,0,0,-0.7644000053405762
2.159227403,0,0,0,0,0,0.6879600286483765
2.160226149,0,0,0,0,0,0.152879998087883
2.161226229,0,0,0,0,0,0.3822000026702881
2.162225938,0,0,0,0,0,2.6754000186920166
2.163227758,0,0,0,0,0,1.223039984703064
2.164225875,0,0,0,0,0,2.14031982421875
2.165226195,0,0,0,0,0,1.452359914779663
2.166230089,0,0,0,0,0,0
2.167232428,0,0,0,0,0,1.758120059967041
2.168226915,0,0,0,0,0,-0.2293200045824051
2.16922731,0,0,0,0,0,0.305759996175766
2.170225685,0,0,0,0,0,1.9874399900436401
2.171226635,0,0,0,0,0,0.4586400091648102
2.172225937,0,0,0,0,0,2.446079969406128
2.173225554,0,0,0,0,0,2.522519826889038
2.174226004,0,0,0,0,0,1.758120059967041
2.175226417,0,0,0,0,0,2.446079969406128
2.176225996,0,0,0,0,0,1.758120059967041
2.177226354,0,0,0,0,0,1.070159912109375
2.178225803,0,0,0,0,0,1.2994799613952637
2.17922629,0,0,0,0,0,0.4586400091648102
2.180225963,0,0,0,0,0,0.0764399990439415
2.181226005,0,0,0,0,0,0.6879600286483765
2.182226085,0,0,0,0,0,0.9937199950218201
2.183225924,0,0,0,0,0,0.4586400091648102
2.184226059,0,0,0,0,0,1.223039984703064
2.185226027,0,0,0,0,0,2.2167599201202393
2.18622594,0,0,0,0,0,1.452359914779663
2.187226353,0,0,0,0,0,2.2167599201202393
2.188226044,0,0,0,0,0,2.3696401119232178
2.189225771,0,0,0,0,0,1.070159912109375
2.190226018,0,0,0,0,0,1.6816799640655518
2.191227505,0,0,0,0,0,1.9874399900436401
2.192226214,0,0,0,0,0,0.6879600286483765
2.19322583,0,0,0,0,0,1.2994799613952637
2.194226021,0,0,0,0,0,1.9109998941421509
2.195226545,0,0,0,0,0,0.611519992351532
2.196225958,0,0,0,0,0,0.9172800183296204
2.197226149,0,0,0,0,0,1.9874399900436401
2.198226025,0,0,0,0,0,0.5350799560546875
2.199226919,0,0,0,0,0,0.9937199950218201
2.200226128,0,0,0,0,0,1.9109998941421509
2.201225911,0,0,0,0,0,0.7644000053405762
2.202226009,0,0,0,0,0,1.1466000080108643
2.203227089,0,0,0,0,0,1.605239987373352
2.204226076,0,0,0,0,0,1.375920057296753
2.205226063,0,0,0,0,0,1.375920057296753
2.20622592,0,0,0,0,0,1.9109998941421509
2.207227167,0,0,0,0,0,1.605239987373352
2.208225839,0,0,0,0,0,1.758120059967041
2.209226048,0,0,0,0,0,1.223039984703064
2.210225794,0,0,0,0,0,0.6879600286483765
2.211227114,0,0,0,0,0,1.1466000080108643
2.212225879,0,0,0,0,0,0.9172800183296204
2.213225681,0,0,0,0,0,0.5350799560546875
2.214226057,0,0,0,0,0,1.2994799613952637
2.21522697,0,0,0,0,0,1.2994799613952637
2.216225512,0,0,0,0,0,1.9109998941421509
2.21722561,0,0,0,0,0,1.1466000080108643
2.218225931,0,0,0,0,0,1.375920057296753
2.219226862,0,0,0,0,0,2.2167599201202393
2.220226164,0,0,0,0,0,1.758120059967041
2.221226095,0,0,0,0,0,1.6816799640655518
2.222226027,0,0,0,0,0,1.452359914779663
2.223227014,0,0,0,0,0,1.605239987373352
2.224226019,0,0,0,0,0,1.1466000080108643
2.225225895,0,0,0,0,0,0.2293200045824051
2.226226104,0,0,0,0,0,0.6879600286483765
2.227226851,0,0,0,0,0,0.611519992351532
2.228226004,0,0,0,0,0,1.2994799613952637
2.229225954,0,0,0,0,0,1.6816799640655518
2.230226126,0,0,0,0,0,1.6816799640655518
2.23123441,0,0,0,0,0,2.14031982421875
2.232265878,0,0,0,0,0,1.758120059967041
2.233228717,0,0,0,0,0,1.2994799613952637
2.234244852,0,0,0,0,0,1.605239987373352
2.235228913,0,0,0,0,0,1.1466000080108643
2.236226345,0,0,0,0,0,1.1466000080108643
2.23722572,0,0,0,0,0,1.8345600366592407
2.23822543,0,0,0,0,0,1.6816799640655518
2.239226343,0,0,0,0,0,1.8345600366592407
2.240225811,0,0,0,0,0,1.5288000106811523
2.241225816,0,0,0,0,0,0.7644000053405762
2.242225766,0,0,0,0,0,0.7644000053405762
2.24322605,0,0,0,0,0,0.611519992351532
2.244226037,0,0,0,0,0,0.7644000053405762
2.2452259310000002,0,0,0,0,0,0.5350799560546875
2.246225825,0,0,0,0,0,1.1466000080108643
2.247226386,0,0,0,0,0,0.9937199950218201
2.248225781,0,0,0,0,0,1.5288000106811523
2.249226009,0,0,0,0,0,2.06387996673584
2.250225773,0,0,0,0,0,2.14031982421875
2.251227316,0,0,0,0,0,1.605239987373352
2.252274024,0,0,0,0,0,1.758120059967041
2.253251975,0,0,0,0,0,1.452359914779663
2.254226925,0,0,0,0,0,1.5288000106811523
2.255231023,0,0,0,0,0,1.6816799640655518
2.256225843,0,0,0,0,0,1.452359914779663
2.257226738,0,0,0,0,0,1.6816799640655518
2.258226132,0,0,0,0,0,0.9937199950218201
2.259230989,0,0,0,0,0,0.7644000053405762
2.260226421,0,0,0,0,0,1.452359914779663
2.261226075,0,0,0,0,0,1.2994799613952637
2.262226413,0,0,0,0,0,1.223039984703064
2.263227641,0,0,0,0,0,1.605239987373352
2.264235072,0,0,0,0,0,1.223039984703064
2.265226652,0,0,0,0,0,1.070159912109375
2.266226287,0,0,0,0,0,0.7644000053405762
2.2672277,0,0,0,0,0,0.6879600286483765
2.268226335,0,0,0,0,0,1.1466000080108643
2.269226026,0,0,0,0,0,1.2994799613952637
2.270225994,0,0,0,0,0,1.5288000106811523
2.271298073,0,0,0,0,0,2.3696401119232178
2.272228783,0,0,0,0,0,1.9109998941421509
2.273226363,0,0,0,0,0,1.605239987373352
2.274225924,0,0,0,0,0,0.9937199950218201
2.275226133,0,0,0,0,0,0.9937199950218201
2.276225824,0,0,0,0,0,0.9937199950218201
2.277225922,0,0,0,0,0,1.2994799613952637
2.278225668,0,0,0,0,0,1.223039984703064
2.279227081,0,0,0,0,0,1.9109998941421509
2.280225679,0,0,0,0,0,1.6816799640655518
2.28122524,0,0,0,0,0,1.8345600366592407
2.28224406,0,0,0,0,0,1.1466000080108643
2.283227677,0,0,0,0,0,0.9172800183296204
2.284226034,0,0,0,0,0,0.9172800183296204
2.285225855,0,0,0,0,0,0.5350799560546875
2.28622599,0,0,0,0,0,0.9172800183296204
2.2872267170000002,0,0,0,0,0,1.1466000080108643
2.288225853,0,0,0,0,0,1.375920057296753
2.289225914,0,0,0,0,0,1.605239987373352
2.290226104,0,0,0,0,0,1.2994799613952637
2.291227128,0,0,0,0,0,1.605239987373352
2.292225967,0,0,0,0,0,1.452359914779663
2.29322575,0,0,0,0,0,1.5288000106811523
2.294225904,0,0,0,0,0,1.2994799613952637
2.295225836,0,0,0,0,0,1.6816799640655518
2.29622586,0,0,0,0,0,1.605239987373352
2.297225735,0,0,0,0,0,1.223039984703064
2.298225982,0,0,0,0,0,0.8408399820327759
2.299226598,0,0,0,0,0,1.070159912109375
2.300225882,0,0,0,0,0,1.1466000080108643
2.301225924,0,0,0,0,0,1.1466000080108643
2.302226022,0,0,0,0,0,1.452359914779663
2.303226491,0,0,0,0,0,1.070159912109375
2.304225941,0,0,0,0,0,1.070159912109375
2.305225835,0,0,0,0,0,1.452359914779663
2.306225896,0,0,0,0,0,1.452359914779663
2.307226087,0,0,0,0,0,1.375920057296753
2.308226166,0,0,0,0,0,1.452359914779663
2.309226079,0,0,0,0,0,0.9172800183296204
2.310225659,0,0,0,0,0,1.223039984703064
2.311226924,0,0,0,0,0,1.070159912109375
2.312225762,0,0,0,0,0,0.9172800183296204
2.313225731,0,0,0,0,0,1.223039984703064
2.314359309,0,0,0,0,0,1.6816799640655518
2.315228779,0,0,0,0,0,1.605239987373352
2.316225951,0,0,0,0,0,1.1466000080108643
2.317226105,0,0,0,0,0,1.452359914779663
2.318225943,0,0,0,0,0,0.9937199950218201
2.319227542,0,0,0,0,0,0.8408399820327759
2.320225899,0,0,0,0,0,1.070159912109375
2.321225627,0,0,0,0,0,0.611519992351532
2.322225854,0,0,0,0,0,2.2932000160217285
2.323226934,0,0,0,0,0,1.375920057296753
2.324225495,0,0,0,0,0,2.14031982421875
2.32522563,0,0,0,0,0,2.14031982421875
2.32622621,0,0,0,0,0,1.5288000106811523
2.32722703,0,0,0,0,0,1.5288000106811523
2.328225776,0,0,0,0,0,1.2994799613952637
2.329225856,0,0,0,0,0,1.6816799640655518
2.330226732,0,0,0,0,0,1.6816799640655518
2.331226608,0,0,0,0,0,1.452359914779663
2.332225483,0,0,0,0,0,1.9874399900436401
2.333225119,0,0,0,0,0,1.070159912109375
2.334236068,0,0,0,0,0,1.375920057296753
2.335228629,0,0,0,0,0,1.223039984703064
2.336226524,0,0,0,0,0,1.2994799613952637
2.337226011,0,0,0,0,0,1.223039984703064
2.338226072,0,0,0,0,0,1.2994799613952637
2.339226263,0,0,0,0,0,1.5288000106811523
2.340225879,0,0,0,0,0,1.1466000080108643
2.341225866,0,0,0,0,0,1.223039984703064
2.342225964,0,0,0,0,0,1.070159912109375
2.343227211,0,0,0,0,0,1.2994799613952637
2.3442264010000002,0,0,0,0,0,1.375920057296753
2.345226036,0,0,0,0,0,1.6816799640655518
2.346225671,0,0,0,0,0,1.6816799640655518
2.347227029,0,0,0,0,0,1.9874399900436401
2.348225868,0,0,0,0,0,1.605239987373352
2.349226188,0,0,0,0,0,1.6816799640655518
2.350226101,0,0,0,0,0,1.375920057296753
2.351226977,0,0,0,0,0,0.6879600286483765
2.352226038,0,0,0,0,0,0.611519992351532
2.353225895,0,0,0,0,0,0.9172800183296204
2.354226067,0,0,0,0,0,0.6879600286483765
2.355242628,0,0,0,0,0,1.5288000106811523
2.356269133,0,0,0,0,0,1.5288000106811523
2.357236454,0,0,0,0,0,1.9109998941421509
2.358228256,0,0,0,0,0,1.8345600366592407
2.359229076,0,0,0,0,0,1.223039984703064
2.360226119,0,0,0,0,0,1.758120059967041
2.361226124,0,0,0,0,0,0.9937199950218201
2.362226,0,0,0,0,0,0.6879600286483765
2.363226969,0,0,0,0,0,1.2994799613952637
2.364225493,0,0,0,0,0,1.2994799613952637
2.365226035,0,0,0,0,0,1.6816799640655518
2.366226207,0,0,0,0,0,1.5288000106811523
2.367230657,0,0,0,0,0,1.2994799613952637
2.368226663,0,0,0,0,0,1.2994799613952637
2.369239057,0,0,0,0,0,0.9937199950218201
2.370227729,0,0,0,0,0,0.8408399820327759
2.371226902,0,0,0,0,0,0.9172800183296204
2.3722265,0,0,0,0,0,1.2994799613952637
2.373226357,0,0,0,0,0,1.6816799640655518
2.374344454,0,0,0,0,0,2.14031982421875
2.375228275,0,0,0,0,0,1.8345600366592407
2.3762267440000002,0,0,0,0,0,2.2932000160217285
2.377226416,0,0,0,0,0,1.452359914779663
2.378226292,0,0,0,0,0,0.7644000053405762
2.379226834,0,0,0,0,0,1.070159912109375
2.380226451,0,0,0,0,0,1.375920057296753
2.381226049,0,0,0,0,0,0.9172800183296204
2.382229332,0,0,0,0,0,1.6816799640655518
2.383227153,0,0,0,0,0,1.758120059967041
2.384226417,0,0,0,0,0,0.9172800183296204
2.3852262189999998,0,0,0,0,0,1.070159912109375
2.386226095,0,0,0,0,0,0.9937199950218201
2.387228082,0,0,0,0,0,1.605239987373352
2.388226606,0,0,0,0,0,1.2994799613952637
2.389225963,0,0,0,0,0,1.375920057296753
2.390226469,0,0,0,0,0,1.452359914779663
2.391227678,0,0,0,0,0,0.9172800183296204
2.392226128,0,0,0,0,0,1.070159912109375
2.393226356,0,0,0,0,0,1.223039984703064
2.394226287,0,0,0,0,0,0.611519992351532
2.395227478,0,0,0,0,0,1.1466000080108643
2.396226576,0,0,0,0,0,1.758120059967041
2.397226563,0,0,0,0,0,1.223039984703064
2.398226328,0,0,0,0,0,2.3696401119232178
2.399227518,0,0,0,0,0,1.2994799613952637
2.400226154,0,0,0,0,0,1.605239987373352
2.401226326,0,0,0,0,0,1.605239987373352
2.402226461,0,0,0,0,0,1.1466000080108643
2.403227244,0,0,0,0,0,1.758120059967041
2.404226694,0,0,0,0,0,1.1466000080108643
2.405226366,0,0,0,0,0,1.8345600366592407
2.406226205,0,0,0,0,0,2.14031982421875
2.407226951,0,0,0,0,0,1.5288000106811523
2.408226438,0,0,0,0,0,1.375920057296753
2.409226425,0,0,0,0,0,0.7644000053405762
2.410226412,0,0,0,0,0,0.3822000026702881
2.4112269729999998,0,0,0,0,0,0.9172800183296204
2.412226553,0,0,0,0,0,0
2.413226429,0,0,0,0,0,1.2994799613952637
2.414226434,0,0,0,0,0,1.758120059967041
2.415227384,0,0,0,0,0,1.5288000106811523
2.41622639,0,0,0,0,0,1.8345600366592407
2.417226266,0,0,0,0,0,2.2167599201202393
2.418226493,0,0,0,0,0,1.9109998941421509
2.419227406,0,0,0,0,0,1.6816799640655518
2.420226449,0,0,0,0,0,0.9937199950218201
2.421226417,0,0,0,0,0,1.223039984703064
2.422226367,0,0,0,0,0,1.070159912109375
2.423227336,0,0,0,0,0,0.9172800183296204
2.424226285,0,0,0,0,0,1.375920057296753
2.4252264390000002,0,0,0,0,0,1.223039984703064
2.426226334,0,0,0,0,0,0.8408399820327759
2.427226691,0,0,0,0,0,0
2.428226419,0,0,0,0,0,0.6879600286483765
2.429225757,0,0,0,0,0,0.7644000053405762
2.430226411,0,0,0,0,0,0.7644000053405762
2.431227379,0,0,0,0,0,1.5288000106811523
2.43222607,0,0,0,0,0,2.828279972076416
2.433226187,0,0,0,0,0,2.446079969406128
2.434226507,0,0,0,0,0,2.2932000160217285
2.435227457,0,0,0,0,0,2.14031982421875
2.436226481,0,0,0,0,0,1.5288000106811523
2.43722632,0,0,0,0,0,1.070159912109375
2.438226325,0,0,0,0,0,1.5288000106811523
2.439227535,0,0,0,0,0,0.9172800183296204
2.4402262439999998,0,0,0,0,0,0.5350799560546875
2.44122649,0,0,0,0,0,1.452359914779663
2.442226366,0,0,0,0,0,0.305759996175766
2.443227408,0,0,0,0,0,0.4586400091648102
2.444226618,0,0,0,0,0,1.5288000106811523
2.445226401,0,0,0,0,0,1.5288000106811523
2.44622661,0,0,0,0,0,1.5288000106811523
2.44722743,0,0,0,0,0,2.522519826889038
2.448226473,0,0,0,0,0,2.3696401119232178
2.44922646,0,0,0,0,0,0.9172800183296204
2.45022654,0,0,0,0,0,2.14031982421875
2.451227212,0,0,0,0,0,1.223039984703064
2.452226384,0,0,0,0,0,0.0764399990439415
2.453241815,0,0,0,0,0,1.5288000106811523
2.454277116,0,0,0,0,0,0.9937199950218201
2.455227826,0,0,0,0,0,0.5350799560546875
2.4562240539999998,0,0,0,0,0,2.2167599201202393
2.457223819,0,0,0,0,0,0.7644000053405762
2.45822375,0,0,0,0,0,0.9937199950218201
2.459226996,0,0,0,0,0,1.9874399900436401
2.460226206,0,0,0,0,0,0.0764399990439415
2.461225989,0,0,0,0,0,0.611519992351532
2.462225846,0,0,0,0,0,1.2994799613952637
2.463226722,0,0,0,0,0,0
2.464225931,0,0,0,0,0,1.758120059967041
2.465225863,0,0,0,0,0,0.9172800183296204
2.466225905,0,0,0,0,0,1.375920057296753
2.467226651,0,0,0,0,0,2.522519826889038
2.468225805,0,0,0,0,0,1.9874399900436401
2.469225792,0,0,0,0,0,3.134040117263794
2.4702259460000002,0,0,0,0,0,1.758120059967041
2.471226803,0,0,0,0,0,1.9109998941421509
2.472225586,0,0,0,0,0,2.14031982421875
2.473226055,0,0,0,0,0,0.0764399990439415
2.474225746,0,0,0,0,0,1.605239987373352
2.475226288,0,0,0,0,0,0.152879998087883
2.476225608,0,0,0,0,0,0
2.477225818,0,0,0,0,0,2.9811599254608154
2.478225916,0,0,0,0,0,0.9172800183296204
2.479226792,0,0,0,0,0,3.516240119934082
2.480225816,0,0,0,0,0,1.6816799640655518
2.4812256169999998,0,0,0,0,0,0.305759996175766
2.482225586,0,0,0,0,0,1.223039984703064
2.483226665,0,0,0,0,0,-1.375920057296753
2.484225763,0,0,0,0,0,0
2.485225825,0,0,0,0,0,-0.9937199950218201
2.48622596,0,0,0,0,0,-0.4586400091648102
2.487226854,0,0,0,0,0,1.9109998941421509
2.488225637,0,0,0,0,0,0.611519992351532
2.489225921,0,0,0,0,0,2.3696401119232178
2.490225741,0,0,0,0,0,0.4586400091648102
2.491227024,0,0,0,0,0,0.9172800183296204
2.492225789,0,0,0,0,0,0
2.49322572,0,0,0,0,0,-0.611519992351532
2.494225837,0,0,0,0,0,0.4586400091648102
2.49522675,0,0,0,0,0,-0.4586400091648102
2.496225755,0,0,0,0,0,2.06387996673584
2.497225353,0,0,0,0,0,2.3696401119232178
2.498225803,0,0,0,0,0,2.5989599227905273
2.499226661,0,0,0,0,0,3.516240119934082
2.500225796,0,0,0,0,0,0.9172800183296204
2.50122569,0,0,0,0,0,1.8345600366592407
2.50222577,0,0,0,0,0,-0.611519992351532
2.503226831,0,0,0,0,0,-0.2293200045824051
2.504225762,0,0,0,0,0,-0.3822000026702881
2.5052256379999998,0,0,0,0,0,-0.2293200045824051
2.506225625,0,0,0,0,0,2.2932000160217285
2.507226075,0,0,0,0,0,0.5350799560546875
2.508225821,0,0,0,0,0,2.14031982421875
2.509225475,0,0,0,0,0,1.605239987373352
2.510225851,0,0,0,0,0,0.0764399990439415
2.511225875,0,0,0,0,0,0.0764399990439415
2.512225454,0,0,0,0,0,-0.8408399820327759
2.513225701,0,0,0,0,0,0.305759996175766
2.514225502,0,0,0,0,0,-0.8408399820327759
2.515226619,0,0,0,0,0,1.1466000080108643
2.516225828,0,0,0,0,0,1.6816799640655518
2.5172254819999997,0,0,0,0,0,2.06387996673584
2.518225673,0,0,0,0,0,2.904719829559326
2.5192264189999998,0,0,0,0,0,1.375920057296753
2.520225813,0,0,0,0,0,1.9874399900436401
2.521225559,0,0,0,0,0,0.6879600286483765
2.522225658,0,0,0,0,0,0
2.523225978,0,0,0,0,0,0.611519992351532
2.524225743,0,0,0,0,0,-0.305759996175766
2.5252255999999997,0,0,0,0,0,1.9109998941421509
2.526225809,0,0,0,0,0,0.8408399820327759
2.527226759,0,0,0,0,0,2.06387996673584
2.528225728,0,0,0,0,0,2.14031982421875
2.529225585,0,0,0,0,0,0.6879600286483765
2.530225498,0,0,0,0,0,0.9172800183296204
2.5312267630000003,0,0,0,0,0,-0.9937199950218201
2.532225564,0,0,0,0,0,-0.5350799560546875
2.5332257,0,0,0,0,0,-0.9937199950218201
2.534225575,0,0,0,0,0,9.019920349121094
2.535226729,0,0,0,0,0,1.2994799613952637
2.53622579,0,0,0,0,0,1.5288000106811523
2.53722524,0,0,0,0,0,3.134040117263794
2.538226116,0,0,0,0,0,1.605239987373352
2.539226751,0,0,0,0,0,1.9109998941421509
2.540225034,0,0,0,0,0,0.611519992351532
2.54122541,0,0,0,0,0,-0.3822000026702881
2.542225897,0,0,0,0,0,0
2.543258884,0,0,0,0,0,-1.375920057296753
2.544226445,0,0,0,0,0,1.1466000080108643
2.545225784,0,0,0,0,0,1.8345600366592407
2.54622553,0,0,0,0,0,2.6754000186920166
2.547226739,0,0,0,0,0,3.2869198322296143
2.548225726,0,0,0,0,0,1.6816799640655518
2.549225528,0,0,0,0,0,2.2167599201202393
2.550225571,0,0,0,0,0,-0.152879998087883
2.55122678,0,0,0,0,0,-0.4586400091648102
2.552225619,0,0,0,0,0,-1.223039984703064
2.553225865,0,0,0,0,0,-1.5288000106811523
2.554225667,0,0,0,0,0,1.375920057296753
2.555231487,0,0,0,0,0,0.611519992351532
2.556232067,0,0,0,0,0,2.2167599201202393
2.557226887,0,0,0,0,0,1.452359914779663
2.558225781,0,0,0,0,0,1.605239987373352
2.55922675,0,0,0,0,0,0.7644000053405762
2.560225496,0,0,0,0,0,-0.4586400091648102
2.561225613,0,0,0,0,0,0
2.5622250810000002,0,0,0,0,0,-1.223039984703064
2.563225679,0,0,0,0,0,0.8408399820327759
2.564225703,0,0,0,0,0,1.8345600366592407
2.565225616,0,0,0,0,0,1.758120059967041
2.566225492,0,0,0,0,0,4.0513200759887695
2.567226442,0,0,0,0,0,1.452359914779663
2.568235003,0,0,0,0,0,1.9874399900436401
2.569228157,0,0,0,0,0,0
2.570226533,0,0,0,0,0,-0.7644000053405762
2.571226668,0,0,0,0,0,-0.4586400091648102
2.572225988,0,0,0,0,0,-1.5288000106811523
2.57322616,0,0,0,0,0,1.452359914779663
2.574226184,0,0,0,0,0,0.7644000053405762
2.575226393,0,0,0,0,0,2.2167599201202393
2.576226325,0,0,0,0,0,2.14031982421875
2.577225997,0,0,0,0,0,1.070159912109375
2.578226225,0,0,0,0,0,1.6816799640655518
2.5792261930000002,0,0,0,0,0,-0.611519992351532
2.58022568,0,0,0,0,0,0.152879998087883
2.581226149,0,0,0,0,0,-1.2994799613952637
2.58222608,0,0,0,0,0,0
2.583225863,0,0,0,0,0,1.1466000080108643
2.5842256470000002,0,0,0,0,0,1.375920057296753
2.585226226,0,0,0,0,0,2.904719829559326
2.586226065,0,0,0,0,0,1.9109998941421509
2.587227311,0,0,0,0,0,1.605239987373352
2.5882263720000003,0,0,0,0,0,1.223039984703064
2.589226137,0,0,0,0,0,-0.152879998087883
2.590226328,0,0,0,0,0,0.2293200045824051
2.5912271110000002,0,0,0,0,0,-1.452359914779663
2.5922261349999998,0,0,0,0,0,1.1466000080108643
2.593226066,0,0,0,0,0,1.2994799613952637
2.594226072,0,0,0,0,0,1.758120059967041
2.595227114,0,0,0,0,0,2.904719829559326
2.596226305,0,0,0,0,0,1.452359914779663
2.597226088,0,0,0,0,0,2.2167599201202393
2.5982262240000003,0,0,0,0,0,0.4586400091648102
2.5992270619999998,0,0,0,0,0,0.2293200045824051
2.600226327,0,0,0,0,0,0.152879998087883
2.60122611,0,0,0,0,0,-0.9937199950218201
2.6022262830000003,0,0,0,0,0,0.9172800183296204
2.603226936,0,0,0,0,0,0
2.604226182,0,0,0,0,0,2.522519826889038
2.605238373,0,0,0,0,0,1.223039984703064
2.60626436,0,0,0,0,0,1.452359914779663
2.6072422729999998,0,0,0,0,0,1.758120059967041
2.608226871,0,0,0,0,0,-0.152879998087883
2.609226303,0,0,0,0,0,0.7644000053405762
2.610226086,0,0,0,0,0,-0.7644000053405762
2.6112274429999998,0,0,0,0,0,0.2293200045824051
2.612226486,0,0,0,0,0,1.9109998941421509
2.613226287,0,0,0,0,0,0.8408399820327759
2.614226108,0,0,0,0,0,2.446079969406128
2.6152271689999997,0,0,0,0,0,1.223039984703064
2.616226063,0,0,0,0,0,1.9874399900436401
2.617226291,0,0,0,0,0,0.3822000026702881
2.618226371,0,0,0,0,0,0.305759996175766
2.619226913,0,0,0,0,0,0.7644000053405762
2.620226252,0,0,0,0,0,-0.9172800183296204
2.621226072,0,0,0,0,0,1.5288000106811523
2.6222261700000002,0,0,0,0,0,0.5350799560546875
2.623245176,0,0,0,0,0,1.452359914779663
2.624228403,0,0,0,0,0,2.446079969406128
2.625226242,0,0,0,0,0,1.070159912109375
2.626226007,0,0,0,0,0,1.070159912109375
2.627226624,0,0,0,0,0,-0.2293200045824051
2.628226185,0,0,0,0,0,0.9172800183296204
2.629226264,0,0,0,0,0,-0.9172800183296204
2.6302262880000002,0,0,0,0,0,-0.152879998087883
2.63122746,0,0,0,0,0,1.9109998941421509
2.632226281,0,0,0,0,0,0.8408399820327759
2.633226064,0,0,0,0,0,2.522519826889038
2.634226107,0,0,0,0,0,1.9109998941421509
2.63522702,0,0,0,0,0,1.1466000080108643
2.636226229,0,0,0,0,0,0.2293200045824051
2.637226419,0,0,0,0,0,0
2.63822648,0,0,0,0,0,0.2293200045824051
2.639227967,0,0,0,0,0,-0.8408399820327759
2.640226214,0,0,0,0,0,1.8345600366592407
2.641226034,0,0,0,0,0,1.9109998941421509
2.642226225,0,0,0,0,0,2.14031982421875
2.64322723,0,0,0,0,0,2.9811599254608154
2.6442263280000002,0,0,0,0,0,0.611519992351532
2.645225778,0,0,0,0,0,1.223039984703064
2.646226247,0,0,0,0,0,-0.305759996175766
2.647227178,0,0,0,0,0,0.2293200045824051
2.648225665,0,0,0,0,0,-1.1466000080108643
2.6492258,0,0,0,0,0,-0.152879998087883
2.65022638,0,0,0,0,0,2.2932000160217285
2.651227145,0,0,0,0,0,1.452359914779663
2.652273816,0,0,0,0,0,2.3696401119232178
2.653228878,0,0,0,0,0,1.8345600366592407
2.654233846,0,0,0,0,0,1.1466000080108643
2.655237852,0,0,0,0,0,0.9172800183296204
2.656232246,0,0,0,0,0,-0.2293200045824051
2.657226215,0,0,0,0,0,0.4586400091648102
2.658226461,0,0,0,0,0,-0.305759996175766
2.659227726,0,0,0,0,0,1.1466000080108643
2.66022612,0,0,0,0,0,1.452359914779663
2.66124131,0,0,0,0,0,1.223039984703064
2.662227427,0,0,0,0,0,2.06387996673584
2.663228007,0,0,0,0,0,0
2.664226272,0,0,0,0,0,0.6879600286483765
2.665226166,0,0,0,0,0,0
2.666225634,0,0,0,0,0,0.0764399990439415
2.667227121,0,0,0,0,0,1.1466000080108643
2.668226145,0,0,0,0,0,-0.3822000026702881
2.669226003,0,0,0,0,0,2.446079969406128
2.670225527,0,0,0,0,0,1.1466000080108643
2.671227199,0,0,0,0,0,1.758120059967041
2.67222626,0,0,0,0,0,1.6816799640655518
2.673226117,0,0,0,0,0,0
2.674242623,0,0,0,0,0,0.8408399820327759
2.6752284250000002,0,0,0,0,0,-0.5350799560546875
2.676226356,0,0,0,0,0,0.5350799560546875
2.6772262319999998,0,0,0,0,0,-0.305759996175766
2.678226293,0,0,0,0,0,0.5350799560546875
2.679226947,0,0,0,0,0,2.3696401119232178
2.6802261,0,0,0,0,0,0.6879600286483765
2.681226069,0,0,0,0,0,2.446079969406128
2.682226167,0,0,0,0,0,0.2293200045824051
2.683226913,0,0,0,0,0,0.7644000053405762
2.684226104,0,0,0,0,0,0.0764399990439415
2.685225943,0,0,0,0,0,0.0764399990439415
2.686226059,0,0,0,0,0,0.611519992351532
2.6872267499999998,0,0,0,0,0,-0.6879600286483765
2.688225533,0,0,0,0,0,1.9109998941421509
2.6892260390000002,0,0,0,0,0,1.605239987373352
2.690225933,0,0,0,0,0,0.9172800183296204
2.691226346,0,0,0,0,0,3.210479974746704
2.69222574,0,0,0,0,0,0.8408399820327759
2.693226079,0,0,0,0,0,1.605239987373352
2.694226066,0,0,0,0,0,0.152879998087883
2.6952268310000003,0,0,0,0,0,0.3822000026702881
2.69622617,0,0,0,0,0,-0.3822000026702881
2.697226397,0,0,0,0,0,-0.3822000026702881
2.698226051,0,0,0,0,0,1.9874399900436401
2.699226982,0,0,0,0,0,0.9937199950218201
2.700226062,0,0,0,0,0,2.06387996673584
2.701226031,0,0,0,0,0,2.14031982421875
2.702226388,0,0,0,0,0,0.2293200045824051
2.703227079,0,0,0,0,0,0.3822000026702881
2.704226029,0,0,0,0,0,-0.2293200045824051
2.705226145,0,0,0,0,0,0.152879998087883
2.706226132,0,0,0,0,0,-1.223039984703064
2.707227471,0,0,0,0,0,1.2994799613952637
2.708225828,0,0,0,0,0,1.9874399900436401
2.709226186,0,0,0,0,0,1.1466000080108643
2.710226006,0,0,0,0,0,2.9811599254608154
2.711226937,0,0,0,0,0,1.070159912109375
2.71222611,0,0,0,0,0,0.6879600286483765
2.713225634,0,0,0,0,0,-0.305759996175766
2.714226083,0,0,0,0,0,-0.305759996175766
2.715226941,0,0,0,0,0,-0.152879998087883
2.716226094,0,0,0,0,0,-0.305759996175766
2.717225989,0,0,0,0,0,2.5989599227905273
2.718226143,0,0,0,0,0,1.9874399900436401
2.719226963,0,0,0,0,0,3.0576000213623047
2.720226135,0,0,0,0,0,2.446079969406128
2.721226085,0,0,0,0,0,0.9172800183296204
2.722226127,0,0,0,0,0,0.9172800183296204
2.723226966,0,0,0,0,0,-0.9172800183296204
2.724226157,0,0,0,0,0,-0.9937199950218201
2.725225922,0,0,0,0,0,-1.2994799613952637
2.7262260940000003,0,0,0,0,0,0.8408399820327759
2.727226933,0,0,0,0,0,1.375920057296753
2.72822616,0,0,0,0,0,1.223039984703064
2.729226036,0,0,0,0,0,3.210479974746704
2.730226116,0,0,0,0,0,1.223039984703064
2.731226566,0,0,0,0,0,0.4586400091648102
2.732226034,0,0,0,0,0,0.152879998087883
2.733226095,0,0,0,0,0,-0.8408399820327759
2.734226064,0,0,0,0,0,0.152879998087883
2.735226532,0,0,0,0,0,-1.605239987373352
2.7362260750000003,0,0,0,0,0,1.6816799640655518
2.737226025,0,0,0,0,0,2.2932000160217285
2.7382261039999998,0,0,0,0,0,2.9811599254608154
2.7392271470000003,0,0,0,0,0,2.904719829559326
2.740226115,0,0,0,0,0,0.9172800183296204
2.741226139,0,0,0,0,0,1.223039984703064
2.7422261260000003,0,0,0,0,0,-0.2293200045824051
2.743226928,0,0,0,0,0,-0.305759996175766
2.744226248,0,0,0,0,0,-0.9937199950218201
2.745226198,0,0,0,0,0,-0.3822000026702881
2.746226315,0,0,0,0,0,1.9109998941421509
2.7472268570000002,0,0,0,0,0,0.6879600286483765
2.74822603,0,0,0,0,0,3.3633599281311035
2.749226072,0,0,0,0,0,1.605239987373352
2.75022617,0,0,0,0,0,0.5350799560546875
2.751226972,0,0,0,0,0,0.8408399820327759
2.752226941,0,0,0,0,0,-1.070159912109375
2.753225835,0,0,0,0,0,0.3822000026702881
2.754246396,0,0,0,0,0,-1.605239987373352
2.755228327,0,0,0,0,0,0.5350799560546875
2.756225963,0,0,0,0,0,1.758120059967041
2.757226375,0,0,0,0,0,0.2293200045824051
2.758225992,0,0,0,0,0,2.9811599254608154
2.759227183,0,0,0,0,0,0.611519992351532
2.760226003,0,0,0,0,0,1.8345600366592407
2.761226027,0,0,0,0,0,0.5350799560546875
2.7622260880000002,0,0,0,0,0,0
2.763226927,0,0,0,0,0,0.2293200045824051
2.7642261550000002,0,0,0,0,0,-0.5350799560546875
2.765226197,0,0,0,0,0,1.605239987373352
2.76622611,0,0,0,0,0,0.9937199950218201
2.7672268559999997,0,0,0,0,0,2.2167599201202393
2.768229917,0,0,0,0,0,2.2932000160217285
2.769225719,0,0,0,0,0,0.611519992351532
2.770226225,0,0,0,0,0,0.9937199950218201
2.771226249,0,0,0,0,0,-0.8408399820327759
2.7722261059999997,0,0,0,0,0,0
2.773226204,0,0,0,0,0,-1.758120059967041
2.774225654,0,0,0,0,0,0
2.775226197,0,0,0,0,0,1.9109998941421509
2.7762261280000002,0,0,0,0,0,1.223039984703064
2.777226282,0,0,0,0,0,3.3633599281311035
2.778225713,0,0,0,0,0,2.14031982421875
2.779226219,0,0,0,0,0,1.375920057296753
2.780226113,0,0,0,0,0,1.1466000080108643
2.781225952,0,0,0,0,0,-0.152879998087883
2.782226235,0,0,0,0,0,-0.4586400091648102
2.783226333,0,0,0,0,0,-0.9172800183296204
2.784226135,0,0,0,0,0,1.758120059967041
2.785226066,0,0,0,0,0,1.6816799640655518
2.786226183,0,0,0,0,0,2.446079969406128
2.7872272259999997,0,0,0,0,0,3.0576000213623047
2.7882261010000002,0,0,0,0,0,1.1466000080108643
2.7892262370000003,0,0,0,0,0,1.223039984703064
2.790225816,0,0,0,0,0,-0.4586400091648102
2.79122684,0,0,0,0,0,-0.7644000053405762
2.792225994,0,0,0,0,0,-1.605239987373352
2.7932262960000003,0,0,0,0,0,-0.2293200045824051
2.794240597,0,0,0,0,0,2.14031982421875
2.795228529,0,0,0,0,0,0.3822000026702881
2.796225627,0,0,0,0,0,3.210479974746704
2.797226577,0,0,0,0,0,1.375920057296753
2.798226101,0,0,0,0,0,0
2.799226329,0,0,0,0,0,0.6879600286483765
2.800225741,0,0,0,0,0,-2.2167599201202393
2.801226228,0,0,0,0,0,-1.2994799613952637
2.8022261410000002,0,0,0,0,0,-1.758120059967041
2.803227036,0,0,0,0,0,-0.5350799560546875
2.804226115,0,0,0,0,0,1.8345600366592407
2.8052260650000003,0,0,0,0,0,0.9172800183296204
2.806226145,0,0,0,0,0,2.904719829559326
2.807226669,0,0,0,0,0,1.2994799613952637
2.808226322,0,0,0,0,0,0.305759996175766
2.809226346,0,0,0,0,0,1.223039984703064
2.810226167,0,0,0,0,0,-0.305759996175766
2.81123008,0,0,0,0,0,-0.7644000053405762
2.8122440109999998,0,0,0,0,0,-0.6879600286483765
2.813226887,0,0,0,0,0,-0.3822000026702881
2.814226115,0,0,0,0,0,1.2994799613952637
2.815226435,0,0,0,0,0,0.7644000053405762
2.816226089,0,0,0,0,0,0.8408399820327759
2.817226576,0,0,0,0,0,0.8408399820327759
2.818226859,0,0,0,0,0,0
2.8192277900000002,0,0,0,0,0,0
2.820226203,0,0,0,0,0,-0.3822000026702881
2.821225857,0,0,0,0,0,-0.5350799560546875
2.82222627,0,0,0,0,0,-0.9937199950218201
2.823227275,0,0,0,0,0,-0.7644000053405762
2.824226022,0,0,0,0,0,0.3822000026702881
2.825226249,0,0,0,0,0,0.4586400091648102
2.826226181,0,0,0,0,0,1.9109998941421509
2.827226168,0,0,0,0,0,1.2994799613952637
2.828226192,0,0,0,0,0,0.9172800183296204
2.829226197,0,0,0,0,0,1.8345600366592407
2.830226036,0,0,0,0,0,0
2.831227208,0,0,0,0,0,0.3822000026702881
2.832226177,0,0,0,0,0,1.1466000080108643
2.833226238,0,0,0,0,0,-0.4586400091648102
2.834226114,0,0,0,0,0,-0.9937199950218201
2.835227156,0,0,0,0,0,-0.3822000026702881
2.836226236,0,0,0,0,0,-0.152879998087883
2.837225945,0,0,0,0,0,0
2.838226099,0,0,0,0,0,1.2994799613952637
2.8392262710000002,0,0,0,0,0,0.5350799560546875
2.840225998,0,0,0,0,0,0.305759996175766
2.841236522,0,0,0,0,0,0.5350799560546875
2.842227491,0,0,0,0,0,0.305759996175766
2.843226756,0,0,0,0,0,0
2.844226206,0,0,0,0,0,0.9172800183296204
2.845226137,0,0,0,0,0,0.8408399820327759
2.846226439,0,0,0,0,0,1.070159912109375
2.847227111,0,0,0,0,0,0.5350799560546875
2.848226172,0,0,0,0,0,0
2.849226344,0,0,0,0,0,0.152879998087883
2.850226294,0,0,0,0,0,0
2.85122717,0,0,0,0,0,-0.5350799560546875
2.852226175,0,0,0,0,0,0
2.853226181,0,0,0,0,0,0
2.854226186,0,0,0,0,0,0.152879998087883
2.855231247,0,0,0,0,0,0
2.856260641,0,0,0,0,0,0.8408399820327759
2.857249629,0,0,0,0,0,0.9937199950218201
2.858227264,0,0,0,0,0,0.611519992351532
2.859230269,0,0,0,0,0,1.223039984703064
2.860226312,0,0,0,0,0,0.611519992351532
2.861225484,0,0,0,0,0,0.8408399820327759
2.862226027,0,0,0,0,0,0
2.8632269949999998,0,0,0,0,0,-0.9172800183296204
2.864225723,0,0,0,0,0,0.2293200045824051
2.865226099,0,0,0,0,0,-0.3822000026702881
2.866225882,0,0,0,0,0,0.2293200045824051
2.867227202,0,0,0,0,0,0.5350799560546875
2.8703614760000002,0,0,0,0,0,0
2.871038375,0,0,0,0,0,0
2.871226965,0,0,0,0,0,0.611519992351532
2.871402296,0,0,0,0,0,0
2.872275896,0,0,0,0,0,0
2.873235791,0,0,0,0,0,0.6879600286483765
2.874228074,0,0,0,0,0,0.9172800183296204
2.87522758,0,0,0,0,0,1.758120059967041
2.876227363,0,0,0,0,0,1.070159912109375
2.8772269980000003,0,0,0,0,0,1.1466000080108643
2.87822693,0,0,0,0,0,0.4586400091648102
2.879227879,0,0,0,0,0,-0.152879998087883
2.880226792,0,0,0,0,0,-0.4586400091648102
2.881226613,0,0,0,0,0,-1.070159912109375
2.882226729,0,0,0,0,0,9.019920349121094
2.88322655,0,0,0,0,0,0.4586400091648102
2.884226833,0,0,0,0,0,0.3822000026702881
2.88522669,0,0,0,0,0,0.6879600286483765
2.8862265110000003,0,0,0,0,0,0.611519992351532
2.887226998,0,0,0,0,0,0
2.888226077,0,0,0,0,0,0.611519992351532
2.889226916,0,0,0,0,0,0.152879998087883
2.890226699,0,0,0,0,0,0.7644000053405762
2.891226649,0,0,0,0,0,0.9172800183296204
2.892226136,0,0,0,0,0,0.7644000053405762
2.8932269010000002,0,0,0,0,0,0.611519992351532
2.8942264250000003,0,0,0,0,0,0.9937199950218201
2.895227893,0,0,0,0,0,0.2293200045824051
2.896226751,0,0,0,0,0,0
2.89722633,0,0,0,0,0,0.2293200045824051
2.8982499649999998,0,0,0,0,0,-0.4586400091648102
2.899286174,0,0,0,0,0,0
2.900230069,0,0,0,0,0,0.305759996175766
2.9012270190000002,0,0,0,0,0,-0.2293200045824051
2.902227191,0,0,0,0,0,0.0764399990439415
2.903229271,0,0,0,0,0,0.152879998087883
2.904227998,0,0,0,0,0,0
2.905245393,0,0,0,0,0,0.305759996175766
2.906227528,0,0,0,0,0,0.4586400091648102
2.907227533,0,0,0,0,0,0.9172800183296204
2.908227317,0,0,0,0,0,1.452359914779663
2.909226285,0,0,0,0,0,1.070159912109375
2.910225994,0,0,0,0,0,0.6879600286483765
2.911228352,0,0,0,0,0,0.611519992351532
2.9122265240000003,0,0,0,0,0,0.3822000026702881
2.913226233,0,0,0,0,0,0.305759996175766
2.914226127,0,0,0,0,0,0.3822000026702881
2.915227559,0,0,0,0,0,0.4586400091648102
2.916226694,0,0,0,0,0,0.305759996175766
2.917226459,0,0,0,0,0,0
2.918226835,0,0,0,0,0,-0.305759996175766
2.919227544,0,0,0,0,0,0
2.920226716,0,0,0,0,0,0
2.921226407,0,0,0,0,0,0.2293200045824051
2.922226727,0,0,0,0,0,0.305759996175766
2.923227344,0,0,0,0,0,0.4586400091648102
2.924226516,0,0,0,0,0,0.9172800183296204
2.925226595,0,0,0,0,0,0.9172800183296204
2.926226675,0,0,0,0,0,0.6879600286483765
2.927227347,0,0,0,0,0,0.6879600286483765
2.928226612,0,0,0,0,0,0.152879998087883
2.929226525,0,0,0,0,0,0.4586400091648102
2.9302266230000003,0,0,0,0,0,0
2.931227647,0,0,0,0,0,0.305759996175766
2.932226541,0,0,0,0,0,0.5350799560546875
2.933226528,0,0,0,0,0,0
2.934226608,0,0,0,0,0,0
2.935227261,0,0,0,0,0,0.2293200045824051
2.93622673,0,0,0,0,0,0.152879998087883
2.937226328,0,0,0,0,0,0.0764399990439415
2.9382265739999998,0,0,0,0,0,0.2293200045824051
2.939227543,0,0,0,0,0,0.305759996175766
2.940226474,0,0,0,0,0,0.7644000053405762
2.941226683,0,0,0,0,0,0.2293200045824051
2.9422264670000002,0,0,0,0,0,0.305759996175766
2.943226065,0,0,0,0,0,0.611519992351532
2.944223885,0,0,0,0,0,0.4586400091648102
2.945241261,0,0,0,0,0,0.305759996175766
2.946244155,0,0,0,0,0,0.3822000026702881
2.9472279390000002,0,0,0,0,0,0.5350799560546875
2.9482267589999998,0,0,0,0,0,0.152879998087883
2.949226857,0,0,0,0,0,0.152879998087883
2.950226659,0,0,0,0,0,0.305759996175766
2.95122659,0,0,0,0,0,0.3822000026702881
2.952226447,0,0,0,0,0,0
2.953226268,0,0,0,0,0,0.6879600286483765
2.954226829,0,0,0,0,0,0.5350799560546875
2.955226964,0,0,0,0,0,0.7644000053405762
2.956226173,0,0,0,0,0,0.7644000053405762
2.95722629,0,0,0,0,0,0.9937199950218201
2.958226721,0,0,0,0,0,0.7644000053405762
2.959226597,0,0,0,0,0,0.7644000053405762
2.960226362,0,0,0,0,0,0.5350799560546875
2.961226775,0,0,0,0,0,0.0764399990439415
2.962226428,0,0,0,0,0,0.305759996175766
2.96322836,0,0,0,0,0,0
2.9642265500000002,0,0,0,0,0,0.2293200045824051
2.965236,0,0,0,0,0,1.070159912109375
2.9662276910000003,0,0,0,0,0,0.305759996175766
2.967227363,0,0,0,0,0,0.6879600286483765
2.968226406,0,0,0,0,0,0.4586400091648102
2.969237819,0,0,0,0,0,-0.5350799560546875
2.9702271209999997,0,0,0,0,0,0.4586400091648102
2.971227219,0,0,0,0,0,-0.611519992351532
2.972226465,0,0,0,0,0,9.325679779052734
2.973226489,0,0,0,0,0,0.4586400091648102
2.97423005,0,0,0,0,0,0.305759996175766
2.97522737,0,0,0,0,0,0.2293200045824051
2.9762266349999997,0,0,0,0,0,0.2293200045824051
2.97722664,0,0,0,0,0,0.305759996175766
2.978226053,0,0,0,0,0,0.2293200045824051
2.979226744,0,0,0,0,0,0.2293200045824051
2.980226583,0,0,0,0,0,0.4586400091648102
2.981226588,0,0,0,0,0,0.4586400091648102
2.982226705,0,0,0,0,0,0.611519992351532
2.983227007,0,0,0,0,0,0.152879998087883
2.984226475,0,0,0,0,0,0
2.98522661,0,0,0,0,0,0.2293200045824051
2.9862266159999997,0,0,0,0,0,0
2.987227899,0,0,0,0,0,0.152879998087883
2.98822659,0,0,0,0,0,0.2293200045824051
2.989226651,0,0,0,0,0,0.305759996175766
2.990226508,0,0,0,0,0,0.2293200045824051
2.99122744,0,0,0,0,0,0.3822000026702881
2.992226482,0,0,0,0,0,0.611519992351532
2.993226543,0,0,0,0,0,0.305759996175766
2.994226549,0,0,0,0,0,0.611519992351532
2.995227665,0,0,0,0,0,0.2293200045824051
