Time,AccelX1,AccelY1,AccelZ1,AccelX2,AccelY2,AccelZ2
0.00001063,0,0,1.965639591217041,0,0,1.2994799613952637
0.001299389,0,0,2.2816741466522217,0,0,1.375920057296753
0.002259968,0,0,1.946485996246338,0,0,1.070159912109375
0.003272917,0,0,1.9273324012756348,0,0,1.452359914779663
0.004276773,0,0,1.9943699836730957,0,0,1.223039984703064
0.005298222,0,0,1.9129672050476074,0,0,1.5288000106811523
0.006263579,0,0,1.8171991109848022,0,0,1.1466000080108643
0.00725862,0,0,1.7836803197860718,0,0,1.223039984703064
0.008235254,0,0,1.941697597503662,0,0,1.070159912109375
0.009228722,0,0,1.9991583824157715,0,0,1.5288000106811523
0.010224115,0,0,2.0398597717285156,0,0,0.305759996175766
0.011223527,0,0,2.255337953567505,0,0,1.1466000080108643
0.012224013,0,0,2.183511972427368,0,0,1.5288000106811523
0.013223629,0,0,1.922544002532959,0,0,1.2994799613952637
0.014223485,0,0,1.8555063009262085,0,0,1.223039984703064
0.015223304,0,0,1.7597382068634033,0,0,1.452359914779663
0.016223938,0,0,1.7501614093780518,0,0,1.605239987373352
0.017224202,0,0,1.723825216293335,0,0,1.452359914779663
0.018223873,0,0,1.9177556037902832,0,0,0.9172800183296204
0.019223581,0,0,2.1116859912872314,0,0,1.1466000080108643
0.020226012,0,0,2.0925323963165283,0,0,0.8408399820327759
0.021222886,0,0,2.008735179901123,0,0,1.223039984703064
0.022223724,0,0,2.2194249629974365,0,0,1.223039984703064
0.02322371,0,0,1.889025092124939,0,0,0.9937199950218201
0.024224326,0,0,1.8387469053268433,0,0,1.375920057296753
0.025223589,0,0,1.7621324062347412,0,0,1.2994799613952637
0.026223427,0,0,1.678335428237915,0,0,1.605239987373352
0.027223432,0,0,1.6112977266311646,0,0,0.8408399820327759
0.028223899,0,0,1.7070658206939697,0,0,1.452359914779663
0.029223755,0,0,1.9273324012756348,0,0,1.223039984703064
0.030223482,0,0,2.006340980529785,0,0,1.375920057296753
0.031223468,0,0,1.9608511924743652,0,0,0.6879600286483765
0.03222412,0,0,2.2385785579681396,0,0,1.452359914779663
0.033240051,0,0,1.9800047874450684,0,0,1.2994799613952637
0.034224703,0,0,1.8986018896102905,0,0,1.1466000080108643
0.035223967,0,0,1.7621324062347412,0,0,1.070159912109375
0.036228805,0,0,1.6711528301239014,0,0,1.223039984703064
0.03722668,0,0,1.6735470294952393,0,0,1.223039984703064
0.038226517,0,0,1.580173134803772,0,0,1.223039984703064
0.039225781,0,0,1.8148049116134644,0,0,1.070159912109375
0.040227897,0,0,1.9393033981323242,0,0,0.9172800183296204
0.041226623,0,0,1.9584569931030273,0,0,0
0.042226535,0,0,2.0877439975738525,0,0,1.375920057296753
0.043226354,0,0,2.166752576828003,0,0,0.9937199950218201
0.044227748,0,0,1.824381709098816,0,0,1.070159912109375
0.045226271,0,0,1.7477672100067139,0,0,1.070159912109375
0.046226423,0,0,1.6065093278884888,0,0,1.452359914779663
0.047227039,0,0,1.6974890232086182,0,0,1.2994799613952637
0.048227691,0,0,1.5897499322891235,0,0,0.8408399820327759
0.049226326,0,0,1.7477672100067139,0,0,0.9172800183296204
0.050226386,0,0,1.7908629179000854,0,0,1.223039984703064
0.05122639,0,0,1.8483237028121948,0,0,1.9109998941421509
0.052227172,0,0,1.8555063009262085,0,0,1.1466000080108643
0.053226325,0,0,2.183511972427368,0,0,1.1466000080108643
0.054226366,0,0,1.9345149993896484,0,0,0.6879600286483765
0.055226278,0,0,1.7884687185287476,0,0,1.1466000080108643
0.056225968,0,0,1.6280571222305298,0,0,0.9937199950218201
0.057223787,0,0,1.5849615335464478,0,0,0.9937199950218201
0.058223717,0,0,1.5729905366897583,0,0,1.1466000080108643
0.059223759,0,0,1.479616641998291,0,0,1.2994799613952637
0.060227948,0,0,1.7884687185287476,0,0,0.9937199950218201
0.061226712,0,0,1.8842366933822632,0,0,0.8408399820327759
0.062239161,0,0,1.8124107122421265,0,0,0.2293200045824051
0.063262443,0,0,1.9776105880737305,0,0,1.223039984703064
0.064252577,0,0,1.9608511924743652,0,0,0.9172800183296204
0.065262044,0,0,1.721431016921997,0,0,1.1466000080108643
0.066231827,0,0,1.625662922859192,0,0,0.9172800183296204
0.067226313,0,0,1.4532804489135742,0,0,1.2994799613952637
0.06827565,0,0,1.599326729774475,0,0,0.7644000053405762
0.069713537,0,0,1.5442601442337036,0,0,0.9937199950218201
0.070254326,0,0,1.7764976024627686,0,0,0.611519992351532
0.071474401,0,0,1.8411411046981812,0,0,0.9172800183296204
0.072229854,0,0,1.8507179021835327,0,0,1.452359914779663
0.073226284,0,0,1.8267759084701538,0,0,1.223039984703064
0.074267084,0,0,2.0374655723571777,0,0,0.9937199950218201
0.075254718,0,0,1.7381904125213623,0,0,0.8408399820327759
0.07623139,0,0,1.678335428237915,0,0,0.9937199950218201
0.077263486,0,0,1.5753847360610962,0,0,1.1466000080108643
0.078228065,0,0,1.5682021379470825,0,0,1.223039984703064
0.079226329,0,0,1.5897499322891235,0,0,0.9172800183296204
0.080229963,0,0,1.6855180263519287,0,0,1.223039984703064
0.081225949,0,0,1.8076223134994507,0,0,1.1466000080108643
0.082225342,0,0,1.9033904075622559,0,0,1.375920057296753
0.083225977,0,0,1.8315643072128296,0,0,0.0764399990439415
0.084227055,0,0,2.0614075660705566,0,0,1.070159912109375
0.08522543,0,0,1.843535304069519,0,0,0.9172800183296204
0.086225453,0,0,1.6831238269805908,0,0,1.452359914779663
0.087225754,0,0,1.7836803197860718,0,0,0.7644000053405762
0.088226406,0,0,1.5897499322891235,0,0,1.452359914779663
0.089338835,0,0,1.6280571222305298,0,0,1.1466000080108643
0.090241248,0,0,1.625662922859192,0,0,1.070159912109375
0.091504119,0,0,1.7956513166427612,0,0,0.7644000053405762
0.092227146,0,0,1.7956513166427612,0,0,0.8408399820327759
0.093223947,0,0,1.9488801956176758,0,0,0.4586400091648102
0.09422334,0,0,1.867477297782898,0,0,0.9172800183296204
0.095223937,0,0,1.8770540952682495,0,0,1.1466000080108643
0.096225942,0,0,2.118868589401245,0,0,0.9172800183296204
0.097223428,0,0,1.8052281141281128,0,0,1.2994799613952637
0.098234136,0,0,1.7549498081207275,0,0,0.9172800183296204
0.099224974,0,0,1.7286136150360107,0,0,1.223039984703064
0.100224645,0,0,1.6903064250946045,0,0,0.9937199950218201
0.101223982,0,0,1.7166426181793213,0,0,0.9937199950218201
0.102262209,0,0,1.7166426181793213,0,0,1.1466000080108643
0.103237454,0,0,1.8483237028121948,0,0,1.9874399900436401
0.104398512,0,0,1.9153614044189453,0,0,0.7644000053405762
0.105235741,0,0,1.8722656965255737,0,0,1.223039984703064
0.106224042,0,0,2.1380221843719482,0,0,0.7644000053405762
0.107223268,0,0,1.9608511924743652,0,0,1.8345600366592407
0.108227625,0,0,1.8962076902389526,0,0,0.8408399820327759
0.109226648,0,0,1.7525556087493896,0,0,1.452359914779663
0.110226522,0,0,1.6639702320098877,0,0,1.375920057296753
0.11122649,0,0,1.7310078144073486,0,0,1.5288000106811523
0.112226828,0,0,1.6759412288665771,0,0,0.9937199950218201
0.113226388,0,0,1.922544002532959,0,0,0.9172800183296204
0.114227281,0,0,1.9919757843017578,0,0,0.3822000026702881
0.115226378,0,0,2.0254945755004883,0,0,0.9172800183296204
0.116227679,0,0,2.049436569213867,0,0,1.2994799613952637
0.117226387,0,0,2.2385785579681396,0,0,1.070159912109375
0.118226336,0,0,1.8962076902389526,0,0,1.452359914779663
0.119226118,0,0,1.843535304069519,0,0,1.452359914779663
0.120227382,0,0,1.6903064250946045,0,0,1.2994799613952637
0.121226442,0,0,1.7477672100067139,0,0,1.223039984703064
0.122226039,0,0,1.6687586307525635,0,0,1.452359914779663
0.123226395,0,0,1.867477297782898,0,0,1.223039984703064
0.124227362,0,0,1.98958158493042,0,0,1.758120059967041
0.125225922,0,0,2.032677173614502,0,0,1.375920057296753
0.126226445,0,0,1.9393033981323242,0,0,1.5288000106811523
0.127226227,0,0,2.367865562438965,0,0,0.9937199950218201
0.128227454,0,0,2.032677173614502,0,0,1.8345600366592407
0.129249236,0,0,1.9321208000183105,0,0,0.9937199950218201
0.130228537,0,0,1.8124107122421265,0,0,1.375920057296753
0.131226523,0,0,1.7405846118927002,0,0,1.070159912109375
0.132227583,0,0,1.800439715385437,0,0,1.605239987373352
0.133226365,0,0,1.766920804977417,0,0,1.223039984703064
0.134226184,0,0,2.0614075660705566,0,0,1.605239987373352
0.135226207,0,0,2.0925323963165283,0,0,0.305759996175766
0.136227193,0,0,1.968033790588379,0,0,1.2994799613952637
0.137226235,0,0,2.2218191623687744,0,0,1.375920057296753
0.138226276,0,0,2.0614075660705566,0,0,1.375920057296753
0.139226207,0,0,1.8555063009262085,0,0,1.223039984703064
0.140225359,0,0,1.900996208190918,0,0,1.375920057296753
0.141223549,0,0,1.7357962131500244,0,0,1.375920057296753
0.14222372,0,0,1.7956513166427612,0,0,1.1466000080108643
0.143223465,0,0,1.7310078144073486,0,0,0.9937199950218201
0.144226581,0,0,1.9345149993896484,0,0,1.1466000080108643
0.145226122,0,0,2.0661959648132324,0,0,1.452359914779663
0.146225793,0,0,2.0398597717285156,0,0,0.611519992351532
0.147225279,0,0,1.9584569931030273,0,0,1.223039984703064
0.148226302,0,0,2.2194249629974365,0,0,0.9937199950218201
0.14922601,0,0,1.98958158493042,0,0,1.2994799613952637
0.150225496,0,0,1.9081788063049316,0,0,1.452359914779663
0.151225778,0,0,1.6855180263519287,0,0,1.375920057296753
0.152227153,0,0,1.7525556087493896,0,0,1.1466000080108643
0.153225769,0,0,1.7286136150360107,0,0,1.375920057296753
0.154225847,0,0,1.8986018896102905,0,0,1.070159912109375
0.155225833,0,0,1.941697597503662,0,0,1.452359914779663
0.156226282,0,0,1.968033790588379,0,0,0.611519992351532
0.157225731,0,0,1.867477297782898,0,0,1.223039984703064
0.158225976,0,0,2.1763293743133545,0,0,0.9937199950218201
0.159244999,0,0,1.9967641830444336,0,0,1.2994799613952637
0.160237226,0,0,1.843535304069519,0,0,1.223039984703064
0.161266822,0,0,1.7836803197860718,0,0,1.223039984703064
0.162229087,0,0,1.6927006244659424,0,0,1.5288000106811523
0.16331459,0,0,1.723825216293335,0,0,1.223039984703064
0.164266095,0,0,1.723825216293335,0,0,0.9937199950218201
0.165247063,0,0,1.867477297782898,0,0,1.1466000080108643
0.166421416,0,0,1.968033790588379,0,0,0.9172800183296204
0.167240257,0,0,1.9584569931030273,0,0,1.1466000080108643
0.168232206,0,0,1.9776105880737305,0,0,0.9937199950218201
0.169226284,0,0,2.1092917919158936,0,0,1.223039984703064
0.170226159,0,0,1.8076223134994507,0,0,1.1466000080108643
0.171226108,0,0,1.7573440074920654,0,0,1.1466000080108643
0.172227112,0,0,1.680729627609253,0,0,1.223039984703064
0.173226339,0,0,1.7477672100067139,0,0,1.1466000080108643
0.174226269,0,0,1.623268723487854,0,0,1.1466000080108643
0.175226274,0,0,1.7477672100067139,0,0,1.070159912109375
0.176228204,0,0,1.9249382019042969,0,0,1.5288000106811523
0.177227505,0,0,1.900996208190918,0,0,0.611519992351532
0.178226732,0,0,1.8722656965255737,0,0,1.452359914779663
0.179226366,0,0,2.185906171798706,0,0,1.070159912109375
0.18022737,0,0,1.843535304069519,0,0,1.5288000106811523
0.181226189,0,0,1.745373010635376,0,0,0.8408399820327759
0.182226398,0,0,1.6879122257232666,0,0,1.223039984703064
0.183226272,0,0,1.6089035272598267,0,0,0.9937199950218201
0.184227203,0,0,1.6208745241165161,0,0,1.452359914779663
0.185226318,0,0,1.6041151285171509,0,0,0.6879600286483765
0.18622636,0,0,1.8339585065841675,0,0,1.223039984703064
0.187226179,0,0,1.9273324012756348,0,0,0.5350799560546875
0.188227146,0,0,1.8483237028121948,0,0,0.8408399820327759
0.189226373,0,0,2.054224967956543,0,0,0.9172800183296204
0.190225841,0,0,1.9608511924743652,0,0,1.070159912109375
0.19122616,0,0,1.7549498081207275,0,0,1.070159912109375
0.19222722,0,0,1.7812861204147339,0,0,1.223039984703064
0.193225743,0,0,1.6208745241165161,0,0,1.2994799613952637
0.194226858,0,0,1.6831238269805908,0,0,1.2994799613952637
0.195226252,0,0,1.6663644313812256,0,0,1.2994799613952637
0.196226108,0,0,1.800439715385437,0,0,0.9172800183296204
0.197223501,0,0,1.8555063009262085,0,0,1.758120059967041
0.19822358,0,0,1.8770540952682495,0,0,0.7644000053405762
0.199223566,0,0,1.922544002532959,0,0,1.2994799613952637
0.200224552,0,0,2.1284453868865967,0,0,0.9937199950218201
0.201223889,0,0,1.8770540952682495,0,0,1.1466000080108643
0.202223672,0,0,1.8171991109848022,0,0,1.452359914779663
0.203223639,0,0,1.6927006244659424,0,0,1.375920057296753
0.20422644,0,0,1.7166426181793213,0,0,1.1466000080108643
0.205226277,0,0,1.6615760326385498,0,0,1.223039984703064
0.206225782,0,0,1.644816517829895,0,0,0.8408399820327759
0.207226009,0,0,1.8602946996688843,0,0,0.9937199950218201
0.208226587,0,0,2.011129379272461,0,0,0.3822000026702881
0.209226092,0,0,1.9632453918457031,0,0,1.070159912109375
0.210225948,0,0,2.121262788772583,0,0,1.223039984703064
0.211225693,0,0,1.968033790588379,0,0,1.070159912109375
0.212227383,0,0,1.845929503440857,0,0,1.375920057296753
0.213225646,0,0,1.7381904125213623,0,0,1.1466000080108643
0.214229151,0,0,1.5969325304031372,0,0,1.223039984703064
0.215258155,0,0,1.6424223184585571,0,0,0.9937199950218201
0.21625703,0,0,1.6112977266311646,0,0,1.223039984703064
0.217262034,0,0,1.900996208190918,0,0,1.223039984703064
0.218297168,0,0,1.9632453918457031,0,0,1.223039984703064
0.219329838,0,0,1.9728221893310547,0,0,1.1466000080108643
0.220294306,0,0,1.987187385559082,0,0,1.452359914779663
0.221275126,0,0,2.1140801906585693,0,0,0.8408399820327759
0.222283019,0,0,1.8148049116134644,0,0,1.5288000106811523
0.223297319,0,0,1.8531121015548706,0,0,1.070159912109375
0.224356193,0,0,1.745373010635376,0,0,1.2994799613952637
0.225287347,0,0,1.7405846118927002,0,0,0.9172800183296204
0.226315221,0,0,1.6160861253738403,0,0,1.5288000106811523
0.227314633,0,0,1.7597382068634033,0,0,0.7644000053405762
0.228297397,0,0,2.0159177780151367,0,0,1.2994799613952637
0.22929705,0,0,2.0015525817871094,0,0,0.611519992351532
0.230312369,0,0,2.0159177780151367,0,0,1.070159912109375
0.231341836,0,0,2.188300371170044,0,0,1.2994799613952637
0.232255786,0,0,2.0183119773864746,0,0,1.1466000080108643
0.23326079,0,0,1.8938134908676147,0,0,1.070159912109375
0.23425711,0,0,1.7142484188079834,0,0,1.223039984703064
0.235261799,0,0,1.7262194156646729,0,0,1.2994799613952637
0.23624347,0,0,1.7908629179000854,0,0,1.223039984703064
0.237237271,0,0,1.7573440074920654,0,0,1.070159912109375
0.238237628,0,0,2.0231003761291504,0,0,1.2994799613952637
0.239257595,0,0,1.9943699836730957,0,0,1.1466000080108643
0.240240803,0,0,1.8914192914962769,0,0,1.1466000080108643
0.241249678,0,0,2.075772762298584,0,0,1.2994799613952637
0.242268293,0,0,2.0661959648132324,0,0,1.070159912109375
0.243250724,0,0,1.9249382019042969,0,0,1.452359914779663
0.244253932,0,0,1.8267759084701538,0,0,1.1466000080108643
0.245237418,0,0,1.723825216293335,0,0,1.223039984703064
0.246237182,0,0,1.8124107122421265,0,0,1.1466000080108643
0.247233501,0,0,1.6831238269805908,0,0,1.2994799613952637
0.248235839,0,0,1.900996208190918,0,0,1.070159912109375
0.249234213,0,0,2.0039467811584473,0,0,1.1466000080108643
0.250233996,0,0,1.9584569931030273,0,0,0.8408399820327759
0.251232556,0,0,1.9704279899597168,0,0,1.223039984703064
0.252242597,0,0,2.298433542251587,0,0,1.375920057296753
0.253232046,0,0,2.0039467811584473,0,0,1.452359914779663
0.254236069,0,0,1.8171991109848022,0,0,1.1466000080108643
0.255236388,0,0,1.659181833267212,0,0,1.375920057296753
0.256244059,0,0,1.678335428237915,0,0,1.1466000080108643
0.257259971,0,0,1.6663644313812256,0,0,1.6816799640655518
0.258235494,0,0,1.7166426181793213,0,0,0.8408399820327759
0.259231869,0,0,1.9393033981323242,0,0,1.2994799613952637
0.260242725,0,0,1.9967641830444336,0,0,1.758120059967041
0.26133621,0,0,2.027888774871826,0,0,1.2994799613952637
0.262245808,0,0,2.231395959854126,0,0,1.5288000106811523
0.263244387,0,0,1.968033790588379,0,0,1.1466000080108643
0.264244632,0,0,1.8100165128707886,0,0,1.223039984703064
0.265240044,0,0,1.7980455160140991,0,0,1.6816799640655518
0.26623977,0,0,1.647210717201233,0,0,1.2994799613952637
0.26723733,0,0,1.6974890232086182,0,0,1.223039984703064
0.268237835,0,0,1.6711528301239014,0,0,1.223039984703064
0.269236969,0,0,1.8794482946395874,0,0,1.2994799613952637
0.27026551,0,0,1.8555063009262085,0,0,1.758120059967041
0.271286551,0,0,1.8818424940109253,0,0,0.8408399820327759
0.272247427,0,0,2.0183119773864746,0,0,1.1466000080108643
0.273236487,0,0,2.190694570541382,0,0,0.9937199950218201
0.274250324,0,0,1.86508309841156,0,0,1.2994799613952637
0.275235829,0,0,1.821987509727478,0,0,0.9937199950218201
0.276237907,0,0,1.678335428237915,0,0,1.5288000106811523
0.277241893,0,0,1.7334020137786865,0,0,0.8408399820327759
0.278242379,0,0,1.623268723487854,0,0,1.1466000080108643
0.279242532,0,0,1.6927006244659424,0,0,1.1466000080108643
0.280244295,0,0,1.9033904075622559,0,0,0.9172800183296204
0.281232948,0,0,1.9057846069335938,0,0,1.223039984703064
0.282232934,0,0,1.9105730056762695,0,0,1.223039984703064
0.28323205,0,0,2.2170307636260986,0,0,0.7644000053405762
0.284241128,0,0,2.0422539710998535,0,0,1.223039984703064
0.285235744,0,0,1.8171991109848022,0,0,1.2994799613952637
0.286233007,0,0,1.7094600200653076,0,0,1.2994799613952637
0.287234549,0,0,1.699883222579956,0,0,1.1466000080108643
0.288234794,0,0,1.6615760326385498,0,0,1.223039984703064
0.289255243,0,0,1.5969325304031372,0,0,1.1466000080108643
0.290250284,0,0,1.8195933103561401,0,0,1.223039984703064
0.291313899,0,0,1.9105730056762695,0,0,1.6816799640655518
0.292278182,0,0,1.9273324012756348,0,0,0.9937199950218201
0.293294593,0,0,1.8962076902389526,0,0,1.605239987373352
0.294257876,0,0,2.054224967956543,0,0,1.1466000080108643
0.295284991,0,0,1.8770540952682495,0,0,1.375920057296753
0.296346291,0,0,1.7836803197860718,0,0,0.7644000053405762
0.297315129,0,0,1.6831238269805908,0,0,1.070159912109375
0.298303504,0,0,1.7501614093780518,0,0,1.223039984703064
0.29934773,0,0,1.623268723487854,0,0,1.5288000106811523
0.300273291,0,0,1.7980455160140991,0,0,1.070159912109375
0.301274481,0,0,1.9033904075622559,0,0,0.8408399820327759
0.302302855,0,0,1.941697597503662,0,0,0.305759996175766
0.303308878,0,0,1.9728221893310547,0,0,1.375920057296753
0.304289142,0,0,2.252943754196167,0,0,1.223039984703064
0.305257906,0,0,1.9608511924743652,0,0,1.375920057296753
0.306240763,0,0,1.8291701078414917,0,0,0.9937199950218201
0.307249063,0,0,1.8171991109848022,0,0,1.452359914779663
0.308262919,0,0,1.680729627609253,0,0,0.9937199950218201
0.309282683,0,0,1.625662922859192,0,0,1.070159912109375
0.31027628,0,0,1.6352397203445435,0,0,0.9172800183296204
0.311285358,0,0,1.7956513166427612,0,0,0.9172800183296204
0.312250326,0,0,1.968033790588379,0,0,1.452359914779663
0.313229646,0,0,1.920149803161621,0,0,0.611519992351532
0.314236984,0,0,2.0590133666992188,0,0,0.9172800183296204
0.315244099,0,0,2.03507137298584,0,0,1.223039984703064
0.316233326,0,0,1.7525556087493896,0,0,1.375920057296753
0.31722996,0,0,1.7884687185287476,0,0,1.375920057296753
0.318229001,0,0,1.702277421951294,0,0,1.5288000106811523
0.319227524,0,0,1.6831238269805908,0,0,0.9937199950218201
0.320232881,0,0,1.6041151285171509,0,0,1.375920057296753
0.321228293,0,0,1.8602946996688843,0,0,0.8408399820327759
0.322228556,0,0,1.965639591217041,0,0,0.9172800183296204
0.323226357,0,0,1.900996208190918,0,0,-0.152879998087883
0.324230787,0,0,1.922544002532959,0,0,1.2994799613952637
0.325228384,0,0,2.188300371170044,0,0,1.1466000080108643
0.3262295,0,0,1.8195933103561401,0,0,1.452359914779663
0.327237708,0,0,1.824381709098816,0,0,0.9172800183296204
0.328238472,0,0,1.745373010635376,0,0,1.605239987373352
0.329231624,0,0,1.7549498081207275,0,0,1.375920057296753
0.33023024,0,0,1.702277421951294,0,0,1.375920057296753
0.331229744,0,0,1.7166426181793213,0,0,1.070159912109375
0.332236452,0,0,1.9393033981323242,0,0,1.1466000080108643
0.333232068,0,0,2.0470423698425293,0,0,1.5288000106811523
0.334233202,0,0,1.9728221893310547,0,0,0.6879600286483765
0.335237966,0,0,2.1930887699127197,0,0,0.9172800183296204
0.336262692,0,0,1.9919757843017578,0,0,1.223039984703064
0.337375343,0,0,1.8315643072128296,0,0,1.2994799613952637
0.338288534,0,0,1.7980455160140991,0,0,1.375920057296753
0.339256687,0,0,1.656787633895874,0,0,1.223039984703064
0.34023821,0,0,1.7836803197860718,0,0,0.9172800183296204
0.341223752,0,0,1.7094600200653076,0,0,1.1466000080108643
0.342223849,0,0,1.8770540952682495,0,0,1.223039984703064
0.343223353,0,0,2.0374655723571777,0,0,1.5288000106811523
0.344225524,0,0,1.9776105880737305,0,0,0.2293200045824051
0.345223158,0,0,2.070984363555908,0,0,1.1466000080108643
0.346223478,0,0,2.205059766769409,0,0,0.9937199950218201
0.347223371,0,0,1.8794482946395874,0,0,1.223039984703064
0.348224209,0,0,1.9057846069335938,0,0,0.9937199950218201
0.349223676,0,0,1.8124107122421265,0,0,1.5288000106811523
0.350223162,0,0,1.8124107122421265,0,0,1.223039984703064
0.351223518,0,0,1.7046716213226318,0,0,1.452359914779663
0.352224227,0,0,1.7860745191574097,0,0,1.070159912109375
0.353224083,0,0,2.011129379272461,0,0,1.223039984703064
0.35422355,0,0,2.013523578643799,0,0,1.375920057296753
0.355223481,0,0,1.9728221893310547,0,0,1.1466000080108643
0.356229522,0,0,2.2002713680267334,0,0,1.452359914779663
0.357224767,0,0,1.9297266006469727,0,0,1.2994799613952637
0.358223383,0,0,1.8291701078414917,0,0,1.223039984703064
0.359223628,0,0,1.7741034030914307,0,0,1.1466000080108643
0.360223688,0,0,1.745373010635376,0,0,1.452359914779663
0.361223341,0,0,1.742978811264038,0,0,1.2994799613952637
0.362223308,0,0,1.6615760326385498,0,0,1.070159912109375
0.363223016,0,0,1.9536685943603516,0,0,1.1466000080108643
0.364225909,0,0,2.0901381969451904,0,0,1.2994799613952637
0.365223562,0,0,2.0159177780151367,0,0,0.5350799560546875
0.366223085,0,0,2.164358377456665,0,0,1.1466000080108643
0.367223423,0,0,2.1332337856292725,0,0,0.9172800183296204
0.368224575,0,0,1.8746598958969116,0,0,1.5288000106811523
0.369223654,0,0,1.9536685943603516,0,0,1.223039984703064
0.370223306,0,0,1.7310078144073486,0,0,1.452359914779663
0.371223311,0,0,1.7357962131500244,0,0,1.1466000080108643
0.372228167,0,0,1.6352397203445435,0,0,1.2994799613952637
0.373223468,0,0,1.7836803197860718,0,0,0.9937199950218201
0.374223583,0,0,1.9033904075622559,0,0,0.9172800183296204
0.375304031,0,0,1.98958158493042,0,0,0.611519992351532
0.376277851,0,0,1.946485996246338,0,0,1.070159912109375
0.377327966,0,0,2.231395959854126,0,0,1.070159912109375
0.378265064,0,0,1.9153614044189453,0,0,0.9172800183296204
0.379243161,0,0,1.723825216293335,0,0,0.9937199950218201
0.380259776,0,0,1.6711528301239014,0,0,1.2994799613952637
0.381226874,0,0,1.6519991159439087,0,0,1.223039984703064
0.38222386,0,0,1.6328455209732056,0,0,1.070159912109375
0.383224123,0,0,1.6663644313812256,0,0,1.223039984703064
0.384228369,0,0,1.9177556037902832,0,0,1.1466000080108643
0.385226243,0,0,1.9584569931030273,0,0,1.6816799640655518
0.386225729,0,0,1.9345149993896484,0,0,0.6879600286483765
0.387243085,0,0,2.1811177730560303,0,0,1.375920057296753
0.388289071,0,0,2.0638017654418945,0,0,0.9172800183296204
0.389267575,0,0,1.7405846118927002,0,0,1.070159912109375
0.390253265,0,0,1.7908629179000854,0,0,1.1466000080108643
0.391226548,0,0,1.644816517829895,0,0,1.223039984703064
0.392227923,0,0,1.778891921043396,0,0,1.070159912109375
0.393226334,0,0,1.6903064250946045,0,0,1.070159912109375
0.39422595,0,0,1.7573440074920654,0,0,0.6879600286483765
0.39522801,0,0,1.8531121015548706,0,0,1.070159912109375
0.396225996,0,0,1.9776105880737305,0,0,0.3822000026702881
0.397223352,0,0,1.9991583824157715,0,0,1.070159912109375
0.398223672,0,0,2.1787235736846924,0,0,1.1466000080108643
0.399251453,0,0,1.821987509727478,0,0,1.2994799613952637
0.40025331,0,0,1.7956513166427612,0,0,1.070159912109375
0.401242036,0,0,1.659181833267212,0,0,1.375920057296753
0.402248448,0,0,1.7046716213226318,0,0,1.070159912109375
0.403245045,0,0,1.5945383310317993,0,0,0.9172800183296204
0.404248142,0,0,1.680729627609253,0,0,0.8408399820327759
0.405254369,0,0,1.900996208190918,0,0,0.9172800183296204
0.406245947,0,0,1.9728221893310547,0,0,1.6816799640655518
0.407242137,0,0,1.9608511924743652,0,0,0.9172800183296204
0.409345756,0,0,2.1332337856292725,0,0,1.375920057296753
0.409541605,0,0,1.9560627937316895,0,0,0.7644000053405762
0.410239651,0,0,1.8100165128707886,0,0,1.223039984703064
0.411238118,0,0,1.7501614093780518,0,0,1.1466000080108643
0.412240159,0,0,1.6112977266311646,0,0,1.2994799613952637
0.413224608,0,0,1.7046716213226318,0,0,0.9172800183296204
0.414223668,0,0,1.6304513216018677,0,0,1.2994799613952637
0.415223395,0,0,1.8746598958969116,0,0,1.070159912109375
0.416562636,0,0,1.920149803161621,0,0,1.1466000080108643
0.417249904,0,0,1.9057846069335938,0,0,0.3822000026702881
0.418228723,0,0,1.8842366933822632,0,0,1.070159912109375
0.419267172,0,0,2.070984363555908,0,0,1.1466000080108643
0.420225047,0,0,1.886630892753601,0,0,1.452359914779663
0.421222718,0,0,1.8148049116134644,0,0,0.9937199950218201
0.42222226,0,0,1.625662922859192,0,0,1.1466000080108643
0.423222431,0,0,1.6424223184585571,0,0,1.223039984703064
0.424224657,0,0,1.556231141090393,0,0,1.5288000106811523
0.425222643,0,0,1.6927006244659424,0,0,0.9172800183296204
0.426222277,0,0,1.8914192914962769,0,0,1.223039984703064
0.427221911,0,0,2.0254945755004883,0,0,1.9874399900436401
0.428223157,0,0,1.9800047874450684,0,0,1.1466000080108643
0.429222365,0,0,2.166752576828003,0,0,1.2994799613952637
0.430222073,0,0,1.9081788063049316,0,0,0.9172800183296204
0.431222318,0,0,1.7908629179000854,0,0,1.452359914779663
0.432222822,0,0,1.7597382068634033,0,0,1.223039984703064
0.433222308,0,0,1.6136919260025024,0,0,1.452359914779663
0.434222109,0,0,1.599326729774475,0,0,1.070159912109375
0.435222114,0,0,1.6065093278884888,0,0,1.223039984703064
0.43622247,0,0,1.8938134908676147,0,0,1.070159912109375
0.437222271,0,0,1.9249382019042969,0,0,1.2994799613952637
0.43822222,0,0,1.9081788063049316,0,0,0.2293200045824051
0.439221946,0,0,2.0853497982025146,0,0,0.9937199950218201
0.440222191,0,0,2.0661959648132324,0,0,1.375920057296753
0.441222085,0,0,1.8507179021835327,0,0,1.375920057296753
0.442222034,0,0,1.9177556037902832,0,0,0.9937199950218201
0.443234779,0,0,1.7190368175506592,0,0,1.605239987373352
0.444223857,0,0,1.745373010635376,0,0,1.223039984703064
0.445222139,0,0,1.644816517829895,0,0,1.1466000080108643
0.446222459,0,0,1.886630892753601,0,0,1.2994799613952637
0.447222037,0,0,1.987187385559082,0,0,0.9937199950218201
0.448222894,0,0,2.006340980529785,0,0,1.1466000080108643
0.449221787,0,0,1.9393033981323242,0,0,1.2994799613952637
0.450222421,0,0,2.161964178085327,0,0,1.2994799613952637
0.451221999,0,0,1.920149803161621,0,0,1.070159912109375
0.45222593,0,0,1.8794482946395874,0,0,1.223039984703064
0.453224731,0,0,1.7310078144073486,0,0,1.5288000106811523
0.454224809,0,0,1.723825216293335,0,0,1.223039984703064
0.455224462,0,0,1.745373010635376,0,0,1.070159912109375
0.456224022,0,0,1.680729627609253,0,0,1.2994799613952637
0.457223971,0,0,1.8842366933822632,0,0,1.375920057296753
0.45823229,0,0,2.006340980529785,0,0,1.605239987373352
0.459233294,0,0,2.0398597717285156,0,0,0.9172800183296204
0.460226447,0,0,2.140416383743286,0,0,1.223039984703064
0.461225488,0,0,2.118868589401245,0,0,1.2994799613952637
0.462229196,0,0,1.845929503440857,0,0,1.375920057296753
0.463225256,0,0,1.821987509727478,0,0,1.1466000080108643
0.464226816,0,0,1.7142484188079834,0,0,1.223039984703064
0.465224932,0,0,1.7693150043487549,0,0,1.223039984703064
0.46622477,0,0,1.6855180263519287,0,0,1.1466000080108643
0.467224441,0,0,1.9177556037902832,0,0,0.8408399820327759
0.468226149,0,0,2.013523578643799,0,0,1.223039984703064
0.469224968,0,0,2.049436569213867,0,0,0.9172800183296204
0.470224695,0,0,2.0374655723571777,0,0,1.1466000080108643
0.471228866,0,0,2.2601263523101807,0,0,0.9937199950218201
0.472225333,0,0,1.944091796875,0,0,1.375920057296753
0.473222505,0,0,1.8124107122421265,0,0,1.5288000106811523
0.474222509,0,0,1.7405846118927002,0,0,1.5288000106811523
0.475222217,0,0,1.7693150043487549,0,0,1.1466000080108643
0.476225481,0,0,1.7046716213226318,0,0,1.223039984703064
0.477225022,0,0,1.7980455160140991,0,0,1.1466000080108643
0.478224545,0,0,1.9297266006469727,0,0,1.070159912109375
0.479224624,0,0,2.006340980529785,0,0,2.2167599201202393
0.480225573,0,0,1.941697597503662,0,0,0.6879600286483765
0.481224614,0,0,2.2433669567108154,0,0,1.375920057296753
0.482224396,0,0,1.965639591217041,0,0,1.070159912109375
0.48322453,0,0,1.7597382068634033,0,0,1.452359914779663
0.484225442,0,0,1.824381709098816,0,0,1.2994799613952637
0.485224762,0,0,1.7884687185287476,0,0,1.375920057296753
0.486224581,0,0,1.7932571172714233,0,0,0.9937199950218201
0.487224659,0,0,1.6352397203445435,0,0,1.452359914779663
0.488225719,0,0,1.8746598958969116,0,0,1.223039984703064
0.489226316,0,0,2.013523578643799,0,0,0.8408399820327759
0.49022458,0,0,1.946485996246338,0,0,0.8408399820327759
0.49122451,0,0,1.968033790588379,0,0,1.070159912109375
0.492224404,0,0,2.1140801906585693,0,0,1.1466000080108643
0.49322463,0,0,1.9105730056762695,0,0,0.9172800183296204
0.494224561,0,0,1.8339585065841675,0,0,0.9172800183296204
0.495224639,0,0,1.766920804977417,0,0,1.452359914779663
0.49623207,0,0,1.8100165128707886,0,0,1.375920057296753
0.497222907,0,0,1.6615760326385498,0,0,1.1466000080108643
0.498222264,0,0,1.6879122257232666,0,0,1.070159912109375
0.49922199,0,0,1.8363527059555054,0,0,1.1466000080108643
0.500226013,0,0,1.7573440074920654,0,0,1.8345600366592407
0.505947062,0,0,1.7357962131500244,0,0,1.223039984703064
0.506130949,0,0,1.7357962131500244,0,0,1.223039984703064
0.506292354,0,0,1.7357962131500244,0,0,1.223039984703064
0.506453555,0,0,1.7357962131500244,0,0,0.305759996175766
0.506614571,0,0,1.7357962131500244,0,0,0.305759996175766
0.506775477,0,0,1.6496049165725708,0,0,1.375920057296753
0.507229581,0,0,1.7166426181793213,0,0,0.8408399820327759
0.508245086,0,0,1.6328455209732056,0,0,1.2994799613952637
0.509248571,0,0,1.8171991109848022,0,0,0.9172800183296204
0.510235317,0,0,1.8770540952682495,0,0,0.9937199950218201
0.511222358,0,0,1.9057846069335938,0,0,0.5350799560546875
0.51225814,0,0,1.9584569931030273,0,0,1.223039984703064
0.513293237,0,0,2.0039467811584473,0,0,1.223039984703064
0.51425476,0,0,1.7860745191574097,0,0,1.375920057296753
0.515252339,0,0,1.7908629179000854,0,0,1.223039984703064
0.516224066,0,0,1.6687586307525635,0,0,1.375920057296753
0.517222348,0,0,1.7477672100067139,0,0,1.2994799613952637
0.518222075,0,0,1.6136919260025024,0,0,1.375920057296753
0.519222042,0,0,1.7549498081207275,0,0,0.9172800183296204
0.520223028,0,0,1.9321208000183105,0,0,0.9937199950218201
0.52122194,0,0,1.920149803161621,0,0,1.452359914779663
0.522222222,0,0,1.8938134908676147,0,0,1.1466000080108643
0.523222041,0,0,2.205059766769409,0,0,1.223039984703064
0.524223435,0,0,1.9129672050476074,0,0,0.9172800183296204
0.525222402,0,0,1.8148049116134644,0,0,1.375920057296753
0.526222073,0,0,1.6927006244659424,0,0,1.375920057296753
0.527221985,0,0,1.6136919260025024,0,0,1.070159912109375
0.52822273,0,0,1.647210717201233,0,0,0.6879600286483765
0.529222309,0,0,1.601720929145813,0,0,1.223039984703064
0.530222202,0,0,1.8195933103561401,0,0,0.9937199950218201
0.531222003,0,0,1.8698714971542358,0,0,1.070159912109375
0.532223304,0,0,1.8124107122421265,0,0,0.305759996175766
0.533222252,0,0,2.032677173614502,0,0,1.223039984703064
0.534222127,0,0,1.9752163887023926,0,0,1.223039984703064
0.535221706,0,0,1.8195933103561401,0,0,0.9172800183296204
0.536225636,0,0,1.7741034030914307,0,0,0.8408399820327759
0.537224844,0,0,1.702277421951294,0,0,1.5288000106811523
0.538224923,0,0,1.7286136150360107,0,0,0.9937199950218201
0.53922489,0,0,1.6089035272598267,0,0,1.2994799613952637
0.540224839,0,0,1.7860745191574097,0,0,0.7644000053405762
0.541224973,0,0,1.9057846069335938,0,0,1.223039984703064
0.542224848,0,0,1.9153614044189453,0,0,1.2994799613952637
0.543224797,0,0,1.9321208000183105,0,0,1.223039984703064
0.544223505,0,0,2.2170307636260986,0,0,1.6816799640655518
0.545222102,0,0,1.9249382019042969,0,0,0.6879600286483765
0.546222255,0,0,1.8531121015548706,0,0,1.2994799613952637
0.547222074,0,0,1.6376339197158813,0,0,1.452359914779663
0.548225115,0,0,1.6903064250946045,0,0,1.1466000080108643
0.549224768,0,0,1.742978811264038,0,0,1.1466000080108643
0.550224532,0,0,1.745373010635376,0,0,1.070159912109375
0.551224721,0,0,2.008735179901123,0,0,1.070159912109375
0.552224633,0,0,2.070984363555908,0,0,1.9109998941421509
0.55322423,0,0,1.920149803161621,0,0,0.7644000053405762
0.554224549,0,0,2.161964178085327,0,0,1.223039984703064
0.555224517,0,0,1.9728221893310547,0,0,1.375920057296753
0.556224743,0,0,1.7812861204147339,0,0,1.2994799613952637
0.557224118,0,0,1.8602946996688843,0,0,1.070159912109375
0.558224419,0,0,1.7573440074920654,0,0,1.375920057296753
0.559228146,0,0,1.8531121015548706,0,0,0.9172800183296204
0.560226409,0,0,1.699883222579956,0,0,1.375920057296753
0.561224636,0,0,1.9129672050476074,0,0,0.7644000053405762
0.562224677,0,0,1.9847931861877441,0,0,0.9937199950218201
0.563224515,0,0,1.965639591217041,0,0,1.223039984703064
0.564225223,0,0,1.98958158493042,0,0,0.8408399820327759
0.565224191,0,0,2.145204782485962,0,0,1.1466000080108643
0.566779891,0,0,1.9321208000183105,0,0,0.9172800183296204
0.567223718,0,0,1.9297266006469727,0,0,1.375920057296753
0.568222389,0,0,1.7764976024627686,0,0,1.452359914779663
0.569222227,0,0,1.7334020137786865,0,0,1.1466000080108643
0.570222065,0,0,1.702277421951294,0,0,1.375920057296753
0.57122181,0,0,1.7525556087493896,0,0,1.452359914779663
0.572222296,0,0,1.9967641830444336,0,0,1.223039984703064
0.573222097,0,0,2.0422539710998535,0,0,1.9874399900436401
0.574222046,0,0,1.9800047874450684,0,0,0.5350799560546875
0.575221439,0,0,2.279279947280884,0,0,1.5288000106811523
0.576222925,0,0,1.9608511924743652,0,0,1.070159912109375
0.577222207,0,0,1.9081788063049316,0,0,1.375920057296753
0.578221563,0,0,1.8986018896102905,0,0,1.375920057296753
0.579221679,0,0,1.6208745241165161,0,0,1.070159912109375
0.580226035,0,0,1.6496049165725708,0,0,0.9172800183296204
0.581224799,0,0,1.647210717201233,0,0,1.1466000080108643
0.582224692,0,0,1.8602946996688843,0,0,0.9172800183296204
0.583224826,0,0,1.9488801956176758,0,0,1.1466000080108643
0.584228831,0,0,1.9847931861877441,0,0,0.8408399820327759
0.58522478,0,0,2.0470423698425293,0,0,1.223039984703064
0.586224766,0,0,2.1164743900299072,0,0,1.375920057296753
0.587224326,0,0,1.8363527059555054,0,0,0.9172800183296204
0.588226126,0,0,1.7836803197860718,0,0,1.223039984703064
0.589224446,0,0,1.6950948238372803,0,0,1.5288000106811523
0.590224524,0,0,1.8052281141281128,0,0,1.070159912109375
0.591224436,0,0,1.6903064250946045,0,0,1.2994799613952637
0.592225329,0,0,1.821987509727478,0,0,1.070159912109375
0.593224241,0,0,1.9369091987609863,0,0,0.9937199950218201
0.594224764,0,0,2.0207061767578125,0,0,1.5288000106811523
0.595224509,0,0,1.9752163887023926,0,0,0.611519992351532
0.596234032,0,0,2.1978771686553955,0,0,1.2994799613952637
0.597225518,0,0,2.0254945755004883,0,0,1.1466000080108643
0.598225023,0,0,1.821987509727478,0,0,1.452359914779663
0.599224712,0,0,1.821987509727478,0,0,1.223039984703064
0.600178939,0,0,1.7860745191574097,0,0,1.5288000106811523
0.601224462,0,0,1.6950948238372803,0,0,1.070159912109375
0.602224522,0,0,1.7166426181793213,0,0,1.452359914779663
0.603224693,0,0,1.7166426181793213,0,0,0.8408399820327759
0.604225308,0,0,1.9153614044189453,0,0,1.070159912109375
0.60522435,0,0,1.9943699836730957,0,0,0.152879998087883
0.606224354,0,0,1.9584569931030273,0,0,0.9937199950218201
0.607224414,0,0,2.1356279850006104,0,0,1.5288000106811523
0.608225752,0,0,2.0422539710998535,0,0,0.9937199950218201
0.609224386,0,0,1.702277421951294,0,0,1.223039984703064
0.610224446,0,0,1.742978811264038,0,0,1.1466000080108643
0.611224339,0,0,1.5969325304031372,0,0,1.223039984703064
0.612225566,0,0,1.766920804977417,0,0,1.375920057296753
0.613224571,0,0,1.6759412288665771,0,0,0.611519992351532
0.614224501,0,0,1.7884687185287476,0,0,1.2994799613952637
0.615224617,0,0,1.9560627937316895,0,0,1.758120059967041
0.616225454,0,0,1.9608511924743652,0,0,0.6879600286483765
0.617224385,0,0,1.9512743949890137,0,0,1.223039984703064
0.618224093,0,0,2.145204782485962,0,0,0.9937199950218201
0.619224412,0,0,1.9177556037902832,0,0,1.5288000106811523
0.620225768,0,0,1.8171991109848022,0,0,1.223039984703064
0.621223884,0,0,1.678335428237915,0,0,1.5288000106811523
0.622224036,0,0,1.659181833267212,0,0,1.223039984703064
0.623224541,0,0,1.599326729774475,0,0,1.452359914779663
0.624225638,0,0,1.6160861253738403,0,0,1.1466000080108643
0.625224402,0,0,1.886630892753601,0,0,1.5288000106811523
0.626224554,0,0,2.030282974243164,0,0,0
0.627224318,0,0,1.8722656965255737,0,0,1.223039984703064
0.6282266,0,0,2.123656988143921,0,0,1.070159912109375
0.629224845,0,0,1.98958158493042,0,0,1.1466000080108643
0.630224294,0,0,1.7860745191574097,0,0,1.070159912109375
0.631359297,0,0,1.7860745191574097,0,0,1.1466000080108643
0.632280136,0,0,1.6927006244659424,0,0,1.070159912109375
0.633266214,0,0,1.6927006244659424,0,0,1.452359914779663
0.634264756,0,0,1.6400281190872192,0,0,0.7644000053405762
0.635239909,0,0,1.8818424940109253,0,0,1.375920057296753
0.63623295,0,0,1.9033904075622559,0,0,1.1466000080108643
0.637225529,0,0,1.9057846069335938,0,0,1.223039984703064
0.638225422,0,0,2.027888774871826,0,0,1.1466000080108643
0.639225056,0,0,2.10210919380188,0,0,0.9172800183296204
0.640225913,0,0,1.8267759084701538,0,0,1.223039984703064
0.641225084,0,0,1.800439715385437,0,0,1.070159912109375
0.642225088,0,0,1.702277421951294,0,0,1.452359914779663
0.643224704,0,0,1.644816517829895,0,0,1.2994799613952637
0.644225986,0,0,1.5538369417190552,0,0,1.1466000080108643
0.645225009,0,0,1.7501614093780518,0,0,1.070159912109375
0.646225069,0,0,1.9297266006469727,0,0,1.452359914779663
0.647224814,0,0,2.0159177780151367,0,0,0.6879600286483765
0.648225874,0,0,2.0446481704711914,0,0,1.2994799613952637
0.64922486,0,0,2.2433669567108154,0,0,0.9172800183296204
0.650236587,0,0,2.006340980529785,0,0,1.452359914779663
0.651225573,0,0,1.8195933103561401,0,0,1.1466000080108643
0.652225892,0,0,1.7908629179000854,0,0,1.2994799613952637
0.653225137,0,0,1.6543933153152466,0,0,1.223039984703064
0.65422479,0,0,1.6519991159439087,0,0,1.223039984703064
0.655224868,0,0,1.6735470294952393,0,0,0.9172800183296204
0.656225891,0,0,1.9393033981323242,0,0,0.9172800183296204
0.657225007,0,0,1.941697597503662,0,0,0.9172800183296204
0.658224826,0,0,2.006340980529785,0,0,1.2994799613952637
0.659225182,0,0,2.011129379272461,0,0,1.070159912109375
0.660225909,0,0,2.0159177780151367,0,0,1.070159912109375
0.661224524,0,0,1.8626888990402222,0,0,1.375920057296753
0.662224807,0,0,1.8602946996688843,0,0,0.9172800183296204
0.663225126,0,0,1.6519991159439087,0,0,1.1466000080108643
0.664225908,0,0,1.7405846118927002,0,0,1.375920057296753
0.665224487,0,0,1.6543933153152466,0,0,0.9937199950218201
0.666224936,0,0,1.7908629179000854,0,0,1.223039984703064
0.667225033,0,0,1.920149803161621,0,0,1.605239987373352
0.668224481,0,0,1.9847931861877441,0,0,0.7644000053405762
0.669222375,0,0,1.900996208190918,0,0,1.375920057296753
0.670222157,0,0,2.1930887699127197,0,0,1.223039984703064
0.671222384,0,0,1.9512743949890137,0,0,1.375920057296753
0.672225333,0,0,1.7980455160140991,0,0,1.070159912109375
0.673224559,0,0,1.723825216293335,0,0,1.2994799613952637
0.674224638,0,0,1.6065093278884888,0,0,1.223039984703064
0.67522455,0,0,1.6496049165725708,0,0,1.452359914779663
0.676224758,0,0,1.6184803247451782,0,0,0.7644000053405762
0.677224484,0,0,1.9369091987609863,0,0,1.070159912109375
0.678224544,0,0,1.9847931861877441,0,0,0.6879600286483765
0.679224364,0,0,1.9249382019042969,0,0,1.223039984703064
0.680224757,0,0,2.185906171798706,0,0,1.1466000080108643
0.681224613,0,0,2.030282974243164,0,0,1.1466000080108643
0.682229229,0,0,1.778891921043396,0,0,1.223039984703064
0.683224215,0,0,1.7980455160140991,0,0,0.9937199950218201
0.684226052,0,0,1.656787633895874,0,0,1.2994799613952637
0.685224613,0,0,1.7310078144073486,0,0,1.2994799613952637
0.686241469,0,0,1.623268723487854,0,0,0.9172800183296204
0.687243232,0,0,1.8267759084701538,0,0,1.375920057296753
0.688223626,0,0,1.9129672050476074,0,0,1.452359914779663
0.689224982,0,0,1.965639591217041,0,0,0.8408399820327759
0.690223024,0,0,1.9345149993896484,0,0,1.6816799640655518
0.691222195,0,0,2.1787235736846924,0,0,1.070159912109375
0.692222773,0,0,1.9967641830444336,0,0,1.375920057296753
0.693222,0,0,1.7932571172714233,0,0,1.2994799613952637
0.694222078,0,0,1.7525556087493896,0,0,0.9937199950218201
0.69522199,0,0,1.7980455160140991,0,0,1.1466000080108643
0.696230346,0,0,1.6400281190872192,0,0,1.1466000080108643
0.697222981,0,0,1.6759412288665771,0,0,0.9937199950218201
0.698222263,0,0,1.8818424940109253,0,0,1.070159912109375
0.699222119,0,0,1.9632453918457031,0,0,0.5350799560546875
0.700223272,0,0,1.941697597503662,0,0,1.223039984703064
0.701222332,0,0,2.1595699787139893,0,0,0.8408399820327759
0.702222503,0,0,2.011129379272461,0,0,0.9937199950218201
0.703222248,0,0,1.8746598958969116,0,0,1.1466000080108643
0.704226012,0,0,1.742978811264038,0,0,1.5288000106811523
0.705225035,0,0,1.721431016921997,0,0,1.6816799640655518
0.706225391,0,0,1.745373010635376,0,0,1.070159912109375
0.707224581,0,0,1.6424223184585571,0,0,0.9937199950218201
0.7082244,0,0,1.8746598958969116,0,0,1.1466000080108643
0.709224626,0,0,1.9632453918457031,0,0,1.8345600366592407
0.710224353,0,0,1.944091796875,0,0,0.6879600286483765
0.711224265,0,0,1.9345149993896484,0,0,1.375920057296753
0.712225825,0,0,2.094926595687866,0,0,1.1466000080108643
0.713224644,0,0,1.9153614044189453,0,0,1.5288000106811523
0.714224612,0,0,1.8267759084701538,0,0,1.375920057296753
0.715224301,0,0,1.6328455209732056,0,0,1.070159912109375
0.716225732,0,0,1.7094600200653076,0,0,1.223039984703064
0.717224551,0,0,1.6280571222305298,0,0,1.1466000080108643
0.718224555,0,0,1.6974890232086182,0,0,1.070159912109375
0.719224597,0,0,1.802833914756775,0,0,1.1466000080108643
0.720225379,0,0,1.8986018896102905,0,0,0.2293200045824051
0.721224309,0,0,1.8986018896102905,0,0,1.1466000080108643
0.722224573,0,0,2.1475989818573,0,0,0.8408399820327759
0.723224522,0,0,1.941697597503662,0,0,1.1466000080108643
0.724225434,0,0,1.8267759084701538,0,0,1.070159912109375
0.725224475,0,0,1.8052281141281128,0,0,1.223039984703064
0.726224239,0,0,1.6974890232086182,0,0,1.375920057296753
0.727224466,0,0,1.659181833267212,0,0,1.223039984703064
0.728225618,0,0,1.6831238269805908,0,0,0.9172800183296204
0.729223975,0,0,1.9393033981323242,0,0,1.070159912109375
0.730224053,0,0,2.027888774871826,0,0,1.605239987373352
0.731224761,0,0,1.9991583824157715,0,0,0.7644000053405762
0.732226377,0,0,2.049436569213867,0,0,1.2994799613952637
0.733224622,0,0,2.097320795059204,0,0,0.9937199950218201
0.73422446,0,0,1.8100165128707886,0,0,1.2994799613952637
0.735224723,0,0,1.8387469053268433,0,0,0.9172800183296204
0.736225395,0,0,1.6855180263519287,0,0,1.1466000080108643
0.73722464,0,0,1.7405846118927002,0,0,0.9937199950218201
0.738224459,0,0,1.6831238269805908,0,0,1.223039984703064
0.7392245,0,0,1.821987509727478,0,0,1.070159912109375
0.740225653,0,0,1.9177556037902832,0,0,1.1466000080108643
0.741224602,0,0,1.9632453918457031,0,0,0.4586400091648102
0.742231625,0,0,1.8842366933822632,0,0,1.1466000080108643
0.743225314,0,0,2.049436569213867,0,0,1.2994799613952637
0.744225726,0,0,1.821987509727478,0,0,1.1466000080108643
0.745224805,0,0,1.7908629179000854,0,0,1.2994799613952637
0.746224439,0,0,1.7860745191574097,0,0,1.452359914779663
0.747224443,0,0,1.625662922859192,0,0,1.6816799640655518
0.748225059,0,0,1.6304513216018677,0,0,1.223039984703064
0.749224434,0,0,1.6112977266311646,0,0,0.8408399820327759
0.750224679,0,0,1.821987509727478,0,0,1.223039984703064
0.751224183,0,0,1.922544002532959,0,0,1.223039984703064
0.752225595,0,0,1.9776105880737305,0,0,1.1466000080108643
0.753224489,0,0,2.094926595687866,0,0,1.1466000080108643
0.754224456,0,0,2.0829553604125977,0,0,1.070159912109375
0.75522459,0,0,1.8746598958969116,0,0,1.2994799613952637
0.756225428,0,0,1.721431016921997,0,0,1.070159912109375
0.757234988,0,0,1.5322890281677246,0,0,1.2994799613952637
0.758224826,0,0,1.6663644313812256,0,0,0.9937199950218201
0.759224682,0,0,1.6208745241165161,0,0,1.070159912109375
0.760225742,0,0,1.8363527059555054,0,0,1.1466000080108643
0.761224487,0,0,1.8411411046981812,0,0,1.9109998941421509
0.762224658,0,0,1.8986018896102905,0,0,0.5350799560546875
0.763233737,0,0,1.9321208000183105,0,0,1.223039984703064
0.764261018,0,0,2.10210919380188,0,0,1.1466000080108643
0.7663326,0,0,1.7836803197860718,0,0,1.1466000080108643
0.766539875,0,0,1.7836803197860718,0,0,1.223039984703064
0.767265384,0,0,1.7094600200653076,0,0,1.070159912109375
0.76827298,0,0,1.6639702320098877,0,0,0.9937199950218201
0.770355359,0,0,1.6352397203445435,0,0,1.452359914779663
0.770562893,0,0,1.6352397203445435,0,0,0.9937199950218201
0.771265346,0,0,1.965639591217041,0,0,0.9172800183296204
0.775156976,0,0,2.145204782485962,0,0,0.9937199950218201
0.775378936,0,0,2.145204782485962,0,0,0.2293200045824051
0.775543471,0,0,2.049436569213867,0,0,0.2293200045824051
0.775705468,0,0,2.049436569213867,0,0,1.2994799613952637
0.776334848,0,0,1.8818424940109253,0,0,1.223039984703064
0.777315112,0,0,1.7812861204147339,0,0,1.452359914779663
0.779398768,0,0,1.766920804977417,0,0,1.452359914779663
0.779573377,0,0,1.766920804977417,0,0,1.070159912109375
0.780241219,0,0,1.6519991159439087,0,0,0.9937199950218201
0.781241631,0,0,1.8842366933822632,0,0,1.223039984703064
0.782261358,0,0,2.0422539710998535,0,0,1.9109998941421509
0.783235862,0,0,2.0446481704711914,0,0,1.070159912109375
0.784246663,0,0,2.0207061767578125,0,0,1.375920057296753
0.785240853,0,0,2.0901381969451904,0,0,0.8408399820327759
0.786388892,0,0,1.8794482946395874,0,0,1.375920057296753
0.787245621,0,0,1.8818424940109253,0,0,1.605239987373352
0.788234885,0,0,1.778891921043396,0,0,1.1466000080108643
0.789228204,0,0,1.8579005002975464,0,0,1.2994799613952637
0.790226005,0,0,1.7764976024627686,0,0,1.375920057296753
0.791227213,0,0,1.7884687185287476,0,0,1.070159912109375
0.79222881,0,0,1.922544002532959,0,0,1.2994799613952637
0.79322687,0,0,1.98958158493042,0,0,0.611519992351532
0.794227893,0,0,1.9728221893310547,0,0,1.1466000080108643
0.795225916,0,0,2.276885747909546,0,0,0.9172800183296204
0.796236457,0,0,2.073378562927246,0,0,0.9937199950218201
0.797227851,0,0,1.8818424940109253,0,0,1.223039984703064
0.798227355,0,0,1.7573440074920654,0,0,1.452359914779663
0.799230082,0,0,1.623268723487854,0,0,1.375920057296753
0.800231364,0,0,1.656787633895874,0,0,1.223039984703064
0.801226924,0,0,1.680729627609253,0,0,0.8408399820327759
0.802226965,0,0,1.944091796875,0,0,0.9937199950218201
0.803443967,0,0,2.0207061767578125,0,0,1.9109998941421509
0.804275159,0,0,1.9943699836730957,0,0,1.070159912109375
0.80527233,0,0,2.054224967956543,0,0,1.452359914779663
0.806835326,0,0,2.1763293743133545,0,0,1.1466000080108643
0.807272357,0,0,1.9057846069335938,0,0,1.452359914779663
0.808268732,0,0,1.9033904075622559,0,0,0.9937199950218201
0.809252848,0,0,1.7046716213226318,0,0,1.223039984703064
0.810298667,0,0,1.7357962131500244,0,0,0.9937199950218201
0.811274764,0,0,1.6879122257232666,0,0,1.375920057296753
0.812267972,0,0,1.7717092037200928,0,0,1.223039984703064
0.81331468,0,0,1.8818424940109253,0,0,1.070159912109375
0.814282425,0,0,1.8986018896102905,0,0,0.5350799560546875
0.815284893,0,0,1.8770540952682495,0,0,1.070159912109375
0.816259453,0,0,2.231395959854126,0,0,1.1466000080108643
0.817271254,0,0,2.070984363555908,0,0,1.1466000080108643
0.818276702,0,0,1.8602946996688843,0,0,1.1466000080108643
0.819271874,0,0,1.7908629179000854,0,0,1.375920057296753
0.820248508,0,0,1.6759412288665771,0,0,1.6816799640655518
0.821279382,0,0,1.6160861253738403,0,0,1.1466000080108643
0.82226635,0,0,1.6759412288665771,0,0,0.9937199950218201
0.82326204,0,0,1.9177556037902832,0,0,1.2994799613952637
0.824280433,0,0,1.9991583824157715,0,0,1.9874399900436401
0.825263271,0,0,1.9823989868164063,0,0,1.070159912109375
0.826257868,0,0,2.094926595687866,0,0,1.1466000080108643
0.82725315,0,0,2.075772762298584,0,0,1.1466000080108643
0.828248081,0,0,1.8555063009262085,0,0,1.1466000080108643
0.829266826,0,0,1.8291701078414917,0,0,0.9172800183296204
0.830262163,0,0,1.7812861204147339,0,0,1.223039984703064
0.831237687,0,0,1.8124107122421265,0,0,0.9172800183296204
0.832228006,0,0,1.7046716213226318,0,0,1.223039984703064
0.833224214,0,0,1.7190368175506592,0,0,0.9937199950218201
0.834223959,0,0,1.886630892753601,0,0,1.1466000080108643
0.835223464,0,0,1.9105730056762695,0,0,0.5350799560546875
0.836224413,0,0,1.8962076902389526,0,0,0.9172800183296204
0.837223491,0,0,2.094926595687866,0,0,0.8408399820327759
0.838223125,0,0,1.8507179021835327,0,0,1.1466000080108643
0.83922363,0,0,1.824381709098816,0,0,1.070159912109375
0.840224616,0,0,1.6974890232086182,0,0,1.375920057296753
0.841222917,0,0,1.723825216293335,0,0,1.375920057296753
0.842223662,0,0,1.6879122257232666,0,0,1.1466000080108643
0.843223555,0,0,1.6352397203445435,0,0,1.070159912109375
0.844224708,0,0,1.8411411046981812,0,0,1.070159912109375
0.845223694,0,0,1.920149803161621,0,0,0.9937199950218201
0.846223531,0,0,1.8555063009262085,0,0,0.9937199950218201
0.847223443,0,0,2.0470423698425293,0,0,1.223039984703064
0.84822404,0,0,1.98958158493042,0,0,0.8408399820327759
0.849223119,0,0,1.7836803197860718,0,0,1.375920057296753
0.850223327,0,0,1.7860745191574097,0,0,1.070159912109375
0.851223442,0,0,1.6160861253738403,0,0,1.223039984703064
0.852224762,0,0,1.647210717201233,0,0,1.070159912109375
0.853223544,0,0,1.6424223184585571,0,0,1.452359914779663
0.854223493,0,0,1.7357962131500244,0,0,1.070159912109375
0.855223386,0,0,1.8507179021835327,0,0,0.8408399820327759
0.856224131,0,0,1.9321208000183105,0,0,0.4586400091648102
0.857223562,0,0,1.922544002532959,0,0,1.1466000080108643
0.858223566,0,0,2.1547815799713135,0,0,1.1466000080108643
0.859223034,0,0,1.9129672050476074,0,0,1.223039984703064
0.860228371,0,0,1.845929503440857,0,0,1.1466000080108643
0.861226283,0,0,1.7812861204147339,0,0,1.375920057296753
0.862225899,0,0,1.678335428237915,0,0,1.2994799613952637
0.863225236,0,0,1.6950948238372803,0,0,0.9172800183296204
0.86422637,0,0,1.6543933153152466,0,0,0.9937199950218201
0.865228393,0,0,1.8507179021835327,0,0,0.8408399820327759
0.866226157,0,0,2.0015525817871094,0,0,0.5350799560546875
0.867226032,0,0,1.9033904075622559,0,0,0.9937199950218201
0.868226296,0,0,2.207453966140747,0,0,1.1466000080108643
0.869225522,0,0,1.9393033981323242,0,0,0.9172800183296204
0.87022599,0,0,1.7836803197860718,0,0,1.223039984703064
0.871225809,0,0,1.7310078144073486,0,0,1.1466000080108643
0.872227406,0,0,1.6831238269805908,0,0,1.223039984703064
0.873225855,0,0,1.6615760326385498,0,0,0.9937199950218201
0.874225896,0,0,1.5825673341751099,0,0,1.1466000080108643
0.875225845,0,0,1.941697597503662,0,0,1.1466000080108643
0.876226479,0,0,2.073378562927246,0,0,1.605239987373352
0.877427444,0,0,2.0039467811584473,0,0,0.611519992351532
0.878227359,0,0,1.900996208190918,0,0,1.1466000080108643
0.879266122,0,0,2.0829553604125977,0,0,1.1466000080108643
0.880232886,0,0,1.8938134908676147,0,0,1.2994799613952637
0.881226335,0,0,1.8698714971542358,0,0,0.9172800183296204
0.882263728,0,0,1.6663644313812256,0,0,1.2994799613952637
0.883228233,0,0,1.7525556087493896,0,0,1.070159912109375
0.884227682,0,0,1.680729627609253,0,0,1.070159912109375
0.88523539,0,0,1.742978811264038,0,0,1.1466000080108643
0.886227227,0,0,1.9129672050476074,0,0,1.070159912109375
0.887226399,0,0,1.946485996246338,0,0,0.7644000053405762
0.888228218,0,0,1.946485996246338,0,0,1.223039984703064
0.889230352,0,0,2.2002713680267334,0,0,1.223039984703064
0.890226282,0,0,1.9800047874450684,0,0,1.1466000080108643
0.891226213,0,0,1.824381709098816,0,0,1.452359914779663
0.892226699,0,0,1.7980455160140991,0,0,0.9937199950218201
0.893226407,0,0,1.6974890232086182,0,0,1.452359914779663
0.894226263,0,0,1.7836803197860718,0,0,1.1466000080108643
0.895226212,0,0,1.656787633895874,0,0,1.1466000080108643
0.896227716,0,0,1.9776105880737305,0,0,0.9937199950218201
0.897226369,0,0,2.030282974243164,0,0,1.9109998941421509
0.898226262,0,0,1.9033904075622559,0,0,0.8408399820327759
0.899226267,0,0,2.0374655723571777,0,0,1.2994799613952637
0.900226882,0,0,2.0638017654418945,0,0,0.8408399820327759
0.901226479,0,0,1.821987509727478,0,0,1.223039984703064
0.902226428,0,0,1.8914192914962769,0,0,1.070159912109375
0.903226359,0,0,1.7693150043487549,0,0,1.375920057296753
0.904226733,0,0,1.6950948238372803,0,0,1.2994799613952637
0.905226071,0,0,1.6208745241165161,0,0,1.2994799613952637
0.906225742,0,0,1.764526605606079,0,0,1.1466000080108643
0.907226099,0,0,1.9919757843017578,0,0,0.9937199950218201
0.908226381,0,0,2.0254945755004883,0,0,0.611519992351532
0.909226404,0,0,2.0207061767578125,0,0,1.223039984703064
0.910226038,0,0,2.229001760482788,0,0,1.223039984703064
0.911226283,0,0,1.9321208000183105,0,0,1.223039984703064
0.91222775,0,0,1.8507179021835327,0,0,1.223039984703064
0.913226329,0,0,1.8339585065841675,0,0,1.2994799613952637
0.914226333,0,0,1.6903064250946045,0,0,1.2994799613952637
0.915226375,0,0,1.7405846118927002,0,0,1.1466000080108643
0.916227342,0,0,1.7070658206939697,0,0,1.375920057296753
0.917226384,0,0,1.886630892753601,0,0,1.1466000080108643
0.918226481,0,0,1.9704279899597168,0,0,1.605239987373352
0.919226133,0,0,1.9776105880737305,0,0,1.1466000080108643
0.920226267,0,0,2.1332337856292725,0,0,1.1466000080108643
0.921223939,0,0,2.0254945755004883,0,0,1.070159912109375
0.922223758,0,0,1.8531121015548706,0,0,1.2994799613952637
0.923223559,0,0,1.86508309841156,0,0,1.070159912109375
0.924232804,0,0,1.6328455209732056,0,0,1.5288000106811523
0.925227012,0,0,1.702277421951294,0,0,0.9937199950218201
0.926226424,0,0,1.6208745241165161,0,0,1.452359914779663
0.927226243,0,0,1.8962076902389526,0,0,0.9172800183296204
0.928227118,0,0,1.9776105880737305,0,0,0.9937199950218201
0.929226178,0,0,1.9967641830444336,0,0,0.3822000026702881
0.930226108,0,0,1.9177556037902832,0,0,1.1466000080108643
0.931226131,0,0,2.1332337856292725,0,0,1.2994799613952637
0.932227228,0,0,1.824381709098816,0,0,1.070159912109375
0.933226325,0,0,1.7884687185287476,0,0,1.2994799613952637
0.934226126,0,0,1.7094600200653076,0,0,1.452359914779663
0.93522639,0,0,1.7142484188079834,0,0,1.070159912109375
0.936227468,0,0,1.6280571222305298,0,0,0.9172800183296204
0.937226176,0,0,1.6735470294952393,0,0,0.9172800183296204
0.93822631,0,0,1.8411411046981812,0,0,1.1466000080108643
0.939226111,0,0,1.8555063009262085,0,0,1.605239987373352
0.940227264,0,0,1.843535304069519,0,0,0.9172800183296204
0.941226268,0,0,2.118868589401245,0,0,1.2994799613952637
0.942226106,0,0,2.0374655723571777,0,0,1.223039984703064
0.943226221,0,0,1.8267759084701538,0,0,1.2994799613952637
0.944227355,0,0,1.702277421951294,0,0,1.375920057296753
0.945237915,0,0,1.5753847360610962,0,0,1.452359914779663
0.946227013,0,0,1.623268723487854,0,0,1.2994799613952637
0.947226795,0,0,1.558625340461731,0,0,1.1466000080108643
0.948249595,0,0,1.802833914756775,0,0,0.8408399820327759
0.949234322,0,0,1.965639591217041,0,0,1.070159912109375
0.950228604,0,0,1.9081788063049316,0,0,0.305759996175766
0.951226535,0,0,1.9249382019042969,0,0,1.452359914779663
0.952228169,0,0,2.142810583114624,0,0,0.9937199950218201
0.95322634,0,0,1.8602946996688843,0,0,1.1466000080108643
0.954226215,0,0,1.7525556087493896,0,0,1.223039984703064
0.955226238,0,0,1.6376339197158813,0,0,0.9937199950218201
0.956227187,0,0,1.7334020137786865,0,0,1.2994799613952637
0.957226432,0,0,1.7094600200653076,0,0,1.1466000080108643
0.958226177,0,0,1.678335428237915,0,0,1.375920057296753
0.959226089,0,0,1.9177556037902832,0,0,0.9937199950218201
0.960227464,0,0,1.944091796875,0,0,1.2994799613952637
0.96122619,0,0,1.8770540952682495,0,0,1.1466000080108643
0.962226195,0,0,2.1332337856292725,0,0,1.1466000080108643
0.963226329,0,0,2.0374655723571777,0,0,1.2994799613952637
0.964227407,0,0,1.8483237028121948,0,0,1.2994799613952637
0.965226338,0,0,1.7693150043487549,0,0,1.2994799613952637
0.966226194,0,0,1.6687586307525635,0,0,1.223039984703064
0.967225754,0,0,1.656787633895874,0,0,0.8408399820327759
0.968227166,0,0,1.5658079385757446,0,0,1.8345600366592407
0.969226337,0,0,1.8746598958969116,0,0,0.7644000053405762
0.970225971,0,0,1.9632453918457031,0,0,1.1466000080108643
0.971225642,0,0,1.9584569931030273,0,0,0.611519992351532
0.972227295,0,0,2.070984363555908,0,0,1.375920057296753
0.973226225,0,0,2.166752576828003,0,0,1.070159912109375
0.974226137,0,0,1.86508309841156,0,0,1.223039984703064
0.975226327,0,0,1.800439715385437,0,0,1.1466000080108643
0.976227164,0,0,1.6711528301239014,0,0,1.223039984703064
0.977226058,0,0,1.7334020137786865,0,0,1.375920057296753
0.978226284,0,0,1.5897499322891235,0,0,1.2994799613952637
0.979226141,0,0,1.7046716213226318,0,0,1.070159912109375
0.98022733,0,0,1.9033904075622559,0,0,1.070159912109375
0.981226279,0,0,1.9249382019042969,0,0,0.6879600286483765
0.982226321,0,0,1.9129672050476074,0,0,1.070159912109375
0.983226103,0,0,2.1332337856292725,0,0,1.2994799613952637
0.984227552,0,0,1.8770540952682495,0,0,1.223039984703064
0.985226297,0,0,1.8411411046981812,0,0,0.9172800183296204
0.986226227,0,0,1.6759412288665771,0,0,1.5288000106811523
0.987226361,0,0,1.656787633895874,0,0,1.5288000106811523
0.988226644,0,0,1.6160861253738403,0,0,1.2994799613952637
0.989225815,0,0,1.656787633895874,0,0,1.1466000080108643
0.990226078,0,0,1.8962076902389526,0,0,0.7644000053405762
0.991226083,0,0,1.98958158493042,0,0,1.375920057296753
0.992226791,0,0,1.9967641830444336,0,0,0.8408399820327759
0.993225888,0,0,2.1284453868865967,0,0,1.2994799613952637
0.9942263,0,0,2.1164743900299072,0,0,1.070159912109375
0.995226267,0,0,1.9584569931030273,0,0,1.375920057296753
0.996227605,0,0,1.8722656965255737,0,0,1.1466000080108643
0.997226017,0,0,1.6950948238372803,0,0,1.2994799613952637
0.998226058,0,0,1.7046716213226318,0,0,1.2994799613952637
0.999226174,0,0,1.6208745241165161,0,0,1.452359914779663
1.000227363,0,0,1.8579005002975464,0,0,0.9172800183296204
1.001226164,0,0,1.9512743949890137,0,0,0.9937199950218201
1.002226298,0,0,2.0159177780151367,0,0,0.5350799560546875
1.003226155,0,0,1.9393033981323242,0,0,0.9172800183296204
1.004227548,0,0,2.188300371170044,0,0,1.223039984703064
1.005226034,0,0,1.944091796875,0,0,1.223039984703064
1.006226372,0,0,1.944091796875,0,0,1.1466000080108643
1.007226358,0,0,1.7884687185287476,0,0,1.223039984703064
1.008227214,0,0,1.8124107122421265,0,0,1.1466000080108643
1.009226218,0,0,1.7501614093780518,0,0,1.1466000080108643
1.010226371,0,0,1.7334020137786865,0,0,1.5288000106811523
1.011226375,0,0,1.9249382019042969,0,0,1.223039984703064
1.012227176,0,0,2.0231003761291504,0,0,1.2994799613952637
1.013233069,0,0,1.941697597503662,0,0,0.8408399820327759
1.014226444,0,0,2.070984363555908,0,0,1.070159912109375
1.015226282,0,0,2.078166961669922,0,0,0.9937199950218201
1.016227342,0,0,1.8770540952682495,0,0,1.375920057296753
1.017226439,0,0,1.8052281141281128,0,0,0.9172800183296204
1.018226369,0,0,1.6376339197158813,0,0,1.223039984703064
1.019226392,0,0,1.6927006244659424,0,0,1.223039984703064
1.020227378,0,0,1.6184803247451782,0,0,1.5288000106811523
1.021226364,0,0,1.8938134908676147,0,0,0.9937199950218201
1.022226295,0,0,2.0207061767578125,0,0,1.1466000080108643
1.02322628,0,0,1.9321208000183105,0,0,1.452359914779663
1.024227229,0,0,1.965639591217041,0,0,0.6879600286483765
1.025308233,0,0,2.1715409755706787,0,0,0.9172800183296204
1.026230183,0,0,1.9345149993896484,0,0,0.9937199950218201
1.027226743,0,0,1.8746598958969116,0,0,1.223039984703064
1.02823171,0,0,1.6831238269805908,0,0,1.2994799613952637
1.029226529,0,0,1.6663644313812256,0,0,1.452359914779663
1.030226275,0,0,1.599326729774475,0,0,0.9172800183296204
1.031226279,0,0,1.678335428237915,0,0,1.605239987373352
1.032227172,0,0,1.9105730056762695,0,0,0.9937199950218201
1.033226288,0,0,1.9943699836730957,0,0,1.605239987373352
1.034226181,0,0,1.9560627937316895,0,0,1.223039984703064
1.035226149,0,0,2.1595699787139893,0,0,1.223039984703064
1.036226783,0,0,1.98958158493042,0,0,0.9937199950218201
1.037226491,0,0,1.8579005002975464,0,0,1.452359914779663
1.038226143,0,0,1.7836803197860718,0,0,1.223039984703064
1.039226389,0,0,1.625662922859192,0,0,1.375920057296753
1.040227412,0,0,1.6879122257232666,0,0,1.2994799613952637
1.041226323,0,0,1.556231141090393,0,0,1.6816799640655518
1.042226365,0,0,1.7884687185287476,0,0,0.7644000053405762
1.043226147,0,0,1.8914192914962769,0,0,0.9937199950218201
1.044227522,0,0,1.9823989868164063,0,0,0.6879600286483765
1.045225989,0,0,1.9847931861877441,0,0,1.070159912109375
1.046226216,0,0,2.123656988143921,0,0,1.2994799613952637
1.047226239,0,0,1.900996208190918,0,0,1.2994799613952637
1.048227243,0,0,1.8339585065841675,0,0,1.070159912109375
1.049226229,0,0,1.7286136150360107,0,0,1.5288000106811523
1.050225974,0,0,1.7070658206939697,0,0,1.375920057296753
1.051226257,0,0,1.6639702320098877,0,0,1.223039984703064
1.05222728,0,0,1.7046716213226318,0,0,1.223039984703064
1.053226025,0,0,1.8770540952682495,0,0,1.2994799613952637
1.054225585,0,0,1.9752163887023926,0,0,1.223039984703064
1.055226126,0,0,1.9752163887023926,0,0,1.070159912109375
1.056227205,0,0,2.0853497982025146,0,0,1.375920057296753
1.057225765,0,0,1.9704279899597168,0,0,1.1466000080108643
1.058226214,0,0,1.8387469053268433,0,0,1.223039984703064
1.059226144,0,0,1.7836803197860718,0,0,0.9937199950218201
1.060227186,0,0,1.699883222579956,0,0,1.1466000080108643
1.061226209,0,0,1.699883222579956,0,0,1.070159912109375
1.062226046,0,0,1.6089035272598267,0,0,1.223039984703064
1.06322631,0,0,1.7190368175506592,0,0,0.9172800183296204
1.064227166,0,0,1.9393033981323242,0,0,1.2994799613952637
1.065226115,0,0,2.0685901641845703,0,0,0.8408399820327759
1.066226231,0,0,2.1068975925445557,0,0,1.1466000080108643
1.067226328,0,0,2.0925323963165283,0,0,1.1466000080108643
1.068230795,0,0,1.7764976024627686,0,0,0.9937199950218201
1.069231003,0,0,1.8124107122421265,0,0,0.9937199950218201
1.070226304,0,0,1.6328455209732056,0,0,1.452359914779663
1.071225938,0,0,1.623268723487854,0,0,1.223039984703064
1.072226646,0,0,1.6927006244659424,0,0,0.9172800183296204
1.073226151,0,0,1.7525556087493896,0,0,0.9937199950218201
1.074226359,0,0,1.8746598958969116,0,0,1.070159912109375
1.075227419,0,0,2.0015525817871094,0,0,1.8345600366592407
1.076227294,0,0,1.9823989868164063,0,0,0.5350799560546875
1.077226039,0,0,2.142810583114624,0,0,1.375920057296753
1.078226266,0,0,1.8770540952682495,0,0,0.8408399820327759
1.079226011,0,0,1.8698714971542358,0,0,1.375920057296753
1.080226682,0,0,1.8315643072128296,0,0,1.1466000080108643
1.081226038,0,0,1.7166426181793213,0,0,1.2994799613952637
1.082226302,0,0,1.7286136150360107,0,0,1.1466000080108643
1.083226269,0,0,1.6208745241165161,0,0,1.5288000106811523
1.084226737,0,0,1.843535304069519,0,0,0.6879600286483765
1.085226297,0,0,2.0039467811584473,0,0,0.9172800183296204
1.086226116,0,0,1.9105730056762695,0,0,0.3822000026702881
1.087226268,0,0,2.0925323963165283,0,0,1.223039984703064
1.088226625,0,0,2.073378562927246,0,0,1.1466000080108643
1.089226944,0,0,1.8291701078414917,0,0,1.2994799613952637
1.090223282,0,0,1.843535304069519,0,0,1.070159912109375
1.09122362,0,0,1.6615760326385498,0,0,1.1466000080108643
1.092228976,0,0,1.6927006244659424,0,0,1.375920057296753
1.093226221,0,0,1.5753847360610962,0,0,1.1466000080108643
1.094225966,0,0,1.8411411046981812,0,0,0.9172800183296204
1.095225804,0,0,1.9847931861877441,0,0,1.070159912109375
1.096226771,0,0,1.9967641830444336,0,0,1.5288000106811523
1.097225165,0,0,1.900996208190918,0,0,1.223039984703064
1.09822591,0,0,2.118868589401245,0,0,1.375920057296753
1.099225766,0,0,1.8986018896102905,0,0,1.070159912109375
1.100225974,0,0,1.8100165128707886,0,0,1.2994799613952637
1.101225497,0,0,1.7046716213226318,0,0,1.1466000080108643
1.102225872,0,0,1.6089035272598267,0,0,1.223039984703064
1.103225803,0,0,1.6328455209732056,0,0,1.1466000080108643
1.104226103,0,0,1.7381904125213623,0,0,1.223039984703064
1.105226034,0,0,1.8962076902389526,0,0,1.1466000080108643
1.106225779,0,0,1.9752163887023926,0,0,0.9937199950218201
1.10722582,0,0,1.9776105880737305,0,0,0.305759996175766
1.108227288,0,0,2.1595699787139893,0,0,0.9172800183296204
1.109225774,0,0,1.9584569931030273,0,0,1.070159912109375
1.110225815,0,0,1.821987509727478,0,0,1.375920057296753
1.111225894,0,0,1.843535304069519,0,0,0.9172800183296204
1.112226917,0,0,1.6663644313812256,0,0,1.452359914779663
1.11322581,0,0,1.6903064250946045,0,0,1.2994799613952637
1.11422574,0,0,1.5322890281677246,0,0,1.223039984703064
1.115225578,0,0,1.8531121015548706,0,0,1.1466000080108643
1.116226823,0,0,2.0207061767578125,0,0,1.1466000080108643
1.11722568,0,0,2.10210919380188,0,0,1.758120059967041
1.11822574,0,0,2.078166961669922,0,0,0.9937199950218201
1.11922554,0,0,2.183511972427368,0,0,1.223039984703064
1.120226841,0,0,1.9153614044189453,0,0,1.1466000080108643
1.121225845,0,0,1.8579005002975464,0,0,1.223039984703064
1.122225257,0,0,1.8124107122421265,0,0,1.1466000080108643
1.123225762,0,0,1.6759412288665771,0,0,1.2994799613952637
1.12422697,0,0,1.6543933153152466,0,0,0.9172800183296204
1.1252258450000001,0,0,1.7190368175506592,0,0,1.223039984703064
1.126225719,0,0,1.8746598958969116,0,0,0.9172800183296204
1.127225705,0,0,1.9512743949890137,0,0,1.1466000080108643
1.128227099,0,0,1.9321208000183105,0,0,0.152879998087883
1.129225862,0,0,2.2170307636260986,0,0,0.9172800183296204
1.130225774,0,0,2.0183119773864746,0,0,0.9172800183296204
1.131225649,0,0,2.0183119773864746,0,0,1.452359914779663
1.132226728,0,0,1.843535304069519,0,0,1.070159912109375
1.133225732,0,0,1.742978811264038,0,0,1.223039984703064
1.134225848,0,0,1.6400281190872192,0,0,0.9172800183296204
1.135225815,0,0,1.7836803197860718,0,0,1.2994799613952637
1.136226949,0,0,1.5705963373184204,0,0,0.8408399820327759
1.137225824,0,0,1.7932571172714233,0,0,1.223039984703064
1.138225643,0,0,1.9297266006469727,0,0,1.605239987373352
1.139225796,0,0,2.0183119773864746,0,0,1.1466000080108643
1.140226319,0,0,2.054224967956543,0,0,1.1466000080108643
1.141225416,0,0,2.1763293743133545,0,0,0.9172800183296204
1.142225587,0,0,1.8722656965255737,0,0,1.223039984703064
1.143225758,0,0,1.8363527059555054,0,0,1.1466000080108643
1.144226485,0,0,1.7118542194366455,0,0,1.6816799640655518
1.145225934,0,0,1.6903064250946045,0,0,0.9937199950218201
1.146225919,0,0,1.6328455209732056,0,0,1.375920057296753
1.147225628,0,0,1.7357962131500244,0,0,0.8408399820327759
1.148226836,0,0,1.965639591217041,0,0,1.2994799613952637
1.149225859,0,0,2.0590133666992188,0,0,0.305759996175766
1.150225845,0,0,1.946485996246338,0,0,0.8408399820327759
1.151225886,0,0,2.1284453868865967,0,0,1.070159912109375
1.152226835,0,0,1.9369091987609863,0,0,1.5288000106811523
1.153225802,0,0,1.8507179021835327,0,0,1.070159912109375
1.154225585,0,0,1.7693150043487549,0,0,1.1466000080108643
1.15522583,0,0,1.7118542194366455,0,0,0.9937199950218201
1.156226093,0,0,1.8363527059555054,0,0,1.375920057296753
1.157225728,0,0,1.644816517829895,0,0,0.7644000053405762
1.158225806,0,0,1.8483237028121948,0,0,0.9172800183296204
1.159225792,0,0,1.8818424940109253,0,0,0.9937199950218201
1.160227019,0,0,1.9345149993896484,0,0,1.223039984703064
1.161235504,0,0,2.1116859912872314,0,0,1.605239987373352
1.162226231,0,0,2.1045033931732178,0,0,0.9937199950218201
1.163225995,0,0,1.946485996246338,0,0,1.223039984703064
1.164226981,0,0,1.843535304069519,0,0,1.375920057296753
1.165225337,0,0,1.6711528301239014,0,0,1.223039984703064
1.1662257679999999,0,0,1.6639702320098877,0,0,1.1466000080108643
1.167225883,0,0,1.6543933153152466,0,0,1.1466000080108643
1.168226832,0,0,1.8722656965255737,0,0,1.1466000080108643
1.169225836,0,0,1.944091796875,0,0,1.605239987373352
1.170225748,0,0,1.9943699836730957,0,0,0.7644000053405762
1.171225845,0,0,1.9632453918457031,0,0,0.9937199950218201
1.172227035,0,0,2.2026655673980713,0,0,0.9172800183296204
1.173225743,0,0,1.8411411046981812,0,0,1.452359914779663
1.17422571,0,0,1.8124107122421265,0,0,1.2994799613952637
1.17522577,0,0,1.745373010635376,0,0,1.223039984703064
1.176227034,0,0,1.6496049165725708,0,0,1.2994799613952637
1.177225872,0,0,1.623268723487854,0,0,1.223039984703064
1.17822571,0,0,1.6136919260025024,0,0,0.6879600286483765
1.179225862,0,0,1.9393033981323242,0,0,1.1466000080108643
1.180226793,0,0,1.900996208190918,0,0,0.611519992351532
1.181225779,0,0,1.9177556037902832,0,0,1.223039984703064
1.18222582,0,0,2.0853497982025146,0,0,1.223039984703064
1.183225436,0,0,1.98958158493042,0,0,0.9172800183296204
1.184226977,0,0,1.8794482946395874,0,0,1.223039984703064
1.185225574,0,0,1.7836803197860718,0,0,1.223039984703064
1.186225838,0,0,1.6184803247451782,0,0,1.223039984703064
1.1872254899999999,0,0,1.7190368175506592,0,0,0
1.188226902,0,0,1.5107412338256836,0,0,0.9172800183296204
1.189225777,0,0,1.7860745191574097,0,0,1.1466000080108643
1.190225819,0,0,2.0159177780151367,0,0,1.8345600366592407
1.191225656,0,0,2.0685901641845703,0,0,0.6879600286483765
1.192226716,0,0,1.9776105880737305,0,0,1.2994799613952637
1.193225776,0,0,2.0925323963165283,0,0,0.8408399820327759
1.194226003,0,0,1.9177556037902832,0,0,1.5288000106811523
1.195225674,0,0,1.8531121015548706,0,0,1.1466000080108643
1.196226216,0,0,1.6424223184585571,0,0,1.2994799613952637
1.19722572,0,0,1.7166426181793213,0,0,0.9937199950218201
1.198225724,0,0,1.7405846118927002,0,0,1.2994799613952637
1.199225729,0,0,1.6927006244659424,0,0,0.8408399820327759
1.200226789,0,0,1.9560627937316895,0,0,0.9172800183296204
1.2012258120000001,0,0,2.0015525817871094,0,0,0.2293200045824051
1.202225705,0,0,1.9752163887023926,0,0,0.8408399820327759
1.203225673,0,0,2.164358377456665,0,0,1.452359914779663
1.204226696,0,0,2.054224967956543,0,0,1.070159912109375
1.20522507,0,0,1.7932571172714233,0,0,1.070159912109375
1.206225593,0,0,1.8746598958969116,0,0,1.070159912109375
1.207225487,0,0,1.8339585065841675,0,0,1.5288000106811523
1.208226195,0,0,1.8555063009262085,0,0,1.2994799613952637
1.209225384,0,0,1.647210717201233,0,0,0.8408399820327759
1.210225482,0,0,1.8195933103561401,0,0,1.1466000080108643
1.211225542,0,0,1.946485996246338,0,0,1.6816799640655518
1.212226953,0,0,1.968033790588379,0,0,0.8408399820327759
1.2132256240000001,0,0,1.9177556037902832,0,0,1.223039984703064
1.214225759,0,0,2.1739351749420166,0,0,1.070159912109375
1.215225633,0,0,1.845929503440857,0,0,1.452359914779663
1.216226879,0,0,1.86508309841156,0,0,1.2994799613952637
1.217225716,0,0,1.7549498081207275,0,0,1.452359914779663
1.218225961,0,0,1.8339585065841675,0,0,1.1466000080108643
1.219225818,0,0,1.7573440074920654,0,0,1.452359914779663
1.220226619,0,0,1.86508309841156,0,0,1.070159912109375
1.221225641,0,0,1.965639591217041,0,0,1.070159912109375
1.22222559,0,0,1.9823989868164063,0,0,0.305759996175766
1.223225891,0,0,1.8770540952682495,0,0,0.9937199950218201
1.224226544,0,0,2.145204782485962,0,0,1.452359914779663
1.225225641,0,0,1.922544002532959,0,0,1.2994799613952637
1.226225664,0,0,1.86508309841156,0,0,1.1466000080108643
1.227225816,0,0,1.7717092037200928,0,0,1.375920057296753
1.22822671,0,0,1.702277421951294,0,0,1.375920057296753
1.2292254360000001,0,0,1.723825216293335,0,0,1.375920057296753
1.230225163,0,0,1.644816517829895,0,0,0.8408399820327759
1.231225797,0,0,1.900996208190918,0,0,1.070159912109375
1.232226876,0,0,1.9249382019042969,0,0,1.758120059967041
1.233225528,0,0,2.0183119773864746,0,0,1.1466000080108643
1.234225847,0,0,2.0925323963165283,0,0,1.5288000106811523
1.235225704,0,0,2.070984363555908,0,0,1.070159912109375
1.236226819,0,0,1.867477297782898,0,0,1.452359914779663
1.237225713,0,0,1.8531121015548706,0,0,1.5288000106811523
1.23822581,0,0,1.7310078144073486,0,0,1.605239987373352
1.239225758,0,0,1.7836803197860718,0,0,1.1466000080108643
1.2402268,0,0,1.6543933153152466,0,0,1.5288000106811523
1.24122573,0,0,1.723825216293335,0,0,0.9172800183296204
1.242225827,0,0,1.8722656965255737,0,0,1.223039984703064
1.243225591,0,0,1.9129672050476074,0,0,0.305759996175766
1.244270873,0,0,1.944091796875,0,0,1.070159912109375
1.245232155,0,0,2.0877439975738525,0,0,0.9937199950218201
1.246226104,0,0,1.843535304069519,0,0,1.2994799613952637
1.247225738,0,0,1.8722656965255737,0,0,1.1466000080108643
1.248225854,0,0,1.723825216293335,0,0,1.452359914779663
1.249225858,0,0,1.623268723487854,0,0,1.375920057296753
1.250225585,0,0,1.699883222579956,0,0,1.223039984703064
1.251225145,0,0,1.656787633895874,0,0,0.9172800183296204
1.252225446,0,0,1.9273324012756348,0,0,1.070159912109375
1.253225691,0,0,1.9081788063049316,0,0,1.1466000080108643
1.254225788,0,0,1.8842366933822632,0,0,1.6816799640655518
1.255225533,0,0,2.0614075660705566,0,0,1.2994799613952637
1.256226019,0,0,2.0159177780151367,0,0,0.5350799560546875
1.257225579,0,0,1.8579005002975464,0,0,1.223039984703064
1.258225602,0,0,1.7381904125213623,0,0,1.2994799613952637
1.259225644,0,0,1.6519991159439087,0,0,0.9937199950218201
1.260225815,0,0,1.659181833267212,0,0,1.223039984703064
1.261225782,0,0,1.6160861253738403,0,0,1.2994799613952637
1.2622256570000001,0,0,1.7860745191574097,0,0,0.9937199950218201
1.263225902,0,0,1.920149803161621,0,0,1.605239987373352
1.2642273689999999,0,0,1.9321208000183105,0,0,0.3822000026702881
1.265225855,0,0,1.8938134908676147,0,0,0.8408399820327759
1.266225878,0,0,2.183511972427368,0,0,0.9172800183296204
1.267225716,0,0,1.968033790588379,0,0,1.223039984703064
1.2682269609999999,0,0,1.7884687185287476,0,0,0.9937199950218201
1.269225799,0,0,1.7166426181793213,0,0,1.6816799640655518
1.270225767,0,0,1.6711528301239014,0,0,1.223039984703064
1.271225549,0,0,1.7094600200653076,0,0,1.2994799613952637
1.272226609,0,0,1.6879122257232666,0,0,1.1466000080108643
1.273225391,0,0,1.8555063009262085,0,0,1.070159912109375
1.274225747,0,0,1.9584569931030273,0,0,0.7644000053405762
1.2752255479999999,0,0,1.8962076902389526,0,0,1.1466000080108643
1.276226812,0,0,2.0638017654418945,0,0,1.223039984703064
1.2772256309999999,0,0,2.008735179901123,0,0,0.8408399820327759
1.2782254499999999,0,0,1.8315643072128296,0,0,1.1466000080108643
1.279225769,0,0,1.8411411046981812,0,0,1.2994799613952637
1.280226755,0,0,1.5945383310317993,0,0,1.223039984703064
1.281225723,0,0,1.6687586307525635,0,0,1.2994799613952637
1.282225672,0,0,1.5753847360610962,0,0,1.1466000080108643
1.283225676,0,0,1.800439715385437,0,0,1.375920057296753
1.284226551,0,0,1.8986018896102905,0,0,1.375920057296753
1.285225833,0,0,1.9393033981323242,0,0,0.8408399820327759
1.286225801,0,0,1.9800047874450684,0,0,1.375920057296753
1.287225749,0,0,2.051830768585205,0,0,1.1466000080108643
1.288226624,0,0,1.8746598958969116,0,0,1.223039984703064
1.289225573,0,0,1.8171991109848022,0,0,0.9172800183296204
1.290227855,0,0,1.6376339197158813,0,0,1.2994799613952637
1.29122523,0,0,1.7381904125213623,0,0,0.9172800183296204
1.292226049,0,0,1.6208745241165161,0,0,1.223039984703064
1.2932257950000001,0,0,1.6543933153152466,0,0,0.6879600286483765
1.294225762,0,0,1.944091796875,0,0,0.9172800183296204
1.29522547,0,0,2.0614075660705566,0,0,0.5350799560546875
1.296226845,0,0,1.8602946996688843,0,0,0.9937199950218201
1.297225701,0,0,2.0853497982025146,0,0,1.2994799613952637
1.298225854,0,0,1.8986018896102905,0,0,1.1466000080108643
1.299225858,0,0,1.8052281141281128,0,0,0.9172800183296204
1.300225955,0,0,1.7501614093780518,0,0,1.223039984703064
1.301225886,0,0,1.6950948238372803,0,0,1.223039984703064
1.302225983,0,0,1.824381709098816,0,0,1.070159912109375
1.303225654,0,0,1.6496049165725708,0,0,0.9172800183296204
1.3042261210000001,0,0,1.8770540952682495,0,0,0.9172800183296204
1.305225829,0,0,1.98958158493042,0,0,2.14031982421875
1.306225834,0,0,1.9297266006469727,0,0,0.8408399820327759
1.307225764,0,0,2.008735179901123,0,0,1.375920057296753
1.308227083,0,0,2.1092917919158936,0,0,1.1466000080108643
1.309225847,0,0,1.8531121015548706,0,0,1.375920057296753
1.310225889,0,0,1.7836803197860718,0,0,1.070159912109375
1.311225763,0,0,1.6424223184585571,0,0,1.2994799613952637
1.3122268049999999,0,0,1.7741034030914307,0,0,0.9937199950218201
1.313230013,0,0,1.6519991159439087,0,0,1.452359914779663
1.314226092,0,0,1.723825216293335,0,0,0.9172800183296204
1.315226003,0,0,1.98958158493042,0,0,1.452359914779663
1.316281322,0,0,1.9752163887023926,0,0,0.2293200045824051
1.317311863,0,0,2.011129379272461,0,0,1.223039984703064
1.318307164,0,0,2.2577321529388428,0,0,1.223039984703064
1.319844031,0,0,1.9536685943603516,0,0,1.375920057296753
1.3202987099999999,0,0,1.920149803161621,0,0,1.2994799613952637
1.321286696,0,0,1.7932571172714233,0,0,1.2994799613952637
1.322257867,0,0,1.6400281190872192,0,0,1.2994799613952637
1.3232245759999999,0,0,1.7573440074920654,0,0,1.1466000080108643
1.324224321,0,0,1.6903064250946045,0,0,1.1466000080108643
1.3252238809999999,0,0,1.8339585065841675,0,0,1.2994799613952637
1.326222978,0,0,1.9249382019042969,0,0,1.6816799640655518
1.327222409,0,0,2.0015525817871094,0,0,1.070159912109375
1.328223895,0,0,2.056619167327881,0,0,1.452359914779663
1.329222473,0,0,2.0853497982025146,0,0,1.070159912109375
1.330222459,0,0,1.8579005002975464,0,0,1.375920057296753
1.331222889,0,0,1.946485996246338,0,0,1.070159912109375
1.332241079,0,0,1.766920804977417,0,0,1.1466000080108643
1.333223806,0,0,1.800439715385437,0,0,0.9937199950218201
1.3361087839999999,0,0,1.800439715385437,0,0,0.9937199950218201
1.336273318,0,0,1.800439715385437,0,0,0.9172800183296204
1.336436316,0,0,1.9991583824157715,0,0,1.070159912109375
1.337226453,0,0,2.0159177780151367,0,0,0.4586400091648102
1.338225069,0,0,2.0039467811584473,0,0,0.9937199950218201
1.339225036,0,0,2.2409727573394775,0,0,1.375920057296753
1.34022654,0,0,2.030282974243164,0,0,1.1466000080108643
1.341224508,0,0,1.8387469053268433,0,0,1.1466000080108643
1.342224605,0,0,1.778891921043396,0,0,1.375920057296753
1.343223498,0,0,1.7381904125213623,0,0,1.223039984703064
1.34535732,0,0,1.8267759084701538,0,0,1.452359914779663
1.3459816629999999,0,0,1.8267759084701538,0,0,0.4586400091648102
1.346236067,0,0,1.9512743949890137,0,0,1.1466000080108643
1.347254719,0,0,2.0207061767578125,0,0,1.452359914779663
1.348229983,0,0,1.8842366933822632,0,0,1.375920057296753
1.3492275249999999,0,0,2.0470423698425293,0,0,1.223039984703064
1.350227881,0,0,2.0446481704711914,0,0,1.2994799613952637
1.351226941,0,0,1.9249382019042969,0,0,1.1466000080108643
1.352515404,0,0,1.867477297782898,0,0,1.070159912109375
1.353231024,0,0,1.6950948238372803,0,0,1.2994799613952637
1.3542267510000001,0,0,1.8171991109848022,0,0,1.1466000080108643
1.355226403,0,0,1.6711528301239014,0,0,1.2994799613952637
1.356230056,0,0,1.843535304069519,0,0,1.223039984703064
1.357227542,0,0,1.987187385559082,0,0,1.1466000080108643
1.358227028,0,0,2.0159177780151367,0,0,0.152879998087883
1.359226088,0,0,2.0590133666992188,0,0,1.223039984703064
1.360283943,0,0,2.231395959854126,0,0,1.375920057296753
1.361226949,0,0,1.9033904075622559,0,0,1.223039984703064
1.362226546,0,0,1.8555063009262085,0,0,1.070159912109375
1.363226624,0,0,1.7190368175506592,0,0,1.375920057296753
1.364227925,0,0,1.647210717201233,0,0,1.375920057296753
1.36522604,0,0,1.6160861253738403,0,0,1.223039984703064
1.3662276740000001,0,0,1.7046716213226318,0,0,0.6879600286483765
1.367226346,0,0,1.9345149993896484,0,0,0.7644000053405762
1.36822772,0,0,1.9776105880737305,0,0,1.2994799613952637
1.369226317,0,0,1.86508309841156,0,0,1.070159912109375
1.370226118,0,0,2.1332337856292725,0,0,1.5288000106811523
1.371234604,0,0,2.0231003761291504,0,0,0.9937199950218201
1.3722282940000001,0,0,1.9033904075622559,0,0,1.1466000080108643
1.3732265940000001,0,0,1.920149803161621,0,0,1.375920057296753
1.374229062,0,0,1.764526605606079,0,0,1.452359914779663
1.375226566,0,0,1.745373010635376,0,0,0.8408399820327759
1.376231997,0,0,1.580173134803772,0,0,1.2994799613952637
1.377226816,0,0,1.8195933103561401,0,0,0.9937199950218201
1.3782279499999999,0,0,1.8914192914962769,0,0,1.605239987373352
1.379226991,0,0,1.9033904075622559,0,0,0.2293200045824051
1.3802302370000001,0,0,1.9919757843017578,0,0,1.1466000080108643
1.381226556,0,0,2.1715409755706787,0,0,0.9172800183296204
1.382226301,0,0,1.8962076902389526,0,0,0.9937199950218201
1.3832258610000001,0,0,1.8555063009262085,0,0,0.9937199950218201
1.384227514,0,0,1.6663644313812256,0,0,1.223039984703064
1.385226259,0,0,1.6352397203445435,0,0,1.223039984703064
1.386225708,0,0,1.659181833267212,0,0,1.2994799613952637
1.3872259900000001,0,0,1.680729627609253,0,0,0.6879600286483765
1.388261642,0,0,1.8267759084701538,0,0,1.070159912109375
1.389308424,0,0,1.922544002532959,0,0,1.070159912109375
1.390274854,0,0,1.900996208190918,0,0,1.223039984703064
1.391255989,0,0,2.1475989818573,0,0,1.375920057296753
1.3922265120000001,0,0,1.889025092124939,0,0,0.7644000053405762
1.393223831,0,0,1.7980455160140991,0,0,1.223039984703064
1.394223614,0,0,1.8100165128707886,0,0,1.1466000080108643
1.395223674,0,0,1.6615760326385498,0,0,1.2994799613952637
1.396235234,0,0,1.6950948238372803,0,0,1.2994799613952637
1.3972265529999999,0,0,1.5921441316604614,0,0,0.9937199950218201
1.398226224,0,0,1.8602946996688843,0,0,0.9937199950218201
1.399225932,0,0,1.9297266006469727,0,0,1.6816799640655518
1.4002266030000001,0,0,1.9488801956176758,0,0,0.611519992351532
1.401226256,0,0,1.98958158493042,0,0,1.375920057296753
1.402226057,0,0,2.0398597717285156,0,0,1.223039984703064
1.403226191,0,0,1.824381709098816,0,0,1.070159912109375
1.40422614,0,0,1.7693150043487549,0,0,1.070159912109375
1.405225903,0,0,1.6903064250946045,0,0,1.375920057296753
1.406225945,0,0,1.6927006244659424,0,0,0.9937199950218201
1.407226005,0,0,1.522712230682373,0,0,1.452359914779663
1.40822738,0,0,1.721431016921997,0,0,0.9937199950218201
1.409226902,0,0,1.8722656965255737,0,0,0.8408399820327759
1.41022687,0,0,1.968033790588379,0,0,0.9172800183296204
1.411226171,0,0,1.8531121015548706,0,0,0.8408399820327759
1.412227101,0,0,2.097320795059204,0,0,1.375920057296753
1.413225902,0,0,1.8962076902389526,0,0,1.070159912109375
1.41422611,0,0,1.7741034030914307,0,0,1.223039984703064
1.4152258,0,0,1.7357962131500244,0,0,1.1466000080108643
1.416227156,0,0,1.6400281190872192,0,0,1.2994799613952637
1.4172259010000001,0,0,1.6735470294952393,0,0,0.8408399820327759
1.418226017,0,0,1.6112977266311646,0,0,0.7644000053405762
1.419225928,0,0,1.886630892753601,0,0,1.1466000080108643
1.420227155,0,0,1.9129672050476074,0,0,1.8345600366592407
1.421226141,0,0,1.8986018896102905,0,0,0.9172800183296204
1.422225738,0,0,2.0446481704711914,0,0,0.9937199950218201
1.423225983,0,0,2.0183119773864746,0,0,1.070159912109375
1.4242268949999999,0,0,1.7693150043487549,0,0,1.605239987373352
1.425226011,0,0,1.764526605606079,0,0,1.375920057296753
1.426225515,0,0,1.6041151285171509,0,0,1.1466000080108643
1.427226149,0,0,1.6519991159439087,0,0,1.223039984703064
1.428227302,0,0,1.5538369417190552,0,0,0.9937199950218201
1.429225639,0,0,1.742978811264038,0,0,1.223039984703064
1.43022544,0,0,1.941697597503662,0,0,1.223039984703064
1.431226056,0,0,2.0638017654418945,0,0,0.305759996175766
1.43222706,0,0,1.965639591217041,0,0,0.9937199950218201
1.43322575,0,0,2.2170307636260986,0,0,1.1466000080108643
1.434225958,0,0,1.889025092124939,0,0,0.9172800183296204
1.435225999,0,0,1.8962076902389526,0,0,1.070159912109375
1.436226967,0,0,1.723825216293335,0,0,1.2994799613952637
1.43722586,0,0,1.7381904125213623,0,0,1.2994799613952637
1.438225791,0,0,1.6903064250946045,0,0,1.223039984703064
1.4392257769999999,0,0,1.7597382068634033,0,0,1.223039984703064
1.440227003,0,0,1.9393033981323242,0,0,1.070159912109375
1.441225971,0,0,1.98958158493042,0,0,1.6816799640655518
1.442225864,0,0,1.8555063009262085,0,0,1.1466000080108643
1.443225813,0,0,2.049436569213867,0,0,1.2994799613952637
1.444227021,0,0,2.075772762298584,0,0,1.223039984703064
1.445225988,0,0,1.889025092124939,0,0,1.2994799613952637
1.446225771,0,0,1.8770540952682495,0,0,1.223039984703064
1.447226053,0,0,1.6687586307525635,0,0,1.375920057296753
1.448226909,0,0,1.6879122257232666,0,0,1.1466000080108643
1.449225895,0,0,1.5705963373184204,0,0,1.375920057296753
1.450225825,0,0,1.8339585065841675,0,0,0.9937199950218201
1.451227071,0,0,1.9177556037902832,0,0,1.223039984703064
1.452226853,0,0,1.944091796875,0,0,0.305759996175766
1.453226246,0,0,2.03507137298584,0,0,0.9937199950218201
1.4542258989999999,0,0,2.1739351749420166,0,0,1.2994799613952637
1.455225774,0,0,1.9297266006469727,0,0,1.1466000080108643
1.4562270370000001,0,0,1.845929503440857,0,0,1.1466000080108643
1.457226042,0,0,1.6903064250946045,0,0,1.2994799613952637
1.458226028,0,0,1.7190368175506592,0,0,1.452359914779663
1.45922581,0,0,1.7118542194366455,0,0,1.2994799613952637
1.4602269620000001,0,0,1.7812861204147339,0,0,1.070159912109375
1.461243541,0,0,1.922544002532959,0,0,1.070159912109375
1.462227156,0,0,2.051830768585205,0,0,1.375920057296753
1.463225883,0,0,2.0015525817871094,0,0,1.2994799613952637
1.464227017,0,0,2.183511972427368,0,0,0.9172800183296204
1.465225948,0,0,1.9823989868164063,0,0,1.223039984703064
1.466225822,0,0,1.941697597503662,0,0,1.452359914779663
1.467225827,0,0,1.8052281141281128,0,0,1.070159912109375
1.468226442,0,0,1.7118542194366455,0,0,1.452359914779663
1.46922541,0,0,1.7334020137786865,0,0,1.2994799613952637
1.470226062,0,0,1.6352397203445435,0,0,0.9172800183296204
1.471225863,0,0,1.9129672050476074,0,0,1.375920057296753
1.472226997,0,0,1.9560627937316895,0,0,1.5288000106811523
1.47322552,0,0,1.9776105880737305,0,0,0.152879998087883
1.474226191,0,0,2.0207061767578125,0,0,1.2994799613952637
1.47522601,0,0,2.1571757793426514,0,0,1.1466000080108643
1.476227015,0,0,1.9105730056762695,0,0,1.375920057296753
1.477225853,0,0,1.8531121015548706,0,0,0.9172800183296204
1.478226005,0,0,1.7717092037200928,0,0,1.070159912109375
1.479225806,0,0,1.7621324062347412,0,0,1.223039984703064
1.480227107,0,0,1.659181833267212,0,0,1.452359914779663
1.481225667,0,0,1.7501614093780518,0,0,0.9172800183296204
1.482225782,0,0,1.9249382019042969,0,0,1.070159912109375
1.483322415,0,0,1.9105730056762695,0,0,1.2994799613952637
1.484254106,0,0,1.9393033981323242,0,0,0.9172800183296204
1.48522737,0,0,2.2816741466522217,0,0,1.2994799613952637
1.486232819,0,0,1.9752163887023926,0,0,1.070159912109375
1.487229804,0,0,1.9249382019042969,0,0,1.070159912109375
1.488235327,0,0,1.6687586307525635,0,0,1.070159912109375
1.489243906,0,0,1.647210717201233,0,0,1.5288000106811523
1.490255058,0,0,1.7334020137786865,0,0,0.9937199950218201
1.491231674,0,0,1.6112977266311646,0,0,1.2994799613952637
1.492226734,0,0,1.8962076902389526,0,0,1.1466000080108643
1.493226035,0,0,1.946485996246338,0,0,1.605239987373352
1.494226039,0,0,1.9297266006469727,0,0,0.611519992351532
1.495237951,0,0,2.006340980529785,0,0,1.375920057296753
1.496241326,0,0,1.9560627937316895,0,0,1.1466000080108643
1.497232627,0,0,1.845929503440857,0,0,1.375920057296753
1.498226483,0,0,1.86508309841156,0,0,1.223039984703064
1.499226062,0,0,1.7334020137786865,0,0,1.5288000106811523
1.500291917,0,0,1.7310078144073486,0,0,0.9937199950218201
1.5012365330000002,0,0,1.5921441316604614,0,0,1.2994799613952637
1.502251593,0,0,1.7812861204147339,0,0,1.070159912109375
1.5032520969999998,0,0,1.8746598958969116,0,0,0.8408399820327759
1.504242102,0,0,1.9105730056762695,0,0,0.9172800183296204
1.505302939,0,0,1.9776105880737305,0,0,1.070159912109375
1.506270703,0,0,2.188300371170044,0,0,1.223039984703064
1.507248615,0,0,1.9081788063049316,0,0,1.070159912109375
1.508260231,0,0,1.7836803197860718,0,0,1.1466000080108643
1.509262513,0,0,1.6903064250946045,0,0,1.2994799613952637
1.510292776,0,0,1.7118542194366455,0,0,1.223039984703064
1.5112967990000001,0,0,1.6879122257232666,0,0,0.9937199950218201
1.512241452,0,0,1.6711528301239014,0,0,1.223039984703064
1.513271419,0,0,1.922544002532959,0,0,1.1466000080108643
1.514272053,0,0,1.9584569931030273,0,0,1.605239987373352
1.515265114,0,0,1.9345149993896484,0,0,0.6879600286483765
1.516290692,0,0,2.094926595687866,0,0,1.070159912109375
1.517273085,0,0,2.0039467811584473,0,0,1.223039984703064
1.5182381459999998,0,0,1.8602946996688843,0,0,1.605239987373352
1.519229187,0,0,1.8148049116134644,0,0,1.2994799613952637
1.5202271920000001,0,0,1.6352397203445435,0,0,1.375920057296753
1.521226289,0,0,1.7908629179000854,0,0,0.9937199950218201
1.5222302380000001,0,0,1.5610195398330688,0,0,1.452359914779663
1.5232489089999999,0,0,1.7381904125213623,0,0,0.7644000053405762
1.5242469870000002,0,0,1.9153614044189453,0,0,1.070159912109375
1.5252480290000001,0,0,1.9823989868164063,0,0,0.152879998087883
1.526228774,0,0,1.9776105880737305,0,0,0.8408399820327759
1.527234241,0,0,2.1715409755706787,0,0,1.375920057296753
1.528229079,0,0,1.9033904075622559,0,0,1.223039984703064
1.529225769,0,0,1.8124107122421265,0,0,1.223039984703064
1.5302260140000001,0,0,1.702277421951294,0,0,1.223039984703064
1.531225889,0,0,1.6543933153152466,0,0,1.1466000080108643
1.5322257449999999,0,0,1.5945383310317993,0,0,1.1466000080108643
1.533226101,0,0,1.7046716213226318,0,0,0.9937199950218201
1.534225884,0,0,1.922544002532959,0,0,1.070159912109375
1.5352260549999999,0,0,1.987187385559082,0,0,1.605239987373352
1.5362272259999998,0,0,1.9823989868164063,0,0,0.9937199950218201
1.537226008,0,0,2.140416383743286,0,0,0.9937199950218201
1.538225809,0,0,2.030282974243164,0,0,0.9172800183296204
1.53922585,0,0,1.9273324012756348,0,0,1.1466000080108643
1.540226021,0,0,1.8339585065841675,0,0,1.223039984703064
1.541225952,0,0,1.7764976024627686,0,0,1.2994799613952637
1.542225938,0,0,1.7621324062347412,0,0,1.2994799613952637
1.543225757,0,0,1.5682021379470825,0,0,1.223039984703064
1.54422691,0,0,1.946485996246338,0,0,0.8408399820327759
1.545225933,0,0,1.9752163887023926,0,0,0.9937199950218201
1.546226067,0,0,1.9847931861877441,0,0,0.305759996175766
1.5472258669999999,0,0,2.161964178085327,0,0,1.1466000080108643
1.548226205,0,0,2.1499931812286377,0,0,1.223039984703064
1.5492257839999999,0,0,1.8770540952682495,0,0,0.9172800183296204
1.550225399,0,0,1.8746598958969116,0,0,1.223039984703064
1.551226107,0,0,1.7094600200653076,0,0,1.070159912109375
1.5522273709999999,0,0,1.6496049165725708,0,0,1.452359914779663
1.553225968,0,0,1.5705963373184204,0,0,1.070159912109375
1.554225324,0,0,1.7094600200653076,0,0,1.070159912109375
1.555225699,0,0,1.9536685943603516,0,0,1.1466000080108643
1.5562269629999999,0,0,2.03507137298584,0,0,1.605239987373352
1.5572256530000002,0,0,1.9776105880737305,0,0,1.070159912109375
1.5582258979999999,0,0,2.2146365642547607,0,0,1.375920057296753
1.559225995,0,0,1.8770540952682495,0,0,0.9937199950218201
1.560226814,0,0,1.7310078144073486,0,0,1.2994799613952637
1.561225818,0,0,1.7477672100067139,0,0,1.2994799613952637
1.562226027,0,0,1.7118542194366455,0,0,1.223039984703064
1.563225568,0,0,1.7573440074920654,0,0,0.9937199950218201
1.5642266839999999,0,0,1.6136919260025024,0,0,1.2994799613952637
1.5652258730000002,0,0,1.9488801956176758,0,0,0.9937199950218201
1.566225822,0,0,2.0039467811584473,0,0,1.1466000080108643
1.5672258270000001,0,0,1.9823989868164063,0,0,0.152879998087883
1.568225887,0,0,2.054224967956543,0,0,1.070159912109375
1.569225947,0,0,2.073378562927246,0,0,0.9937199950218201
1.5702286920000001,0,0,1.7884687185287476,0,0,1.1466000080108643
1.571240066,0,0,1.86508309841156,0,0,0.9172800183296204
1.572226423,0,0,1.8483237028121948,0,0,1.070159912109375
1.5732261680000001,0,0,1.7908629179000854,0,0,1.2994799613952637
1.57422571,0,0,1.5849615335464478,0,0,1.375920057296753
1.5752253619999999,0,0,1.7573440074920654,0,0,0.7644000053405762
1.576225663,0,0,1.9919757843017578,0,0,0.9937199950218201
1.577226038,0,0,1.9943699836730957,0,0,0.9172800183296204
1.578225838,0,0,1.9800047874450684,0,0,1.1466000080108643
1.579225954,0,0,2.233790159225464,0,0,1.5288000106811523
1.580226273,0,0,1.922544002532959,0,0,1.223039984703064
1.581225981,0,0,1.7812861204147339,0,0,1.375920057296753
1.582225819,0,0,1.6903064250946045,0,0,1.223039984703064
1.583225712,0,0,1.6687586307525635,0,0,1.2994799613952637
1.584226272,0,0,1.6496049165725708,0,0,1.223039984703064
1.5852255180000001,0,0,1.6160861253738403,0,0,1.452359914779663
1.586226022,0,0,1.9297266006469727,0,0,1.223039984703064
1.587225749,0,0,1.9512743949890137,0,0,1.452359914779663
1.588227661,0,0,1.9081788063049316,0,0,0.3822000026702881
1.58923898,0,0,2.0685901641845703,0,0,1.223039984703064
1.590226929,0,0,2.03507137298584,0,0,0.9937199950218201
1.591225896,0,0,1.8052281141281128,0,0,0.9937199950218201
1.592226975,0,0,1.8100165128707886,0,0,1.223039984703064
1.593225961,0,0,1.6639702320098877,0,0,1.2994799613952637
1.594225798,0,0,1.7334020137786865,0,0,1.375920057296753
1.595225803,0,0,1.7094600200653076,0,0,0.9172800183296204
1.596227733,0,0,1.8124107122421265,0,0,0.6879600286483765
1.597225404,0,0,1.8387469053268433,0,0,1.070159912109375
1.5982258900000001,0,0,1.9752163887023926,0,0,0.5350799560546875
1.599225672,0,0,1.9512743949890137,0,0,0.9937199950218201
1.600226232,0,0,2.1523873805999756,0,0,1.223039984703064
1.601225922,0,0,1.9057846069335938,0,0,0.9172800183296204
1.602226167,0,0,1.8100165128707886,0,0,1.223039984703064
1.603225801,0,0,1.6496049165725708,0,0,1.452359914779663
1.604227028,0,0,1.558625340461731,0,0,1.223039984703064
1.605225847,0,0,1.6160861253738403,0,0,0.9172800183296204
1.606226,0,0,1.6711528301239014,0,0,0.9937199950218201
1.607225726,0,0,1.9345149993896484,0,0,1.070159912109375
1.6082268229999999,0,0,1.9608511924743652,0,0,1.6816799640655518
1.609225643,0,0,1.944091796875,0,0,0.8408399820327759
1.6102259060000002,0,0,2.1045033931732178,0,0,1.1466000080108643
1.611225744,0,0,1.9297266006469727,0,0,1.2994799613952637
1.612226897,0,0,1.7405846118927002,0,0,1.2994799613952637
1.613225957,0,0,1.766920804977417,0,0,1.223039984703064
1.61422585,0,0,1.680729627609253,0,0,1.223039984703064
1.615225299,0,0,1.6831238269805908,0,0,1.1466000080108643
1.616226933,0,0,1.6065093278884888,0,0,1.2994799613952637
1.617225789,0,0,1.8746598958969116,0,0,0.8408399820327759
1.6182258859999998,0,0,1.8626888990402222,0,0,0.7644000053405762
1.619225446,0,0,1.889025092124939,0,0,0.305759996175766
1.620226932,0,0,1.98958158493042,0,0,1.070159912109375
1.621225715,0,0,2.1763293743133545,0,0,1.1466000080108643
1.622225701,0,0,1.8746598958969116,0,0,1.070159912109375
1.623225853,0,0,1.8411411046981812,0,0,1.1466000080108643
1.624226895,0,0,1.644816517829895,0,0,1.223039984703064
1.625225825,0,0,1.6065093278884888,0,0,0.9937199950218201
1.626225978,0,0,1.6519991159439087,0,0,0.9937199950218201
1.6272259999999998,0,0,1.7166426181793213,0,0,1.1466000080108643
1.6282270049999998,0,0,1.922544002532959,0,0,1.1466000080108643
1.629225991,0,0,1.9800047874450684,0,0,1.6816799640655518
1.630225977,0,0,1.9057846069335938,0,0,0.9172800183296204
1.631225833,0,0,2.097320795059204,0,0,1.2994799613952637
1.632229412,0,0,1.8986018896102905,0,0,1.223039984703064
1.633225898,0,0,1.7908629179000854,0,0,1.375920057296753
1.634225717,0,0,1.7310078144073486,0,0,1.452359914779663
1.635227129,0,0,1.6208745241165161,0,0,1.223039984703064
1.6362272070000001,0,0,1.7094600200653076,0,0,1.070159912109375
1.637225452,0,0,1.680729627609253,0,0,1.2994799613952637
1.638225772,0,0,1.8818424940109253,0,0,1.1466000080108643
1.639225795,0,0,1.886630892753601,0,0,0.8408399820327759
1.640226466,0,0,1.8794482946395874,0,0,0.2293200045824051
1.641225989,0,0,2.0805611610412598,0,0,0.7644000053405762
1.642225937,0,0,2.094926595687866,0,0,1.2994799613952637
1.643225905,0,0,1.7884687185287476,0,0,0.9937199950218201
1.6442269280000001,0,0,1.7956513166427612,0,0,1.375920057296753
1.645226117,0,0,1.6376339197158813,0,0,1.223039984703064
1.646226048,0,0,1.601720929145813,0,0,1.2994799613952637
1.647225867,0,0,1.5921441316604614,0,0,0.9937199950218201
1.6482270940000001,0,0,1.764526605606079,0,0,1.070159912109375
1.649226098,0,0,1.8746598958969116,0,0,1.070159912109375
1.650225936,0,0,1.9560627937316895,0,0,1.5288000106811523
1.651226015,0,0,1.9273324012756348,0,0,1.1466000080108643
1.652226908,0,0,2.1499931812286377,0,0,1.2994799613952637
1.653235134,0,0,1.9321208000183105,0,0,1.375920057296753
1.65422775,0,0,1.8555063009262085,0,0,1.1466000080108643
1.655225884,0,0,1.7381904125213623,0,0,0.9172800183296204
1.656227018,0,0,1.6208745241165161,0,0,1.1466000080108643
1.657226134,0,0,1.6639702320098877,0,0,0.9937199950218201
1.658225601,0,0,1.6759412288665771,0,0,1.452359914779663
1.6592257350000001,0,0,1.6759412288665771,0,0,1.1466000080108643
1.660226832,0,0,1.9704279899597168,0,0,1.070159912109375
1.661225837,0,0,1.9536685943603516,0,0,0.305759996175766
1.662225434,0,0,1.9488801956176758,0,0,1.070159912109375
1.66322579,0,0,2.205059766769409,0,0,1.223039984703064
1.664226943,0,0,2.1164743900299072,0,0,1.2994799613952637
1.665225984,0,0,1.843535304069519,0,0,1.1466000080108643
1.666225581,0,0,1.8626888990402222,0,0,1.2994799613952637
1.667225567,0,0,1.7190368175506592,0,0,1.375920057296753
1.6682268310000001,0,0,1.7621324062347412,0,0,1.070159912109375
1.669225687,0,0,1.6184803247451782,0,0,1.223039984703064
1.6702259320000001,0,0,1.8938134908676147,0,0,1.1466000080108643
1.671225881,0,0,1.9369091987609863,0,0,1.1466000080108643
1.672226274,0,0,1.9823989868164063,0,0,1.452359914779663
1.67323189,0,0,1.9369091987609863,0,0,1.375920057296753
1.674227117,0,0,1.9584569931030273,0,0,0.9937199950218201
1.675270343,0,0,1.9584569931030273,0,0,1.375920057296753
1.6762384030000002,0,0,1.8842366933822632,0,0,0.9937199950218201
1.677253537,0,0,1.7477672100067139,0,0,1.2994799613952637
1.6782295600000001,0,0,1.6879122257232666,0,0,1.070159912109375
1.679226843,0,0,1.699883222579956,0,0,1.1466000080108643
1.680229977,0,0,1.6759412288665771,0,0,0.8408399820327759
1.6812263330000001,0,0,1.8986018896102905,0,0,1.5288000106811523
1.6822258190000001,0,0,2.0207061767578125,0,0,0.611519992351532
1.683225342,0,0,2.032677173614502,0,0,1.1466000080108643
1.6842265680000001,0,0,2.1571757793426514,0,0,1.223039984703064
1.6852265910000002,0,0,1.9800047874450684,0,0,1.223039984703064
1.6862402250000001,0,0,1.8052281141281128,0,0,1.070159912109375
1.687227174,0,0,1.7956513166427612,0,0,1.1466000080108643
1.688226605,0,0,1.778891921043396,0,0,1.375920057296753
1.68922898,0,0,1.7166426181793213,0,0,1.070159912109375
1.6902302059999998,0,0,1.6879122257232666,0,0,1.2994799613952637
1.691225748,0,0,1.8555063009262085,0,0,1.223039984703064
1.692226271,0,0,1.8962076902389526,0,0,1.070159912109375
1.6932255710000002,0,0,1.9919757843017578,0,0,1.1466000080108643
1.694225909,0,0,1.9919757843017578,0,0,1.452359914779663
1.695225877,0,0,2.1763293743133545,0,0,1.223039984703064
1.696227307,0,0,1.9536685943603516,0,0,1.2994799613952637
1.697225886,0,0,1.8626888990402222,0,0,1.223039984703064
1.698225946,0,0,1.7549498081207275,0,0,1.2994799613952637
1.699225765,0,0,1.7334020137786865,0,0,0.9172800183296204
1.700226195,0,0,1.601720929145813,0,0,1.375920057296753
1.701225829,0,0,1.7381904125213623,0,0,0.6879600286483765
1.7022258890000002,0,0,1.9177556037902832,0,0,1.8345600366592407
1.703225875,0,0,2.075772762298584,0,0,1.070159912109375
1.7042263800000002,0,0,2.006340980529785,0,0,1.8345600366592407
1.705225365,0,0,2.207453966140747,0,0,0.9172800183296204
1.7062260550000001,0,0,1.9177556037902832,0,0,1.2994799613952637
1.707225911,0,0,1.8291701078414917,0,0,1.1466000080108643
1.708226249,0,0,1.8124107122421265,0,0,1.2994799613952637
1.709225735,0,0,1.6280571222305298,0,0,1.452359914779663
1.710225962,0,0,1.680729627609253,0,0,1.1466000080108643
1.711225725,0,0,1.699883222579956,0,0,0.9937199950218201
1.712227897,0,0,1.8818424940109253,0,0,1.1466000080108643
1.7132257530000001,0,0,1.8794482946395874,0,0,0.8408399820327759
1.714225831,0,0,1.9249382019042969,0,0,1.1466000080108643
1.7152257990000002,0,0,2.0470423698425293,0,0,1.1466000080108643
1.716225951,0,0,2.051830768585205,0,0,1.1466000080108643
1.7172374000000001,0,0,1.867477297782898,0,0,1.5288000106811523
1.718227682,0,0,1.86508309841156,0,0,1.223039984703064
1.7192259650000001,0,0,1.6615760326385498,0,0,1.452359914779663
1.720227043,0,0,1.723825216293335,0,0,0.9937199950218201
1.721225881,0,0,1.4891934394836426,0,0,1.375920057296753
1.722225774,0,0,1.7094600200653076,0,0,1.223039984703064
1.7233451290000001,0,0,1.8626888990402222,0,0,2.06387996673584
1.724265431,0,0,1.9249382019042969,0,0,1.070159912109375
1.725271954,0,0,1.8962076902389526,0,0,1.070159912109375
1.726269162,0,0,2.2170307636260986,0,0,0.6879600286483765
1.7272922400000001,0,0,1.9057846069335938,0,0,1.375920057296753
1.728321781,0,0,1.8339585065841675,0,0,1.1466000080108643
1.729302267,0,0,1.7070658206939697,0,0,1.223039984703064
1.730284642,0,0,1.6184803247451782,0,0,1.375920057296753
1.731264295,0,0,1.702277421951294,0,0,1.070159912109375
1.7322799660000001,0,0,1.5849615335464478,0,0,0.9937199950218201
1.733324914,0,0,1.8698714971542358,0,0,0.9172800183296204
1.734293549,0,0,1.9728221893310547,0,0,0.5350799560546875
1.73529485,0,0,1.920149803161621,0,0,1.1466000080108643
1.7363370200000001,0,0,2.027888774871826,0,0,1.223039984703064
1.737261766,0,0,1.9823989868164063,0,0,0.9172800183296204
1.738298585,0,0,1.8315643072128296,0,0,0.9937199950218201
1.739283238,0,0,1.7166426181793213,0,0,1.223039984703064
1.7402975939999998,0,0,1.6759412288665771,0,0,1.375920057296753
1.741322635,0,0,1.721431016921997,0,0,0.7644000053405762
1.742298973,0,0,1.5897499322891235,0,0,0.7644000053405762
1.743300589,0,0,1.8148049116134644,0,0,1.223039984703064
1.744259575,0,0,1.7908629179000854,0,0,1.758120059967041
1.74528682,0,0,1.843535304069519,0,0,1.1466000080108643
1.746336916,0,0,1.8746598958969116,0,0,1.605239987373352
1.747312958,0,0,2.123656988143921,0,0,0.7644000053405762
1.748280963,0,0,1.9057846069335938,0,0,1.223039984703064
1.749310115,0,0,1.8315643072128296,0,0,1.1466000080108643
1.750295472,0,0,1.6711528301239014,0,0,1.1466000080108643
1.751324013,0,0,1.558625340461731,0,0,1.375920057296753
1.7522769999999999,0,0,1.6208745241165161,0,0,1.223039984703064
1.753280578,0,0,1.5753847360610962,0,0,0.9937199950218201
1.754273397,0,0,1.8195933103561401,0,0,1.1466000080108643
1.755265032,0,0,1.8124107122421265,0,0,0
1.756273906,0,0,1.8483237028121948,0,0,1.1466000080108643
1.7572930960000002,0,0,2.1092917919158936,0,0,1.070159912109375
1.758278748,0,0,2.0231003761291504,0,0,1.1466000080108643
1.7592682160000002,0,0,1.8602946996688843,0,0,1.070159912109375
1.760241387,0,0,1.7860745191574097,0,0,1.223039984703064
1.761255225,0,0,1.5897499322891235,0,0,1.2994799613952637
1.762226397,0,0,1.680729627609253,0,0,1.1466000080108643
1.763224382,0,0,1.558625340461731,0,0,0.9172800183296204
1.7642247389999999,0,0,1.7142484188079834,0,0,1.1466000080108643
1.765224428,0,0,1.9297266006469727,0,0,1.375920057296753
1.7662236180000002,0,0,2.030282974243164,0,0,1.070159912109375
1.767223697,0,0,1.941697597503662,0,0,1.452359914779663
1.768228127,0,0,2.126051187515259,0,0,0.9172800183296204
1.769226261,0,0,1.8986018896102905,0,0,1.375920057296753
1.7702258020000001,0,0,1.7884687185287476,0,0,1.223039984703064
1.771226085,0,0,1.745373010635376,0,0,1.2994799613952637
1.7722254039999998,0,0,1.702277421951294,0,0,0.9937199950218201
1.7732235200000002,0,0,1.6519991159439087,0,0,1.452359914779663
1.774223487,0,0,1.647210717201233,0,0,0.9937199950218201
1.775223473,0,0,1.8507179021835327,0,0,0.9937199950218201
1.776227162,0,0,1.8914192914962769,0,0,0.2293200045824051
1.7772260370000001,0,0,1.8842366933822632,0,0,1.2994799613952637
1.778226338,0,0,2.185906171798706,0,0,1.2994799613952637
1.779226009,0,0,2.0829553604125977,0,0,1.223039984703064
1.780225328,0,0,1.9033904075622559,0,0,1.223039984703064
1.7812349250000001,0,0,1.8339585065841675,0,0,1.2994799613952637
1.782223967,0,0,1.6160861253738403,0,0,1.375920057296753
1.783223434,0,0,1.7094600200653076,0,0,1.223039984703064
1.784226994,0,0,1.6759412288665771,0,0,1.223039984703064
1.785226073,0,0,1.9081788063049316,0,0,1.070159912109375
1.786226133,0,0,2.056619167327881,0,0,1.1466000080108643
1.787225989,0,0,2.0231003761291504,0,0,1.2994799613952637
1.788224901,0,0,2.030282974243164,0,0,1.2994799613952637
1.789223739,0,0,2.1715409755706787,0,0,1.1466000080108643
1.790223502,0,0,1.9345149993896484,0,0,1.452359914779663
1.791223192,0,0,1.764526605606079,0,0,1.375920057296753
1.793381847,0,0,1.745373010635376,0,0,1.375920057296753
1.793545808,0,0,1.745373010635376,0,0,1.1466000080108643
1.794225817,0,0,1.7286136150360107,0,0,1.1466000080108643
1.795226302,0,0,1.745373010635376,0,0,1.070159912109375
1.7962268620000001,0,0,1.9584569931030273,0,0,0.9937199950218201
1.797223682,0,0,2.011129379272461,0,0,0.5350799560546875
1.798223853,0,0,1.946485996246338,0,0,1.223039984703064
1.799224135,0,0,2.169146776199341,0,0,0.9937199950218201
1.8002270280000001,0,0,1.9919757843017578,0,0,1.070159912109375
1.8012265699999999,0,0,1.8842366933822632,0,0,1.223039984703064
1.8022263710000002,0,0,1.764526605606079,0,0,1.2994799613952637
1.80322619,0,0,1.7094600200653076,0,0,1.605239987373352
1.8042282680000001,0,0,1.7741034030914307,0,0,1.1466000080108643
1.805223791,0,0,1.656787633895874,0,0,1.2994799613952637
1.806223685,0,0,1.9991583824157715,0,0,1.223039984703064
1.807253948,0,0,1.9728221893310547,0,0,0.6879600286483765
1.8082533779999999,0,0,1.9728221893310547,0,0,1.1466000080108643
1.809243642,0,0,2.051830768585205,0,0,1.2994799613952637
1.810236906,0,0,2.229001760482788,0,0,0.9172800183296204
1.811235688,0,0,2.011129379272461,0,0,1.2994799613952637
1.812226989,0,0,1.8602946996688843,0,0,1.375920057296753
1.8132269380000001,0,0,1.6855180263519287,0,0,1.5288000106811523
1.814225609,0,0,1.6927006244659424,0,0,0.7644000053405762
1.8152258730000002,0,0,1.5849615335464478,0,0,1.605239987373352
1.816225803,0,0,1.8626888990402222,0,0,0.9172800183296204
1.817226122,0,0,2.027888774871826,0,0,1.2994799613952637
1.818225794,0,0,1.9800047874450684,0,0,0.7644000053405762
1.819225872,0,0,1.9273324012756348,0,0,1.070159912109375
1.8202285059999999,0,0,2.2242133617401123,0,0,0.9172800183296204
1.8212314360000001,0,0,2.0039467811584473,0,0,1.223039984703064
1.8222357,0,0,1.9776105880737305,0,0,1.375920057296753
1.823226205,0,0,1.8531121015548706,0,0,1.070159912109375
1.824226283,0,0,1.6831238269805908,0,0,1.223039984703064
1.82522601,0,0,1.6711528301239014,0,0,1.223039984703064
1.826225829,0,0,1.5658079385757446,0,0,0.9937199950218201
1.827225759,0,0,1.8171991109848022,0,0,1.1466000080108643
1.828224597,0,0,1.941697597503662,0,0,1.452359914779663
1.829223713,0,0,1.98958158493042,0,0,1.070159912109375
1.8302233650000002,0,0,2.0877439975738525,0,0,1.1466000080108643
1.8312571659999999,0,0,2.0039467811584473,0,0,1.070159912109375
1.832252318,0,0,1.821987509727478,0,0,1.1466000080108643
1.833237786,0,0,1.7094600200653076,0,0,1.375920057296753
1.83425042,0,0,1.623268723487854,0,0,1.375920057296753
1.835244165,0,0,1.7764976024627686,0,0,0.9172800183296204
1.836252114,0,0,1.6352397203445435,0,0,1.2994799613952637
1.837261896,0,0,1.7357962131500244,0,0,0.7644000053405762
1.838244086,0,0,1.8339585065841675,0,0,1.2994799613952637
1.839245072,0,0,1.9608511924743652,0,0,0.9172800183296204
1.840276724,0,0,1.9129672050476074,0,0,1.223039984703064
1.8412744509999999,0,0,2.1380221843719482,0,0,1.1466000080108643
1.842268214,0,0,1.9249382019042969,0,0,1.5288000106811523
1.843275293,0,0,1.889025092124939,0,0,1.1466000080108643
1.844268834,0,0,1.7525556087493896,0,0,1.375920057296753
1.845266728,0,0,1.6663644313812256,0,0,1.452359914779663
1.846262399,0,0,1.6280571222305298,0,0,1.223039984703064
1.847228682,0,0,1.5969325304031372,0,0,0.7644000053405762
1.848261649,0,0,1.7956513166427612,0,0,1.1466000080108643
1.849227209,0,0,2.008735179901123,0,0,1.223039984703064
1.8502244540000001,0,0,1.941697597503662,0,0,0.9937199950218201
1.851223551,0,0,2.0853497982025146,0,0,1.1466000080108643
1.852225056,0,0,1.9560627937316895,0,0,1.1466000080108643
1.853223523,0,0,1.800439715385437,0,0,0.9937199950218201
1.854223342,0,0,1.7477672100067139,0,0,1.1466000080108643
1.855223458,0,0,1.6328455209732056,0,0,1.223039984703064
1.856226277,0,0,1.680729627609253,0,0,1.223039984703064
1.857223985,0,0,1.6328455209732056,0,0,1.452359914779663
1.858223601,0,0,1.7932571172714233,0,0,0.9937199950218201
1.859223605,0,0,1.8483237028121948,0,0,1.2994799613952637
1.860224499,0,0,1.9608511924743652,0,0,0.6879600286483765
1.861223633,0,0,1.9321208000183105,0,0,1.070159912109375
1.862223396,0,0,2.0853497982025146,0,0,1.223039984703064
1.863223197,0,0,1.8507179021835327,0,0,1.2994799613952637
1.8642252940000001,0,0,1.778891921043396,0,0,1.223039984703064
1.865223706,0,0,1.678335428237915,0,0,0.9937199950218201
1.866223433,0,0,1.6615760326385498,0,0,1.375920057296753
1.867223567,0,0,1.5945383310317993,0,0,1.2994799613952637
1.868224442,0,0,1.6711528301239014,0,0,1.1466000080108643
1.869223557,0,0,1.9033904075622559,0,0,0.9172800183296204
1.870223321,0,0,1.9129672050476074,0,0,1.2994799613952637
1.871223177,0,0,1.9249382019042969,0,0,1.070159912109375
1.8722243669999998,0,0,2.1595699787139893,0,0,1.1466000080108643
1.873223705,0,0,1.9991583824157715,0,0,1.223039984703064
1.874222987,0,0,1.8531121015548706,0,0,1.070159912109375
1.875223528,0,0,1.6735470294952393,0,0,1.223039984703064
1.8762246249999999,0,0,1.577778935432434,0,0,1.223039984703064
1.877223463,0,0,1.7142484188079834,0,0,1.375920057296753
1.878222912,0,0,1.6112977266311646,0,0,1.223039984703064
1.8792233980000002,0,0,1.9488801956176758,0,0,1.1466000080108643
1.880224458,0,0,2.011129379272461,0,0,1.605239987373352
1.881223629,0,0,1.9752163887023926,0,0,0.8408399820327759
1.882223578,0,0,2.0422539710998535,0,0,1.223039984703064
1.883223434,0,0,2.070984363555908,0,0,0.8408399820327759
1.884227402,0,0,1.8507179021835327,0,0,1.223039984703064
1.885226295,0,0,1.8531121015548706,0,0,1.223039984703064
1.88622604,0,0,1.7501614093780518,0,0,1.1466000080108643
1.8872263409999999,0,0,1.7597382068634033,0,0,1.223039984703064
1.888226456,0,0,1.5921441316604614,0,0,1.1466000080108643
1.889229609,0,0,1.699883222579956,0,0,0.9172800183296204
1.890225447,0,0,1.9249382019042969,0,0,1.1466000080108643
1.891225914,0,0,1.98958158493042,0,0,1.070159912109375
1.892226363,0,0,1.941697597503662,0,0,1.223039984703064
1.893226219,0,0,2.2361843585968018,0,0,1.1466000080108643
1.894226076,0,0,1.886630892753601,0,0,1.070159912109375
1.895226117,0,0,1.8698714971542358,0,0,1.1466000080108643
1.896225899,0,0,1.8602946996688843,0,0,1.2994799613952637
1.897223571,0,0,1.7190368175506592,0,0,1.375920057296753
1.898223594,0,0,1.6711528301239014,0,0,0.9172800183296204
1.899223005,0,0,1.53707754611969,0,0,1.070159912109375
1.900227862,0,0,1.867477297782898,0,0,1.1466000080108643
1.901226162,0,0,1.8555063009262085,0,0,1.8345600366592407
1.902226148,0,0,1.9393033981323242,0,0,0.6879600286483765
1.903226005,0,0,2.1045033931732178,0,0,1.375920057296753
1.904226509,0,0,2.10210919380188,0,0,1.375920057296753
1.905226051,0,0,1.8938134908676147,0,0,1.375920057296753
1.906225981,0,0,1.7166426181793213,0,0,1.6816799640655518
1.90722593,0,0,1.6879122257232666,0,0,1.223039984703064
1.9082277859999999,0,0,1.7262194156646729,0,0,1.070159912109375
1.9092389939999999,0,0,1.6280571222305298,0,0,1.605239987373352
1.9102265539999999,0,0,1.824381709098816,0,0,0.9937199950218201
1.911225948,0,0,1.8531121015548706,0,0,1.223039984703064
1.912227137,0,0,1.900996208190918,0,0,0.3822000026702881
1.913226031,0,0,1.9536685943603516,0,0,1.1466000080108643
1.914226165,0,0,2.185906171798706,0,0,1.223039984703064
1.9152261689999999,0,0,1.9512743949890137,0,0,1.223039984703064
1.916227192,0,0,1.843535304069519,0,0,1.2994799613952637
1.9172261590000002,0,0,1.8124107122421265,0,0,1.070159912109375
1.918225868,0,0,1.764526605606079,0,0,1.452359914779663
1.919225853,0,0,1.6879122257232666,0,0,1.223039984703064
1.920227339,0,0,1.623268723487854,0,0,1.1466000080108643
1.921225529,0,0,1.86508309841156,0,0,1.1466000080108643
1.922226145,0,0,1.9728221893310547,0,0,1.9109998941421509
1.923226112,0,0,1.9560627937316895,0,0,0.7644000053405762
1.924227042,0,0,2.099714994430542,0,0,1.223039984703064
1.925225806,0,0,2.054224967956543,0,0,1.1466000080108643
1.926226125,0,0,1.9153614044189453,0,0,1.2994799613952637
1.927226222,0,0,1.843535304069519,0,0,1.375920057296753
1.928226856,0,0,1.7118542194366455,0,0,1.2994799613952637
1.929226083,0,0,1.8076223134994507,0,0,0.9172800183296204
1.9302259579999999,0,0,1.6280571222305298,0,0,1.2994799613952637
1.931226092,0,0,1.8387469053268433,0,0,0.8408399820327759
1.9322271149999999,0,0,1.9153614044189453,0,0,0.9937199950218201
1.933226138,0,0,2.0183119773864746,0,0,0.4586400091648102
1.9342258829999999,0,0,2.0422539710998535,0,0,1.223039984703064
1.935226221,0,0,2.205059766769409,0,0,0.9937199950218201
1.9362270769999999,0,0,1.9584569931030273,0,0,1.223039984703064
1.9372261,0,0,1.946485996246338,0,0,1.1466000080108643
1.9382265680000001,0,0,1.824381709098816,0,0,1.070159912109375
1.9392256460000001,0,0,1.7405846118927002,0,0,1.5288000106811523
1.9402273540000001,0,0,1.699883222579956,0,0,1.070159912109375
1.941226099,0,0,1.6639702320098877,0,0,1.375920057296753
1.942225567,0,0,2.0207061767578125,0,0,1.223039984703064
1.943225756,0,0,1.9584569931030273,0,0,1.9874399900436401
1.9442260390000001,0,0,1.9057846069335938,0,0,0.8408399820327759
1.945223747,0,0,2.118868589401245,0,0,1.2994799613952637
1.946223585,0,0,2.027888774871826,0,0,1.1466000080108643
1.947224293,0,0,1.8938134908676147,0,0,1.2994799613952637
1.948256834,0,0,1.8411411046981812,0,0,1.375920057296753
1.9492317639999999,0,0,1.6639702320098877,0,0,1.223039984703064
1.95022801,0,0,1.6663644313812256,0,0,1.223039984703064
1.9512328289999998,0,0,1.6759412288665771,0,0,1.2994799613952637
1.952232333,0,0,1.8986018896102905,0,0,1.070159912109375
1.9532241529999999,0,0,1.9369091987609863,0,0,1.1466000080108643
1.954223602,0,0,2.013523578643799,0,0,0.305759996175766
1.955223847,0,0,2.0590133666992188,0,0,0.9937199950218201
1.956224444,0,0,2.209848165512085,0,0,1.070159912109375
1.957223763,0,0,1.9081788063049316,0,0,1.223039984703064
1.9582234710000002,0,0,1.8842366933822632,0,0,1.070159912109375
1.959223624,0,0,1.8531121015548706,0,0,1.1466000080108643
1.9602264059999999,0,0,1.7310078144073486,0,0,1.223039984703064
1.9612260959999999,0,0,1.6831238269805908,0,0,0.9172800183296204
1.962225952,0,0,1.699883222579956,0,0,0.9172800183296204
1.963226123,0,0,1.8315643072128296,0,0,1.1466000080108643
1.964226239,0,0,1.8698714971542358,0,0,1.9109998941421509
1.965226058,0,0,1.9177556037902832,0,0,0.9937199950218201
1.966226044,0,0,2.1787235736846924,0,0,1.452359914779663
1.9672261039999999,0,0,2.030282974243164,0,0,0.9172800183296204
1.9682274789999998,0,0,1.8387469053268433,0,0,1.375920057296753
1.969225872,0,0,1.7549498081207275,0,0,1.1466000080108643
1.970226191,0,0,1.6400281190872192,0,0,1.375920057296753
1.971226085,0,0,1.764526605606079,0,0,0.9172800183296204
1.972227237,0,0,1.6328455209732056,0,0,1.5288000106811523
1.973239371,0,0,1.8746598958969116,0,0,0.9172800183296204
1.974226598,0,0,1.8914192914962769,0,0,1.223039984703064
1.975226139,0,0,2.011129379272461,0,0,0.611519992351532
1.9762271070000001,0,0,2.075772762298584,0,0,0.8408399820327759
1.977226111,0,0,2.126051187515259,0,0,1.1466000080108643
1.978226227,0,0,1.9273324012756348,0,0,1.223039984703064
1.9792260270000002,0,0,1.8579005002975464,0,0,1.1466000080108643
1.980226606,0,0,1.7525556087493896,0,0,1.2994799613952637
1.981226222,0,0,1.7525556087493896,0,0,1.452359914779663
1.982225763,0,0,1.6974890232086182,0,0,1.070159912109375
1.9832259159999999,0,0,1.778891921043396,0,0,1.1466000080108643
1.984227346,0,0,1.8722656965255737,0,0,1.070159912109375
1.9852259060000002,0,0,1.920149803161621,0,0,1.8345600366592407
1.9862255960000001,0,0,1.9297266006469727,0,0,1.2994799613952637
1.9872261,0,0,2.188300371170044,0,0,1.452359914779663
1.988227142,0,0,1.9919757843017578,0,0,0.9937199950218201
1.989226183,0,0,1.8411411046981812,0,0,1.452359914779663
1.990226262,0,0,1.7717092037200928,0,0,1.1466000080108643
1.9912259140000002,0,0,1.6160861253738403,0,0,0.9937199950218201
1.9922269190000002,0,0,1.6950948238372803,0,0,0.9172800183296204
1.9932262010000001,0,0,1.6208745241165161,0,0,1.452359914779663
1.994226039,0,0,1.9297266006469727,0,0,0.8408399820327759
1.995226025,0,0,2.0254945755004883,0,0,1.1466000080108643
1.9962273069999998,0,0,2.027888774871826,0,0,0.0764399990439415
1.997226145,0,0,2.0422539710998535,0,0,0.8408399820327759
1.99822613,0,0,2.030282974243164,0,0,1.070159912109375
1.999225839,0,0,1.721431016921997,0,0,1.375920057296753
2.00022701,0,0,1.7286136150360107,0,0,1.1466000080108643
2.001226088,0,0,1.702277421951294,0,0,1.2994799613952637
2.002226259,0,0,1.702277421951294,0,0,1.2994799613952637
2.003225967,0,0,1.6663644313812256,0,0,1.223039984703064
2.004226527,0,0,1.7405846118927002,0,0,1.223039984703064
2.005226365,0,0,1.9297266006469727,0,0,1.070159912109375
2.006225944,0,0,1.9393033981323242,0,0,1.8345600366592407
2.007225615,0,0,1.8770540952682495,0,0,1.1466000080108643
2.008227064,0,0,2.0661959648132324,0,0,1.375920057296753
2.009226031,0,0,1.8507179021835327,0,0,1.223039984703064
2.01022611,0,0,1.7956513166427612,0,0,1.2994799613952637
2.011226262,0,0,1.7741034030914307,0,0,1.6816799640655518
2.012226915,0,0,1.6304513216018677,0,0,1.223039984703064
2.013226123,0,0,1.702277421951294,0,0,0.9172800183296204
2.014226035,0,0,1.599326729774475,0,0,1.375920057296753
2.015226113,0,0,1.7693150043487549,0,0,0.9172800183296204
2.016226025,0,0,1.8579005002975464,0,0,1.070159912109375
2.017226085,0,0,1.9129672050476074,0,0,0
2.018226071,0,0,2.0590133666992188,0,0,0.8408399820327759
2.019226094,0,0,2.1523873805999756,0,0,1.2994799613952637
2.020226154,0,0,1.889025092124939,0,0,1.452359914779663
2.021225955,0,0,1.8195933103561401,0,0,1.1466000080108643
2.022225904,0,0,1.7262194156646729,0,0,1.452359914779663
2.023226242,0,0,1.721431016921997,0,0,1.452359914779663
2.02422719,0,0,1.678335428237915,0,0,1.223039984703064
2.025225676,0,0,1.7717092037200928,0,0,0.8408399820327759
2.026226181,0,0,1.920149803161621,0,0,1.223039984703064
2.027226056,0,0,1.9752163887023926,0,0,1.6816799640655518
2.028226967,0,0,1.920149803161621,0,0,1.1466000080108643
2.02922549,0,0,2.1332337856292725,0,0,1.2994799613952637
2.030226143,0,0,1.9105730056762695,0,0,1.223039984703064
2.031226166,0,0,1.867477297782898,0,0,1.223039984703064
2.032226985,0,0,1.8291701078414917,0,0,1.452359914779663
2.033226027,0,0,1.659181833267212,0,0,1.2994799613952637
2.034226253,0,0,1.7932571172714233,0,0,0.9172800183296204
2.035226147,0,0,1.6927006244659424,0,0,1.452359914779663
2.036227096,0,0,1.8626888990402222,0,0,0.9937199950218201
2.037233915,0,0,1.9536685943603516,0,0,1.2994799613952637
2.038226697,0,0,1.9919757843017578,0,0,0.2293200045824051
2.039226257,0,0,2.161964178085327,0,0,1.2994799613952637
2.040227299,0,0,2.0685901641845703,0,0,1.223039984703064
2.041226118,0,0,1.8938134908676147,0,0,1.5288000106811523
2.042226085,0,0,1.821987509727478,0,0,1.1466000080108643
2.043225886,0,0,1.647210717201233,0,0,1.1466000080108643
2.044227261,0,0,1.6759412288665771,0,0,1.1466000080108643
2.045225969,0,0,1.6328455209732056,0,0,1.5288000106811523
2.046226029,0,0,1.8148049116134644,0,0,1.223039984703064
2.047225645,0,0,1.9081788063049316,0,0,1.070159912109375
2.048226945,0,0,2.027888774871826,0,0,1.2994799613952637
2.049349763,0,0,1.9800047874450684,0,0,1.2994799613952637
2.050229787,0,0,2.1475989818573,0,0,1.223039984703064
2.051226459,0,0,1.944091796875,0,0,1.1466000080108643
2.052228259,0,0,1.9321208000183105,0,0,1.1466000080108643
2.053226171,0,0,1.8171991109848022,0,0,1.1466000080108643
2.054226102,0,0,1.7549498081207275,0,0,1.2994799613952637
2.055226124,0,0,1.843535304069519,0,0,0.8408399820327759
2.056227259,0,0,1.7142484188079834,0,0,1.452359914779663
2.057226356,0,0,1.8507179021835327,0,0,1.070159912109375
2.058226008,0,0,1.946485996246338,0,0,1.605239987373352
2.059226198,0,0,1.9345149993896484,0,0,0.5350799560546875
2.060227073,0,0,2.099714994430542,0,0,1.070159912109375
2.061226207,0,0,2.070984363555908,0,0,1.1466000080108643
2.062226267,0,0,1.9273324012756348,0,0,1.1466000080108643
2.063226086,0,0,1.821987509727478,0,0,1.2994799613952637
2.06422635,0,0,1.6639702320098877,0,0,1.375920057296753
2.065226132,0,0,1.8124107122421265,0,0,1.375920057296753
2.066226118,0,0,1.6687586307525635,0,0,1.452359914779663
2.067226104,0,0,1.8148049116134644,0,0,0.8408399820327759
2.068227164,0,0,1.9512743949890137,0,0,0.9937199950218201
2.069226224,0,0,1.9728221893310547,0,0,1.452359914779663
2.07022608,0,0,2.0015525817871094,0,0,0.9172800183296204
2.071225899,0,0,2.1547815799713135,0,0,1.223039984703064
2.072232459,0,0,1.944091796875,0,0,0.8408399820327759
2.073228964,0,0,1.922544002532959,0,0,1.070159912109375
2.07422445,0,0,1.867477297782898,0,0,1.375920057296753
2.075223639,0,0,1.778891921043396,0,0,1.605239987373352
2.076230273,0,0,1.699883222579956,0,0,1.1466000080108643
2.077226352,0,0,1.6855180263519287,0,0,1.375920057296753
2.078226042,0,0,1.9369091987609863,0,0,1.070159912109375
2.079226509,0,0,1.9847931861877441,0,0,1.6816799640655518
2.080224884,0,0,1.8938134908676147,0,0,0.611519992351532
