Time,AccelX1,AccelY1,AccelZ1,AccelX2,AccelY2,AccelZ2
0.000011333,0,0,1.53707754611969,0,0,0.6879600286483765
0.009363427,0,0,1.5658079385757446,0,0,0.6879600286483765
0.009568757,0,0,1.5658079385757446,0,0,1.1466000080108643
0.009745348,0,0,1.5658079385757446,0,0,1.1466000080108643
0.009928345,0,0,1.5658079385757446,0,0,1.8345600366592407
0.010107676,0,0,1.5658079385757446,0,0,1.8345600366592407
0.010279803,0,0,1.5394717454910278,0,0,0.152879998087883
0.01045593,0,0,1.5394717454910278,0,0,0.7644000053405762
0.010629576,0,0,1.5394717454910278,0,0,0.7644000053405762
0.010806185,0,0,1.5394717454910278,0,0,0.5350799560546875
0.010981145,0,0,1.5394717454910278,0,0,0.5350799560546875
0.011256012,0,0,1.601720929145813,0,0,0.7644000053405762
0.012274813,0,0,1.5179238319396973,0,0,0.8408399820327759
0.013272799,0,0,1.4053963422775269,0,0,0.6879600286483765
0.014277211,0,0,1.3623007535934448,0,0,0.8408399820327759
0.015273901,0,0,1.3742717504501343,0,0,0.7644000053405762
0.016271202,0,0,1.3000515699386597,0,0,0.9172800183296204
0.017277763,0,0,1.3982137441635132,0,0,0.5350799560546875
0.018950592,0,0,1.3982137441635132,0,0,0.4586400091648102
0.019445196,0,0,1.434126853942871,0,0,0.6879600286483765
0.020354109,0,0,1.5155296325683594,0,0,0.7644000053405762
0.021246412,0,0,1.5682021379470825,0,0,0.6879600286483765
0.02226262,0,0,1.501164436340332,0,0,1.070159912109375
0.023284773,0,0,1.5107412338256836,0,0,0.5350799560546875
0.024413424,0,0,1.5107412338256836,0,0,0.9172800183296204
0.025236394,0,0,1.4317326545715332,0,0,0.8408399820327759
0.026226677,0,0,1.4389152526855469,0,0,1.070159912109375
0.027224459,0,0,1.3024457693099976,0,0,0.9937199950218201
0.028223946,0,0,1.3934253454208374,0,0,0.8408399820327759
0.029223487,0,0,1.4652514457702637,0,0,0.7644000053405762
0.030225177,0,0,1.5059528350830078,0,0,0.7644000053405762
0.031223775,0,0,1.5083470344543457,0,0,0.611519992351532
0.032224224,0,0,1.4293384552001953,0,0,0.6879600286483765
0.033243858,0,0,1.5322890281677246,0,0,0.6879600286483765
0.034225622,0,0,1.4413094520568848,0,0,0.8408399820327759
0.035224016,0,0,1.3479355573654175,0,0,0.7644000053405762
0.036223188,0,0,1.3934253454208374,0,0,0.8408399820327759
0.037223766,0,0,1.280897855758667,0,0,0.8408399820327759
0.038224512,0,0,1.3024457693099976,0,0,1.070159912109375
0.039224017,0,0,1.290474772453308,0,0,0.611519992351532
0.040223781,0,0,1.4724340438842773,0,0,0.611519992351532
0.041223693,0,0,1.5203180313110352,0,0,0.9172800183296204
0.042224679,0,0,1.5322890281677246,0,0,0.7644000053405762
0.043223628,0,0,1.5514427423477173,0,0,0.9172800183296204
0.044223874,0,0,1.5275006294250488,0,0,0.9937199950218201
0.045223657,0,0,1.436521053314209,0,0,0.8408399820327759
0.046229087,0,0,1.403002142906189,0,0,0.7644000053405762
0.047226851,0,0,1.4077905416488647,0,0,1.070159912109375
0.048226504,0,0,1.3263877630233765,0,0,0.7644000053405762
0.049226416,0,0,1.3455413579940796,0,0,0.9937199950218201
0.050225051,0,0,1.4197616577148438,0,0,0.7644000053405762
0.051223759,0,0,1.4413094520568848,0,0,0.611519992351532
0.052223838,0,0,1.5059528350830078,0,0,0.9937199950218201
0.053223491,0,0,1.5466543436050415,0,0,0.4586400091648102
0.054226811,0,0,1.5059528350830078,0,0,0.9937199950218201
0.055226112,0,0,1.4628572463989258,0,0,0.7644000053405762
0.056226061,0,0,1.4772224426269531,0,0,0.6879600286483765
0.057225603,0,0,1.3263877630233765,0,0,0.8408399820327759
0.058225867,0,0,1.3407529592514038,0,0,1.1466000080108643
0.059226094,0,0,1.4053963422775269,0,0,0.8408399820327759
0.060226191,0,0,1.2761094570159912,0,0,1.070159912109375
0.061225992,0,0,1.290474772453308,0,0,0.6879600286483765
0.06222746,0,0,1.4437036514282227,0,0,0.8408399820327759
0.063225928,0,0,1.5322890281677246,0,0,0.8408399820327759
0.064226173,0,0,1.5490485429763794,0,0,0
0.065234734,0,0,1.5729905366897583,0,0,0.8408399820327759
0.066227294,0,0,1.5729905366897583,0,0,0.6879600286483765
0.067225947,0,0,1.5466543436050415,0,0,1.070159912109375
0.068226193,0,0,1.4101848602294922,0,0,0.6879600286483765
0.069228345,0,0,1.3215993642807007,0,0,0.9172800183296204
0.070227628,0,0,1.3742717504501343,0,0,0.6879600286483765
0.071226003,0,0,1.3527239561080933,0,0,0.8408399820327759
0.072225841,0,0,1.4101848602294922,0,0,0.8408399820327759
0.073225772,0,0,1.3934253454208374,0,0,0.5350799560546875
0.074227129,0,0,1.4772224426269531,0,0,0.7644000053405762
0.075225782,0,0,1.4915876388549805,0,0,1.1466000080108643
0.076225953,0,0,1.482010841369629,0,0,0.5350799560546875
0.077225828,0,0,1.5682021379470825,0,0,0.9172800183296204
0.078227055,0,0,1.4987702369689941,0,0,0.7644000053405762
0.079225356,0,0,1.3646949529647827,0,0,0.9172800183296204
0.080225787,0,0,1.3742717504501343,0,0,0.7644000053405762
0.081225792,0,0,1.3958195447921753,0,0,0.9172800183296204
0.082227019,0,0,1.3766659498214722,0,0,1.070159912109375
0.083225801,0,0,1.3910311460494995,0,0,0.6879600286483765
0.08422588,0,0,1.4748282432556152,0,0,0.6879600286483765
0.085225866,0,0,1.5322890281677246,0,0,0.611519992351532
0.086227149,0,0,1.522712230682373,0,0,0.8408399820327759
0.087225858,0,0,1.5729905366897583,0,0,0.6879600286483765
0.088226029,0,0,1.5442601442337036,0,0,0.8408399820327759
0.089225886,0,0,1.460463047027588,0,0,0.8408399820327759
0.090240242,0,0,1.37906014919281,0,0,0.611519992351532
0.091226025,0,0,1.292868971824646,0,0,0.8408399820327759
0.093055129,0,0,1.292868971824646,0,0,0
0.093218868,0,0,1.3120225667953491,0,0,0.8408399820327759
0.094690366,0,0,1.3120225667953491,0,0,0.8408399820327759
0.095235248,0,0,1.3335703611373901,0,0,0.611519992351532
0.096228401,0,0,1.4772224426269531,0,0,0.9172800183296204
0.097228979,0,0,1.5107412338256836,0,0,0.9937199950218201
0.098347538,0,0,1.5107412338256836,0,0,0.5350799560546875
0.09927921,0,0,1.5729905366897583,0,0,0.7644000053405762
0.100577082,0,0,1.5849615335464478,0,0,0.9172800183296204
0.101263054,0,0,1.357512354850769,0,0,0.6879600286483765
0.103201842,0,0,1.3982137441635132,0,0,1.1466000080108643
0.103369747,0,0,1.3982137441635132,0,0,0.7644000053405762
0.104253846,0,0,1.2856862545013428,0,0,0.7644000053405762
0.105251295,0,0,1.3024457693099976,0,0,0.8408399820327759
0.106259355,0,0,1.403002142906189,0,0,0.6879600286483765
0.109547514,0,0,1.434126853942871,0,0,0.6879600286483765
0.109762789,0,0,1.434126853942871,0,0,0.6879600286483765
0.109929546,0,0,1.434126853942871,0,0,1.223039984703064
0.110233653,0,0,1.4700398445129395,0,0,1.070159912109375
0.111914611,0,0,1.4700398445129395,0,0,0.9172800183296204
0.112282939,0,0,1.3838485479354858,0,0,0.7644000053405762
0.113242352,0,0,1.2976573705673218,0,0,0.6879600286483765
0.114274282,0,0,1.4293384552001953,0,0,0.7644000053405762
0.115301305,0,0,1.3958195447921753,0,0,0.7644000053405762
0.11626944,0,0,1.357512354850769,0,0,0.9937199950218201
0.117476812,0,0,1.403002142906189,0,0,0.9172800183296204
0.118263228,0,0,1.4772224426269531,0,0,0.9172800183296204
0.119227788,0,0,1.4867992401123047,0,0,0.611519992351532
0.120225719,0,0,1.5418659448623657,0,0,0.611519992351532
0.121239872,0,0,1.534683346748352,0,0,0.9937199950218201
0.122230229,0,0,1.4508862495422363,0,0,0.9172800183296204
0.123226308,0,0,1.4221558570861816,0,0,0.5350799560546875
0.124225646,0,0,1.4077905416488647,0,0,1.070159912109375
0.125226076,0,0,1.4293384552001953,0,0,0.8408399820327759
0.126227285,0,0,1.3958195447921753,0,0,0.9172800183296204
0.127226197,0,0,1.3886369466781616,0,0,0.9937199950218201
0.12822598,0,0,1.3886369466781616,0,0,0.7644000053405762
0.129254577,0,0,1.41257905960083,0,0,0.9172800183296204
0.130227897,0,0,1.50355863571167,0,0,0.7644000053405762
0.132425255,0,0,1.50355863571167,0,0,0.7644000053405762
0.132590142,0,0,1.50355863571167,0,0,0.8408399820327759
0.133231337,0,0,1.599326729774475,0,0,1.1466000080108643
0.134228064,0,0,1.4245500564575195,0,0,0.6879600286483765
0.13522605,0,0,1.3239935636520386,0,0,0.9172800183296204
0.136226277,0,0,1.3503297567367554,0,0,0.8408399820327759
0.137226319,0,0,1.3000515699386597,0,0,0.7644000053405762
0.138228064,0,0,1.3287819623947144,0,0,0.9937199950218201
0.139226088,0,0,1.3239935636520386,0,0,0.611519992351532
0.140226222,0,0,1.4484920501708984,0,0,1.1466000080108643
0.141226153,0,0,1.4197616577148438,0,0,0.9937199950218201
0.142227084,0,0,1.4532804489135742,0,0,0.6879600286483765
0.143226477,0,0,1.4748282432556152,0,0,0.7644000053405762
0.144227908,0,0,1.4915876388549805,0,0,1.1466000080108643
0.145230524,0,0,1.5107412338256836,0,0,0.6879600286483765
0.146227492,0,0,1.290474772453308,0,0,0.6879600286483765
0.147226071,0,0,1.2832920551300049,0,0,0.6879600286483765
0.148226335,0,0,1.3479355573654175,0,0,0.9172800183296204
0.149226062,0,0,1.4293384552001953,0,0,0.9172800183296204
0.150227159,0,0,1.3718775510787964,0,0,0.611519992351532
0.151226256,0,0,1.4077905416488647,0,0,0.7644000053405762
0.152226094,0,0,1.4460978507995605,0,0,0.9937199950218201
0.153230655,0,0,1.4772224426269531,0,0,0.7644000053405762
0.1542274,0,0,1.4413094520568848,0,0,1.070159912109375
0.155226183,0,0,1.400607943534851,0,0,0.9172800183296204
0.156226262,0,0,1.3718775510787964,0,0,0.611519992351532
0.157226248,0,0,1.3670891523361206,0,0,1.070159912109375
0.158226179,0,0,1.4173674583435059,0,0,0.8408399820327759
0.159223739,0,0,1.3670891523361206,0,0,0.9172800183296204
0.16022367,0,0,1.280897855758667,0,0,0.9937199950218201
0.161223526,0,0,1.4772224426269531,0,0,0.9937199950218201
0.162237679,0,0,1.5610195398330688,0,0,0.8408399820327759
0.163262758,0,0,1.4844050407409668,0,0,0.6879600286483765
0.16427617,0,0,1.4508862495422363,0,0,0.611519992351532
0.165236527,0,0,1.4867992401123047,0,0,0.8408399820327759
0.166233124,0,0,1.4724340438842773,0,0,0.9172800183296204
0.167253184,0,0,1.3742717504501343,0,0,0.7644000053405762
0.168268207,0,0,1.3742717504501343,0,0,0.8408399820327759
0.169251472,0,0,1.3838485479354858,0,0,0.7644000053405762
0.170245699,0,0,1.335964560508728,0,0,0.6879600286483765
0.171241167,0,0,1.3024457693099976,0,0,0.9937199950218201
0.172269764,0,0,1.3694833517074585,0,0,0.4586400091648102
0.17325662,0,0,1.5466543436050415,0,0,0.8408399820327759
0.174254107,0,0,1.5179238319396973,0,0,0.8408399820327759
0.175247445,0,0,1.5083470344543457,0,0,0.611519992351532
0.176247746,0,0,1.525106430053711,0,0,0.9172800183296204
0.177245343,0,0,1.5418659448623657,0,0,0.9172800183296204
0.178246144,0,0,1.3455413579940796,0,0,0.6879600286483765
0.179270371,0,0,1.3455413579940796,0,0,0.5350799560546875
0.180252821,0,0,1.3311761617660522,0,0,0.7644000053405762
0.18124514,0,0,1.316810965538025,0,0,0.7644000053405762
0.182245738,0,0,1.434126853942871,0,0,0.9937199950218201
0.183242243,0,0,1.3862427473068237,0,0,0.6879600286483765
0.184244432,0,0,1.5059528350830078,0,0,0.7644000053405762
0.185238678,0,0,1.5466543436050415,0,0,0.611519992351532
0.1863232,0,0,1.482010841369629,0,0,0.9172800183296204
0.18737563,0,0,1.5298948287963867,0,0,0.9172800183296204
0.188761296,0,0,1.4532804489135742,0,0,0.8408399820327759
0.190061686,0,0,1.4532804489135742,0,0,0.3822000026702881
0.190247665,0,0,1.455674648284912,0,0,0.8408399820327759
0.191240188,0,0,1.4173674583435059,0,0,0.9937199950218201
0.192231712,0,0,1.3024457693099976,0,0,0.7644000053405762
0.193228291,0,0,1.2856862545013428,0,0,0.9937199950218201
0.195021377,0,0,1.2856862545013428,0,0,0.9937199950218201
0.195188727,0,0,1.5466543436050415,0,0,1.070159912109375
0.196235601,0,0,1.53707754611969,0,0,0.6879600286483765
0.197234865,0,0,1.460463047027588,0,0,0.611519992351532
0.198229074,0,0,1.5394717454910278,0,0,0.8408399820327759
0.199227116,0,0,1.455674648284912,0,0,0.6879600286483765
0.200227139,0,0,1.4389152526855469,0,0,0.611519992351532
0.201225607,0,0,1.3479355573654175,0,0,0.8408399820327759
0.202227074,0,0,1.4508862495422363,0,0,0.9937199950218201
0.20322882,0,0,1.4532804489135742,0,0,0.8408399820327759
0.204227714,0,0,1.381454348564148,0,0,0.9937199950218201
0.205227718,0,0,1.3623007535934448,0,0,0.8408399820327759
0.206229168,0,0,1.4532804489135742,0,0,0.7644000053405762
0.20722982,0,0,1.4389152526855469,0,0,0.8408399820327759
0.20822751,0,0,1.53707754611969,0,0,0.9937199950218201
0.209227478,0,0,1.522712230682373,0,0,0.8408399820327759
0.210248798,0,0,1.50355863571167,0,0,0.8408399820327759
0.211229173,0,0,1.4317326545715332,0,0,0.8408399820327759
0.212226956,0,0,1.3623007535934448,0,0,0.611519992351532
0.213226349,0,0,1.41257905960083,0,0,1.070159912109375
0.214228317,0,0,1.3072341680526733,0,0,0.611519992351532
0.215228359,0,0,1.3024457693099976,0,0,0.9172800183296204
0.216225975,0,0,1.3670891523361206,0,0,0.9937199950218201
0.217226998,0,0,1.4844050407409668,0,0,0.5350799560546875
0.21822791,0,0,1.5131354331970215,0,0,0.7644000053405762
0.219227082,0,0,1.5442601442337036,0,0,0.9172800183296204
0.220225975,0,0,1.5538369417190552,0,0,0.611519992351532
0.221226739,0,0,1.5179238319396973,0,0,1.070159912109375
0.222228392,0,0,1.4173674583435059,0,0,1.070159912109375
0.223228971,0,0,1.3096283674240112,0,0,0.9172800183296204
0.224227531,0,0,1.3431471586227417,0,0,1.223039984703064
0.225227147,0,0,1.2976573705673218,0,0,0.8408399820327759
0.226229856,0,0,1.4460978507995605,0,0,1.070159912109375
0.227348729,0,0,1.50355863571167,0,0,0.8408399820327759
0.229193704,0,0,1.50355863571167,0,0,1.9109998941421509
0.229364461,0,0,1.556231141090393,0,0,0.9937199950218201
0.230270245,0,0,1.434126853942871,0,0,0.7644000053405762
0.231276731,0,0,1.5849615335464478,0,0,0.611519992351532
0.23230081,0,0,1.599326729774475,0,0,0.7644000053405762
0.233310185,0,0,1.501164436340332,0,0,0.6879600286483765
0.234323819,0,0,1.436521053314209,0,0,0.9937199950218201
0.235265547,0,0,1.3503297567367554,0,0,0.4586400091648102
0.236259811,0,0,1.359906554222107,0,0,0.611519992351532
0.237258797,0,0,1.4460978507995605,0,0,0.9937199950218201
0.238239635,0,0,1.4484920501708984,0,0,0.9172800183296204
0.239284195,0,0,1.5059528350830078,0,0,0.6879600286483765
0.240252256,0,0,1.53707754611969,0,0,0.9172800183296204
0.241246261,0,0,1.4939818382263184,0,0,0.8408399820327759
0.242251414,0,0,1.5394717454910278,0,0,0.9937199950218201
0.243255678,0,0,1.5275006294250488,0,0,0.7644000053405762
0.244228461,0,0,1.4293384552001953,0,0,0.9172800183296204
0.24522578,0,0,1.335964560508728,0,0,0.9172800183296204
0.246226248,0,0,1.400607943534851,0,0,1.070159912109375
0.247225716,0,0,1.316810965538025,0,0,0.8408399820327759
0.248225609,0,0,1.3311761617660522,0,0,0.8408399820327759
0.249225781,0,0,1.335964560508728,0,0,0.9937199950218201
0.250225471,0,0,1.45806884765625,0,0,0.8408399820327759
0.251225642,0,0,1.5418659448623657,0,0,0
0.252225591,0,0,1.4484920501708984,0,0,0.9937199950218201
0.253225189,0,0,1.50355863571167,0,0,0.5350799560546875
0.254225712,0,0,1.5394717454910278,0,0,1.070159912109375
0.25522568,0,0,1.5945383310317993,0,0,1.070159912109375
0.256225648,0,0,1.4245500564575195,0,0,0.7644000053405762
0.257253578,0,0,1.3000515699386597,0,0,0.8408399820327759
0.258228176,0,0,1.3623007535934448,0,0,0.9172800183296204
0.25922594,0,0,1.3646949529647827,0,0,0.8408399820327759
0.260225648,0,0,1.400607943534851,0,0,1.070159912109375
0.261225653,0,0,1.4221558570861816,0,0,0.8408399820327759
0.262227417,0,0,1.5394717454910278,0,0,0.611519992351532
0.263225607,0,0,1.5107412338256836,0,0,0.8408399820327759
0.264225741,0,0,1.4652514457702637,0,0,0.6879600286483765
0.265225672,0,0,1.4748282432556152,0,0,0.8408399820327759
0.266236751,0,0,1.4508862495422363,0,0,0.7644000053405762
0.267227274,0,0,1.3886369466781616,0,0,0.9172800183296204
0.268238779,0,0,1.434126853942871,0,0,0.9172800183296204
0.269227302,0,0,1.3742717504501343,0,0,0.6879600286483765
0.2702269,0,0,1.278503656387329,0,0,1.070159912109375
0.271225756,0,0,1.3479355573654175,0,0,0.7644000053405762
0.272225854,0,0,1.4772224426269531,0,0,0.6879600286483765
0.27322584,0,0,1.460463047027588,0,0,0.6879600286483765
0.274225419,0,0,1.534683346748352,0,0,0.8408399820327759
0.275224813,0,0,1.4891934394836426,0,0,0.8408399820327759
0.276938808,0,0,1.5059528350830078,0,0,0.9937199950218201
0.277267581,0,0,1.455674648284912,0,0,1.1466000080108643
0.278268623,0,0,1.37906014919281,0,0,0.7644000053405762
0.279247443,0,0,1.3718775510787964,0,0,1.2994799613952637
0.281296007,0,0,1.4389152526855469,0,0,0.7644000053405762
0.28148569,0,0,1.3742717504501343,0,0,0.8408399820327759
0.282256142,0,0,1.3742717504501343,0,0,0.7644000053405762
0.28329422,0,0,1.3646949529647827,0,0,0.9172800183296204
0.284395631,0,0,1.558625340461731,0,0,0.6879600286483765
0.286100478,0,0,1.5155296325683594,0,0,0.9937199950218201
0.286265902,0,0,1.436521053314209,0,0,0.7644000053405762
0.287260629,0,0,1.50355863571167,0,0,1.070159912109375
0.288794997,0,0,1.4676456451416016,0,0,1.223039984703064
0.289242731,0,0,1.2689268589019775,0,0,0.5350799560546875
0.290279884,0,0,1.3215993642807007,0,0,0.7644000053405762
0.291254592,0,0,1.4269442558288574,0,0,0.9937199950218201
0.293004254,0,0,1.381454348564148,0,0,0.9937199950218201
0.293172362,0,0,1.3479355573654175,0,0,0.9172800183296204
0.294518899,0,0,1.3766659498214722,0,0,0.9172800183296204
0.295300278,0,0,1.4867992401123047,0,0,0.611519992351532
0.296271672,0,0,1.53707754611969,0,0,0.6879600286483765
0.29727951,0,0,1.5107412338256836,0,0,0.7644000053405762
0.298264941,0,0,1.50355863571167,0,0,0.8408399820327759
0.299263779,0,0,1.4867992401123047,0,0,1.223039984703064
0.300241339,0,0,1.3934253454208374,0,0,0.8408399820327759
0.301224752,0,0,1.3694833517074585,0,0,0.611519992351532
0.302226923,0,0,1.357512354850769,0,0,0.7644000053405762
0.30322378,0,0,1.316810965538025,0,0,0.611519992351532
0.304223655,0,0,1.3527239561080933,0,0,0.9172800183296204
0.305223678,0,0,1.359906554222107,0,0,0.7644000053405762
0.306227257,0,0,1.5275006294250488,0,0,0.6879600286483765
0.30722391,0,0,1.580173134803772,0,0,0.7644000053405762
0.308223563,0,0,1.5059528350830078,0,0,0.5350799560546875
0.309223568,0,0,1.5298948287963867,0,0,0.8408399820327759
0.31022448,0,0,1.5466543436050415,0,0,1.1466000080108643
0.311223466,0,0,1.3718775510787964,0,0,0.7644000053405762
0.31222349,0,0,1.3311761617660522,0,0,0
0.313223569,0,0,1.4077905416488647,0,0,1.1466000080108643
0.314223647,0,0,1.4053963422775269,0,0,0.9937199950218201
0.315223448,0,0,1.3886369466781616,0,0,0.6879600286483765
0.316223398,0,0,1.3742717504501343,0,0,0.8408399820327759
0.317223291,0,0,1.50355863571167,0,0,0.5350799560546875
0.318224555,0,0,1.5634137392044067,0,0,0.7644000053405762
0.319223023,0,0,1.53707754611969,0,0,0.9937199950218201
0.320223287,0,0,1.5322890281677246,0,0,0.9172800183296204
0.321223588,0,0,1.5107412338256836,0,0,1.070159912109375
0.322224167,0,0,1.4269442558288574,0,0,0.7644000053405762
0.323223542,0,0,1.357512354850769,0,0,0.7644000053405762
0.32422338,0,0,1.338358759880066,0,0,1.223039984703064
0.325223422,0,0,1.2880805730819702,0,0,0.8408399820327759
0.326225834,0,0,1.400607943534851,0,0,1.070159912109375
0.327223858,0,0,1.4484920501708984,0,0,0.7644000053405762
0.328234436,0,0,1.482010841369629,0,0,0.611519992351532
0.329225886,0,0,1.5897499322891235,0,0,0.611519992351532
0.330225317,0,0,1.5490485429763794,0,0,0.9172800183296204
0.331223803,0,0,1.5394717454910278,0,0,0.611519992351532
0.332223548,0,0,1.4939818382263184,0,0,1.070159912109375
0.33322359,0,0,1.45806884765625,0,0,0.9172800183296204
0.334224558,0,0,1.4269442558288574,0,0,1.070159912109375
0.335223859,0,0,1.3910311460494995,0,0,1.1466000080108643
0.336223475,0,0,1.403002142906189,0,0,0.8408399820327759
0.337223017,0,0,1.37906014919281,0,0,0.5350799560546875
0.338223873,0,0,1.357512354850769,0,0,0.6879600286483765
0.339223471,0,0,1.4413094520568848,0,0,0.9172800183296204
0.340223438,0,0,1.4532804489135742,0,0,0.7644000053405762
0.341222925,0,0,1.4748282432556152,0,0,0.611519992351532
0.34222467,0,0,1.5298948287963867,0,0,0.7644000053405762
0.343223564,0,0,1.4915876388549805,0,0,0.9937199950218201
0.344223532,0,0,1.3934253454208374,0,0,0.611519992351532
0.345223499,0,0,1.3838485479354858,0,0,0.6879600286483765
0.346224282,0,0,1.3646949529647827,0,0,0.7644000053405762
0.347223379,0,0,1.400607943534851,0,0,0.6879600286483765
0.348223384,0,0,1.3742717504501343,0,0,0.9937199950218201
0.349223574,0,0,1.4293384552001953,0,0,0.9172800183296204
0.350227653,0,0,1.5394717454910278,0,0,1.070159912109375
0.351226602,0,0,1.522712230682373,0,0,0.611519992351532
0.352226348,0,0,1.5298948287963867,0,0,1.223039984703064
0.353227149,0,0,1.5203180313110352,0,0,0.6879600286483765
0.354384392,0,0,1.455674648284912,0,0,0.9172800183296204
0.355228973,0,0,1.3718775510787964,0,0,0.8408399820327759
0.356226293,0,0,1.3431471586227417,0,0,0.6879600286483765
0.357226446,0,0,1.4700398445129395,0,0,0.8408399820327759
0.358228488,0,0,1.4389152526855469,0,0,0.6879600286483765
0.35922564,0,0,1.4197616577148438,0,0,0.9172800183296204
0.360226108,0,0,1.3910311460494995,0,0,0.8408399820327759
0.36122578,0,0,1.4389152526855469,0,0,0
0.362227433,0,0,1.5490485429763794,0,0,0.7644000053405762
0.363225474,0,0,1.5083470344543457,0,0,0.8408399820327759
0.364226442,0,0,1.5059528350830078,0,0,0.5350799560546875
0.365226151,0,0,1.5298948287963867,0,0,0.6879600286483765
0.3662276,0,0,1.4628572463989258,0,0,1.223039984703064
0.367226457,0,0,1.4053963422775269,0,0,0.8408399820327759
0.368226054,0,0,1.3958195447921753,0,0,0.9172800183296204
0.369234744,0,0,1.2497732639312744,0,0,0.4586400091648102
0.370227638,0,0,1.2952631711959839,0,0,0.6879600286483765
0.371226198,0,0,1.4077905416488647,0,0,0.9937199950218201
0.372226184,0,0,1.4389152526855469,0,0,0.5350799560546875
0.373226319,0,0,1.4844050407409668,0,0,0.7644000053405762
0.37422636,0,0,1.4867992401123047,0,0,0.7644000053405762
0.375226402,0,0,1.53707754611969,0,0,0.6879600286483765
0.376226092,0,0,1.4484920501708984,0,0,0.7644000053405762
0.37722606,0,0,1.5131354331970215,0,0,0.8408399820327759
0.378227213,0,0,1.3862427473068237,0,0,0.7644000053405762
0.379226125,0,0,1.357512354850769,0,0,0.9937199950218201
0.38022626,0,0,1.3551181554794312,0,0,0.6879600286483765
0.381235894,0,0,1.3862427473068237,0,0,0.9172800183296204
0.382266398,0,0,1.3239935636520386,0,0,0.8408399820327759
0.383242107,0,0,1.3431471586227417,0,0,0.9172800183296204
0.384225871,0,0,1.5466543436050415,0,0,0.6879600286483765
0.385227006,0,0,1.5083470344543457,0,0,1.1466000080108643
0.386230288,0,0,1.4772224426269531,0,0,0.4586400091648102
0.387226219,0,0,1.525106430053711,0,0,0.9172800183296204
0.388226002,0,0,1.4963760375976563,0,0,0.9172800183296204
0.389226006,0,0,1.3910311460494995,0,0,0.6879600286483765
0.390227381,0,0,1.3958195447921753,0,0,1.070159912109375
0.391226275,0,0,1.4053963422775269,0,0,0.7644000053405762
0.392226021,0,0,1.3479355573654175,0,0,0.9172800183296204
0.393226248,0,0,1.4293384552001953,0,0,0.6879600286483765
0.394226827,0,0,1.4173674583435059,0,0,0.6879600286483765
0.395225646,0,0,1.4987702369689941,0,0,0.5350799560546875
0.396225614,0,0,1.5179238319396973,0,0,0.9172800183296204
0.397241952,0,0,1.5179238319396973,0,0,0.6879600286483765
0.398229346,0,0,1.5322890281677246,0,0,0.9172800183296204
0.399224017,0,0,1.4915876388549805,0,0,0.9937199950218201
0.400223855,0,0,1.3694833517074585,0,0,0.6879600286483765
0.401223879,0,0,1.3694833517074585,0,0,0.9937199950218201
0.402227476,0,0,1.4053963422775269,0,0,0.6879600286483765
0.403226018,0,0,1.3048399686813354,0,0,0.8408399820327759
0.404226152,0,0,1.3551181554794312,0,0,0.9172800183296204
0.405225805,0,0,1.41257905960083,0,0,0.8408399820327759
0.406227014,0,0,1.45806884765625,0,0,0.6879600286483765
0.407226055,0,0,1.4460978507995605,0,0,0.8408399820327759
0.408226042,0,0,1.4963760375976563,0,0,0.6879600286483765
0.409226213,0,0,1.5203180313110352,0,0,0.8408399820327759
0.41022644,0,0,1.4915876388549805,0,0,1.070159912109375
0.411226352,0,0,1.3910311460494995,0,0,0.9172800183296204
0.412226135,0,0,1.338358759880066,0,0,0.9172800183296204
0.413225862,0,0,1.3263877630233765,0,0,0.9937199950218201
0.414227181,0,0,1.338358759880066,0,0,0.8408399820327759
0.415226205,0,0,1.4437036514282227,0,0,0.8408399820327759
0.416226136,0,0,1.4748282432556152,0,0,0.6879600286483765
0.417227677,0,0,1.522712230682373,0,0,0.9172800183296204
0.418257682,0,0,1.5322890281677246,0,0,0.9172800183296204
0.41924615,0,0,1.4844050407409668,0,0,0.611519992351532
0.420226544,0,0,1.4700398445129395,0,0,0.8408399820327759
0.421225993,0,0,1.4652514457702637,0,0,0.9172800183296204
0.422230349,0,0,1.3120225667953491,0,0,0.611519992351532
0.423226113,0,0,1.3527239561080933,0,0,0.8408399820327759
0.42422597,0,0,1.3479355573654175,0,0,0.9172800183296204
0.425225845,0,0,1.292868971824646,0,0,1.223039984703064
0.426227257,0,0,1.3215993642807007,0,0,0.8408399820327759
0.42722541,0,0,1.4628572463989258,0,0,0.9937199950218201
0.428226119,0,0,1.5298948287963867,0,0,0.8408399820327759
0.429226161,0,0,1.6208745241165161,0,0,0.9172800183296204
0.430227184,0,0,1.6184803247451782,0,0,1.070159912109375
0.431226022,0,0,1.5131354331970215,0,0,0.7644000053405762
0.43222599,0,0,1.41257905960083,0,0,0.7644000053405762
0.43323405,0,0,1.3934253454208374,0,0,0.5350799560546875
0.434229203,0,0,1.400607943534851,0,0,0.7644000053405762
0.435226226,0,0,1.403002142906189,0,0,0.7644000053405762
0.436226065,0,0,1.290474772453308,0,0,0.8408399820327759
0.437225958,0,0,1.3551181554794312,0,0,0.8408399820327759
0.438227204,0,0,1.4101848602294922,0,0,0.9172800183296204
0.439226153,0,0,1.5418659448623657,0,0,0.5350799560546875
0.440226047,0,0,1.5849615335464478,0,0,1.1466000080108643
0.4412262,0,0,1.4173674583435059,0,0,0.7644000053405762
0.44222739,0,0,1.455674648284912,0,0,0.7644000053405762
0.443226357,0,0,1.4676456451416016,0,0,0.9172800183296204
0.444226251,0,0,1.482010841369629,0,0,0.6879600286483765
0.445225719,0,0,1.4628572463989258,0,0,0.611519992351532
0.446227705,0,0,1.3551181554794312,0,0,0.7644000053405762
0.447225988,0,0,1.3096283674240112,0,0,0.8408399820327759
0.448225918,0,0,1.3000515699386597,0,0,0.7644000053405762
0.44922559,0,0,1.3407529592514038,0,0,0.6879600286483765
0.45022728,0,0,1.4173674583435059,0,0,0.6879600286483765
0.451225877,0,0,1.434126853942871,0,0,0.6879600286483765
0.452225956,0,0,1.4437036514282227,0,0,0.8408399820327759
0.453231164,0,0,1.479616641998291,0,0,0.6879600286483765
0.454226762,0,0,1.4915876388549805,0,0,0.8408399820327759
0.455226044,0,0,1.4628572463989258,0,0,0.7644000053405762
0.456225994,0,0,1.4245500564575195,0,0,0.611519992351532
0.457226017,0,0,1.357512354850769,0,0,0.9172800183296204
0.458227207,0,0,1.4293384552001953,0,0,0.6879600286483765
0.459225989,0,0,1.3886369466781616,0,0,0.9172800183296204
0.460226031,0,0,1.3982137441635132,0,0,0.6879600286483765
0.461225795,0,0,1.4891934394836426,0,0,0.9172800183296204
0.462227189,0,0,1.3934253454208374,0,0,1.1466000080108643
0.463226194,0,0,1.5131354331970215,0,0,0.9172800183296204
0.464226032,0,0,1.482010841369629,0,0,0.5350799560546875
0.465225981,0,0,1.4867992401123047,0,0,1.070159912109375
0.466226727,0,0,1.479616641998291,0,0,0.8408399820327759
0.467225176,0,0,1.314416766166687,0,0,0.6879600286483765
0.468260736,0,0,1.3455413579940796,0,0,1.1466000080108643
0.469227556,0,0,1.3718775510787964,0,0,0.9172800183296204
0.470227338,0,0,1.3239935636520386,0,0,1.070159912109375
0.471225862,0,0,1.3287819623947144,0,0,0.7644000053405762
0.472226126,0,0,1.4867992401123047,0,0,0.7644000053405762
0.473226019,0,0,1.5107412338256836,0,0,0.8408399820327759
0.47422708,0,0,1.5705963373184204,0,0,0.9937199950218201
0.475225936,0,0,1.5538369417190552,0,0,0.9172800183296204
0.476226071,0,0,1.558625340461731,0,0,1.1466000080108643
0.477226094,0,0,1.4293384552001953,0,0,0.8408399820327759
0.478228136,0,0,1.3670891523361206,0,0,0.7644000053405762
0.479226122,0,0,1.4269442558288574,0,0,1.1466000080108643
0.480226146,0,0,1.3670891523361206,0,0,0.6879600286483765
0.481228002,0,0,1.3048399686813354,0,0,0.8408399820327759
0.482227711,0,0,1.434126853942871,0,0,0.7644000053405762
0.48322616,0,0,1.482010841369629,0,0,0.9172800183296204
0.484226035,0,0,1.4652514457702637,0,0,0.9172800183296204
0.485225873,0,0,1.5083470344543457,0,0,0.8408399820327759
0.486227378,0,0,1.4413094520568848,0,0,0.5350799560546875
0.487226049,0,0,1.4269442558288574,0,0,0.8408399820327759
0.488241073,0,0,1.3838485479354858,0,0,0.8408399820327759
0.489311762,0,0,1.41257905960083,0,0,0.7644000053405762
0.490284396,0,0,1.45806884765625,0,0,0.7644000053405762
0.491810153,0,0,1.3646949529647827,0,0,0.7644000053405762
0.492230258,0,0,1.278503656387329,0,0,0.8408399820327759
0.493228041,0,0,1.359906554222107,0,0,0.9172800183296204
0.49422575,0,0,1.434126853942871,0,0,0.7644000053405762
0.495223865,0,0,1.4891934394836426,0,0,0.9937199950218201
0.49622463,0,0,1.4891934394836426,0,0,0.9937199950218201
0.497234579,0,0,1.5490485429763794,0,0,0.8408399820327759
0.498225306,0,0,1.5131354331970215,0,0,0.6879600286483765
0.499223681,0,0,1.4053963422775269,0,0,0.9172800183296204
0.50022376,0,0,1.3335703611373901,0,0,0.9172800183296204
0.501223616,0,0,1.414973258972168,0,0,1.1466000080108643
0.502224732,0,0,1.3934253454208374,0,0,0.8408399820327759
0.503223737,0,0,1.41257905960083,0,0,0.6879600286483765
0.50422376,0,0,1.4915876388549805,0,0,0.8408399820327759
0.505223839,0,0,1.4700398445129395,0,0,0.8408399820327759
0.506227085,0,0,1.4724340438842773,0,0,0.8408399820327759
0.50722583,0,0,1.4844050407409668,0,0,0.9172800183296204
0.508226057,0,0,1.4700398445129395,0,0,0.9172800183296204
0.509225673,0,0,1.41257905960083,0,0,0.9937199950218201
0.510226845,0,0,1.3838485479354858,0,0,0.9172800183296204
0.511224998,0,0,1.381454348564148,0,0,0.8408399820327759
0.51222541,0,0,1.4221558570861816,0,0,0.9937199950218201
0.513290136,0,0,1.4221558570861816,0,0,0.6879600286483765
0.514251734,0,0,1.4437036514282227,0,0,0.9172800183296204
0.515228406,0,0,1.403002142906189,0,0,1.070159912109375
0.516226133,0,0,1.4652514457702637,0,0,0.611519992351532
0.517226026,0,0,1.4891934394836426,0,0,0.9172800183296204
0.518227846,0,0,1.558625340461731,0,0,0.7644000053405762
0.519225943,0,0,1.4987702369689941,0,0,0.8408399820327759
0.52022567,0,0,1.4867992401123047,0,0,0.7644000053405762
0.521225916,0,0,1.5418659448623657,0,0,0.9937199950218201
0.522226847,0,0,1.3646949529647827,0,0,1.070159912109375
0.523225962,0,0,1.4221558570861816,0,0,0.9937199950218201
0.524225949,0,0,1.381454348564148,0,0,0.5350799560546875
0.525225694,0,0,1.335964560508728,0,0,1.070159912109375
0.526226792,0,0,1.3886369466781616,0,0,0.9937199950218201
0.527225926,0,0,1.4197616577148438,0,0,0.8408399820327759
0.528225931,0,0,1.460463047027588,0,0,0.611519992351532
0.529225473,0,0,1.4676456451416016,0,0,0.8408399820327759
0.530227181,0,0,1.5298948287963867,0,0,0.9172800183296204
0.531225964,0,0,1.5275006294250488,0,0,0.6879600286483765
0.532225302,0,0,1.4748282432556152,0,0,0.9172800183296204
0.533230288,0,0,1.436521053314209,0,0,0.7644000053405762
0.534228052,0,0,1.4173674583435059,0,0,0.8408399820327759
0.535225798,0,0,1.3694833517074585,0,0,0.611519992351532
0.536226025,0,0,1.3431471586227417,0,0,0.7644000053405762
0.53722577,0,0,1.3263877630233765,0,0,0.7644000053405762
0.53822696,0,0,1.455674648284912,0,0,0.6879600286483765
0.539225909,0,0,1.525106430053711,0,0,0.7644000053405762
0.540226007,0,0,1.5131354331970215,0,0,0.9937199950218201
0.541225826,0,0,1.5155296325683594,0,0,0.6879600286483765
0.542227202,0,0,1.4987702369689941,0,0,0.8408399820327759
0.543226095,0,0,1.4987702369689941,0,0,0.9172800183296204
0.544225748,0,0,1.3862427473068237,0,0,0.6879600286483765
0.545225716,0,0,1.3527239561080933,0,0,0.9172800183296204
0.546227073,0,0,1.3670891523361206,0,0,0.6879600286483765
0.547226022,0,0,1.3886369466781616,0,0,0.7644000053405762
0.548225675,0,0,1.4221558570861816,0,0,0.6879600286483765
0.549225976,0,0,1.4269442558288574,0,0,0.7644000053405762
0.550226944,0,0,1.53707754611969,0,0,0.8408399820327759
0.551226559,0,0,1.5945383310317993,0,0,0.8408399820327759
0.552228583,0,0,1.501164436340332,0,0,0.611519992351532
0.55322605,0,0,1.4700398445129395,0,0,0.8408399820327759
0.554226389,0,0,1.4867992401123047,0,0,1.223039984703064
0.555225949,0,0,1.3263877630233765,0,0,0.5350799560546875
0.556225935,0,0,1.3910311460494995,0,0,0.7644000053405762
0.557225736,0,0,1.4484920501708984,0,0,0.6879600286483765
0.558227093,0,0,1.3407529592514038,0,0,0.6879600286483765
0.559225598,0,0,1.3623007535934448,0,0,1.223039984703064
0.56022888,0,0,1.381454348564148,0,0,0.6879600286483765
0.561226033,0,0,1.50355863571167,0,0,0.7644000053405762
0.562227612,0,0,1.556231141090393,0,0,1.070159912109375
0.563225709,0,0,1.5179238319396973,0,0,0.8408399820327759
0.564226085,0,0,1.4867992401123047,0,0,0.6879600286483765
0.565225534,0,0,1.5155296325683594,0,0,1.1466000080108643
0.566227279,0,0,1.3503297567367554,0,0,0.611519992351532
0.567225895,0,0,1.316810965538025,0,0,0.6879600286483765
0.568225826,0,0,1.3335703611373901,0,0,0.7644000053405762
0.56922596,0,0,1.3072341680526733,0,0,0.9172800183296204
0.57022715,0,0,1.3527239561080933,0,0,0.9937199950218201
0.571225785,0,0,1.4508862495422363,0,0,0.5350799560546875
0.572225512,0,0,1.5131354331970215,0,0,0.7644000053405762
0.573225665,0,0,1.534683346748352,0,0,0.8408399820327759
0.574226855,0,0,1.4413094520568848,0,0,0.611519992351532
0.575225378,0,0,1.460463047027588,0,0,0.9937199950218201
0.576225364,0,0,1.45806884765625,0,0,1.070159912109375
0.577225758,0,0,1.4293384552001953,0,0,0.6879600286483765
0.578226985,0,0,1.3718775510787964,0,0,0.7644000053405762
0.579225675,0,0,1.501164436340332,0,0,1.070159912109375
0.58022592,0,0,1.3982137441635132,0,0,0.6879600286483765
0.581225796,0,0,1.3192051649093628,0,0,0.9937199950218201
0.582226819,0,0,1.403002142906189,0,0,0.8408399820327759
0.583225972,0,0,1.4652514457702637,0,0,0.9172800183296204
0.584225699,0,0,1.5131354331970215,0,0,0.9172800183296204
0.585225889,0,0,1.5059528350830078,0,0,0.6879600286483765
0.586226745,0,0,1.5466543436050415,0,0,0.9172800183296204
0.587226028,0,0,1.4891934394836426,0,0,0.9937199950218201
0.588225792,0,0,1.3910311460494995,0,0,0.7644000053405762
0.589225797,0,0,1.335964560508728,0,0,0.9172800183296204
0.590226913,0,0,1.400607943534851,0,0,0.9937199950218201
0.591225843,0,0,1.37906014919281,0,0,0.8408399820327759
0.592225811,0,0,1.3982137441635132,0,0,0.9172800183296204
0.593225946,0,0,1.4269442558288574,0,0,0.611519992351532
0.594226543,0,0,1.45806884765625,0,0,0.4586400091648102
0.595225751,0,0,1.4748282432556152,0,0,0.9172800183296204
0.5962637,0,0,1.5155296325683594,0,0,0.8408399820327759
0.597239113,0,0,1.6136919260025024,0,0,1.070159912109375
0.598230729,0,0,1.5658079385757446,0,0,0.8408399820327759
0.599226011,0,0,1.4460978507995605,0,0,0.9172800183296204
0.600225924,0,0,1.3192051649093628,0,0,1.1466000080108643
0.601225669,0,0,1.3838485479354858,0,0,0.611519992351532
0.602239692,0,0,1.3431471586227417,0,0,0.7644000053405762
0.603226753,0,0,1.3215993642807007,0,0,0.9172800183296204
0.604266201,0,0,1.357512354850769,0,0,0.5350799560546875
0.605259243,0,0,1.5275006294250488,0,0,1.070159912109375
0.606267637,0,0,1.5322890281677246,0,0,0.8408399820327759
0.607254697,0,0,1.4437036514282227,0,0,0.3822000026702881
0.608227258,0,0,1.4748282432556152,0,0,0.9172800183296204
0.609226615,0,0,1.4844050407409668,0,0,0.9172800183296204
0.610229138,0,0,1.4101848602294922,0,0,0.6879600286483765
0.611226013,0,0,1.3646949529647827,0,0,0.5350799560546875
0.61222574,0,0,1.3455413579940796,0,0,0.8408399820327759
0.613225967,0,0,1.290474772453308,0,0,0.8408399820327759
0.614226842,0,0,1.3838485479354858,0,0,0.7644000053405762
0.615225255,0,0,1.436521053314209,0,0,0.8408399820327759
0.616225815,0,0,1.4844050407409668,0,0,0.5350799560546875
0.61722582,0,0,1.4077905416488647,0,0,0.6879600286483765
0.618226732,0,0,1.4101848602294922,0,0,0.6879600286483765
0.619225311,0,0,1.5107412338256836,0,0,0.7644000053405762
0.62022589,0,0,1.5203180313110352,0,0,0.9172800183296204
0.62122582,0,0,1.4748282432556152,0,0,0.9172800183296204
0.622226825,0,0,1.3670891523361206,0,0,1.070159912109375
0.623225904,0,0,1.4317326545715332,0,0,1.070159912109375
0.624225575,0,0,1.3670891523361206,0,0,1.1466000080108643
0.625225932,0,0,1.3215993642807007,0,0,0.611519992351532
0.626226844,0,0,1.4389152526855469,0,0,0.9937199950218201
0.627225719,0,0,1.522712230682373,0,0,0.6879600286483765
0.628225835,0,0,1.53707754611969,0,0,0.8408399820327759
0.629225729,0,0,1.4915876388549805,0,0,0.7644000053405762
0.630226289,0,0,1.4413094520568848,0,0,0.8408399820327759
0.63122785,0,0,1.4293384552001953,0,0,0.9937199950218201
0.632260206,0,0,1.460463047027588,0,0,0.8408399820327759
0.633265062,0,0,1.41257905960083,0,0,0.9937199950218201
0.634232901,0,0,1.3646949529647827,0,0,0.9937199950218201
0.635226739,0,0,1.3479355573654175,0,0,0.611519992351532
0.636225503,0,0,1.3455413579940796,0,0,0.9937199950218201
0.637225082,0,0,1.3407529592514038,0,0,0.9172800183296204
0.638225809,0,0,1.4221558570861816,0,0,0.6879600286483765
0.639225869,0,0,1.5059528350830078,0,0,0.7644000053405762
0.640241541,0,0,1.5298948287963867,0,0,0.6879600286483765
0.641225805,0,0,1.501164436340332,0,0,0.5350799560546875
0.642226551,0,0,1.4676456451416016,0,0,0.8408399820327759
0.643346628,0,0,1.4963760375976563,0,0,0.9172800183296204
0.644227467,0,0,1.4437036514282227,0,0,0.7644000053405762
0.645226343,0,0,1.4460978507995605,0,0,1.2994799613952637
0.646228033,0,0,1.3694833517074585,0,0,0.7644000053405762
0.647226278,0,0,1.357512354850769,0,0,0.611519992351532
0.648226524,0,0,1.357512354850769,0,0,0.7644000053405762
0.649226103,0,0,1.4844050407409668,0,0,0.8408399820327759
0.650227552,0,0,1.4532804489135742,0,0,0.9172800183296204
0.651226316,0,0,1.3886369466781616,0,0,0.8408399820327759
0.652226228,0,0,1.4867992401123047,0,0,0.5350799560546875
0.653227677,0,0,1.5131354331970215,0,0,0.8408399820327759
0.654227126,0,0,1.5107412338256836,0,0,1.070159912109375
0.655226316,0,0,1.3215993642807007,0,0,0.611519992351532
0.656226118,0,0,1.37906014919281,0,0,1.070159912109375
0.657226345,0,0,1.4484920501708984,0,0,0.7644000053405762
0.658227405,0,0,1.3239935636520386,0,0,1.1466000080108643
0.65922628,0,0,1.3335703611373901,0,0,0.9937199950218201
0.660226137,0,0,1.4652514457702637,0,0,0.611519992351532
0.661226382,0,0,1.50355863571167,0,0,0.7644000053405762
0.662227239,0,0,1.4867992401123047,0,0,0.611519992351532
0.663226318,0,0,1.482010841369629,0,0,0.611519992351532
0.664228026,0,0,1.4389152526855469,0,0,0.9172800183296204
0.665250808,0,0,1.3479355573654175,0,0,0.9937199950218201
0.666232091,0,0,1.3287819623947144,0,0,0.9172800183296204
0.667226466,0,0,1.359906554222107,0,0,0.9937199950218201
0.668254563,0,0,1.3311761617660522,0,0,0.5350799560546875
0.669249587,0,0,1.2880805730819702,0,0,0.6879600286483765
0.670231462,0,0,1.3000515699386597,0,0,0.8408399820327759
0.671226782,0,0,1.37906014919281,0,0,0.6879600286483765
0.67222649,0,0,1.4077905416488647,0,0,0.9172800183296204
0.673226088,0,0,1.4652514457702637,0,0,0.9172800183296204
0.6742275,0,0,1.4915876388549805,0,0,0.7644000053405762
0.675226653,0,0,1.4963760375976563,0,0,0.9172800183296204
0.676226361,0,0,1.5059528350830078,0,0,0.7644000053405762
0.677226292,0,0,1.400607943534851,0,0,0.6879600286483765
0.678227204,0,0,1.3503297567367554,0,0,0.9172800183296204
0.679226283,0,0,1.3886369466781616,0,0,0.6879600286483765
0.680226047,0,0,1.2952631711959839,0,0,1.070159912109375
0.681226163,0,0,1.3072341680526733,0,0,0.7644000053405762
0.682227575,0,0,1.3838485479354858,0,0,0.6879600286483765
0.683225895,0,0,1.4101848602294922,0,0,0.8408399820327759
0.684225863,0,0,1.3982137441635132,0,0,0.9172800183296204
0.685226386,0,0,1.4628572463989258,0,0,0.9172800183296204
0.686227372,0,0,1.4221558570861816,0,0,0.9172800183296204
0.687226044,0,0,1.45806884765625,0,0,0.8408399820327759
0.688226345,0,0,1.414973258972168,0,0,0.611519992351532
0.68922609,0,0,1.3503297567367554,0,0,0.611519992351532
0.690228873,0,0,1.3886369466781616,0,0,1.223039984703064
0.691226248,0,0,1.3694833517074585,0,0,0.8408399820327759
0.692226216,0,0,1.3934253454208374,0,0,0.9937199950218201
0.693226443,0,0,1.3623007535934448,0,0,1.070159912109375
0.694225448,0,0,1.4700398445129395,0,0,0.8408399820327759
0.695223693,0,0,1.4939818382263184,0,0,0.9172800183296204
0.696223513,0,0,1.4724340438842773,0,0,0.6879600286483765
0.697223647,0,0,1.5107412338256836,0,0,0.611519992351532
0.698225022,0,0,1.4389152526855469,0,0,0.8408399820327759
0.699223823,0,0,1.4437036514282227,0,0,0.8408399820327759
0.700223384,0,0,1.4772224426269531,0,0,0.6879600286483765
0.701223537,0,0,1.3886369466781616,0,0,0.6879600286483765
0.702224153,0,0,1.359906554222107,0,0,0.7644000053405762
0.703223546,0,0,1.41257905960083,0,0,0.611519992351532
0.704223514,0,0,1.4460978507995605,0,0,0.8408399820327759
0.705223759,0,0,1.4053963422775269,0,0,0.8408399820327759
0.706224635,0,0,1.4077905416488647,0,0,0.7644000053405762
0.707223713,0,0,1.5275006294250488,0,0,0.6879600286483765
0.708223422,0,0,1.4413094520568848,0,0,0.9937199950218201
0.709223427,0,0,1.3982137441635132,0,0,1.070159912109375
0.710231506,0,0,1.436521053314209,0,0,0.5350799560546875
0.711224455,0,0,1.338358759880066,0,0,0.8408399820327759
0.712223682,0,0,1.37906014919281,0,0,0.8408399820327759
0.713223613,0,0,1.280897855758667,0,0,0.6879600286483765
0.714227265,0,0,1.3192051649093628,0,0,0.9172800183296204
0.71522627,0,0,1.335964560508728,0,0,0.9172800183296204
0.716226294,0,0,1.4293384552001953,0,0,0.7644000053405762
0.717226132,0,0,1.4748282432556152,0,0,0.8408399820327759
0.718227396,0,0,1.4628572463989258,0,0,0.6879600286483765
0.719226271,0,0,1.4245500564575195,0,0,0.9172800183296204
0.720226165,0,0,1.3431471586227417,0,0,0.9172800183296204
0.721226058,0,0,1.400607943534851,0,0,0.7644000053405762
0.722227193,0,0,1.3239935636520386,0,0,0.8408399820327759
0.723225846,0,0,1.335964560508728,0,0,0.7644000053405762
0.724226424,0,0,1.2976573705673218,0,0,0.9937199950218201
0.725226207,0,0,1.2761094570159912,0,0,0.9172800183296204
0.726227415,0,0,1.2976573705673218,0,0,0.9172800183296204
0.727225883,0,0,1.4484920501708984,0,0,0.8408399820327759
0.728226499,0,0,1.5275006294250488,0,0,0.9937199950218201
0.729226226,0,0,1.4987702369689941,0,0,0.9172800183296204
0.730227268,0,0,1.434126853942871,0,0,0.611519992351532
0.731226254,0,0,1.5466543436050415,0,0,0.9172800183296204
0.732226037,0,0,1.4508862495422363,0,0,0.7644000053405762
0.733226171,0,0,1.4245500564575195,0,0,0.5350799560546875
0.73422712,0,0,1.3958195447921753,0,0,1.070159912109375
0.735226218,0,0,1.3503297567367554,0,0,0.6879600286483765
0.736226037,0,0,1.3455413579940796,0,0,0.9937199950218201
0.737226209,0,0,1.37906014919281,0,0,0.8408399820327759
0.73822701,0,0,1.4317326545715332,0,0,0.6879600286483765
0.739226311,0,0,1.3934253454208374,0,0,0.9937199950218201
0.740226334,0,0,1.4317326545715332,0,0,0.611519992351532
0.741226191,0,0,1.4748282432556152,0,0,0.6879600286483765
0.74222714,0,0,1.4652514457702637,0,0,0.9172800183296204
0.743226089,0,0,1.460463047027588,0,0,0.6879600286483765
0.744226316,0,0,1.3623007535934448,0,0,0.6879600286483765
0.745225784,0,0,1.3934253454208374,0,0,0.9937199950218201
0.746227178,0,0,1.3527239561080933,0,0,0.6879600286483765
0.747226109,0,0,1.3551181554794312,0,0,0.7644000053405762
0.748225817,0,0,1.3934253454208374,0,0,0.9937199950218201
0.749225896,0,0,1.4772224426269531,0,0,0.611519992351532
0.75022729,0,0,1.5705963373184204,0,0,0.6879600286483765
0.751226165,0,0,1.5538369417190552,0,0,0.8408399820327759
0.752226318,0,0,1.525106430053711,0,0,0.7644000053405762
0.753247026,0,0,1.53707754611969,0,0,0.7644000053405762
0.754228309,0,0,1.4844050407409668,0,0,0.9172800183296204
0.755226369,0,0,1.3407529592514038,0,0,0.7644000053405762
0.756226059,0,0,1.357512354850769,0,0,0.9172800183296204
0.757228582,0,0,1.357512354850769,0,0,0.9172800183296204
0.758242309,0,0,1.3263877630233765,0,0,0.8408399820327759
0.759226703,0,0,1.37906014919281,0,0,1.1466000080108643
0.760226337,0,0,1.4915876388549805,0,0,0.8408399820327759
0.761226083,0,0,1.5107412338256836,0,0,0.9937199950218201
0.762227273,0,0,1.4987702369689941,0,0,0.7644000053405762
0.76322587,0,0,1.5514427423477173,0,0,0.6879600286483765
0.764226134,0,0,1.4389152526855469,0,0,1.1466000080108643
0.76522651,0,0,1.3862427473068237,0,0,0.9172800183296204
0.766227403,0,0,1.414973258972168,0,0,0.7644000053405762
0.767226167,0,0,1.4077905416488647,0,0,0.9172800183296204
0.768226172,0,0,1.3407529592514038,0,0,0.8408399820327759
0.769226344,0,0,1.3551181554794312,0,0,0.9937199950218201
0.770226904,0,0,1.3431471586227417,0,0,0.9172800183296204
0.77122639,0,0,1.4628572463989258,0,0,0.6879600286483765
0.77222595,0,0,1.5155296325683594,0,0,0.6879600286483765
0.773225974,0,0,1.5514427423477173,0,0,0.7644000053405762
0.774227256,0,0,1.53707754611969,0,0,0.9937199950218201
0.775226206,0,0,1.5514427423477173,0,0,1.070159912109375
0.776226229,0,0,1.4245500564575195,0,0,0.9172800183296204
0.777225993,0,0,1.3934253454208374,0,0,0.7644000053405762
0.778227164,0,0,1.4460978507995605,0,0,1.070159912109375
0.779226243,0,0,1.3239935636520386,0,0,0.7644000053405762
0.780226174,0,0,1.3527239561080933,0,0,0.8408399820327759
0.781226197,0,0,1.3431471586227417,0,0,0.9172800183296204
0.782227035,0,0,1.414973258972168,0,0,0.611519992351532
0.783226133,0,0,1.4963760375976563,0,0,0.611519992351532
0.784226156,0,0,1.4748282432556152,0,0,0.7644000053405762
0.785226235,0,0,1.5753847360610962,0,0,0.7644000053405762
0.786227184,0,0,1.522712230682373,0,0,0.611519992351532
0.787226226,0,0,1.3862427473068237,0,0,0.9172800183296204
0.788225601,0,0,1.357512354850769,0,0,0.9172800183296204
0.789226161,0,0,1.338358759880066,0,0,1.070159912109375
0.790226907,0,0,1.3431471586227417,0,0,0.611519992351532
0.791226078,0,0,1.2952631711959839,0,0,0.9937199950218201
0.792225935,0,0,1.4293384552001953,0,0,1.1466000080108643
0.793226347,0,0,1.4867992401123047,0,0,0.7644000053405762
0.794227167,0,0,1.4891934394836426,0,0,0.611519992351532
0.795226264,0,0,1.558625340461731,0,0,0.8408399820327759
0.796226288,0,0,1.522712230682373,0,0,0.4586400091648102
0.797226144,0,0,1.482010841369629,0,0,0.8408399820327759
0.798226834,0,0,1.4891934394836426,0,0,0.9937199950218201
0.799226339,0,0,1.4867992401123047,0,0,0.6879600286483765
0.800226455,0,0,1.4437036514282227,0,0,1.070159912109375
0.80122633,0,0,1.3838485479354858,0,0,0.8408399820327759
0.802227168,0,0,1.3766659498214722,0,0,0.9937199950218201
0.803226228,0,0,1.4508862495422363,0,0,1.223039984703064
0.804226067,0,0,1.5059528350830078,0,0,0.8408399820327759
0.805238497,0,0,1.5538369417190552,0,0,0.8408399820327759
0.806228817,0,0,1.5610195398330688,0,0,1.1466000080108643
0.807226488,0,0,1.5514427423477173,0,0,0.4586400091648102
0.808226215,0,0,1.4891934394836426,0,0,0.611519992351532
0.80922635,0,0,1.460463047027588,0,0,0.9172800183296204
0.810227318,0,0,1.357512354850769,0,0,0.6879600286483765
0.811241248,0,0,1.381454348564148,0,0,0.9937199950218201
0.812226772,0,0,1.501164436340332,0,0,0.611519992351532
0.813225887,0,0,1.3886369466781616,0,0,0.8408399820327759
0.814227226,0,0,1.3215993642807007,0,0,0.7644000053405762
0.81522623,0,0,1.381454348564148,0,0,0.8408399820327759
0.81622618,0,0,1.455674648284912,0,0,0.8408399820327759
0.817232407,0,0,1.534683346748352,0,0,0.9172800183296204
0.818227263,0,0,1.4987702369689941,0,0,0.8408399820327759
0.819226101,0,0,1.522712230682373,0,0,0.6879600286483765
0.820226254,0,0,1.4939818382263184,0,0,0.9172800183296204
0.821226074,0,0,1.4628572463989258,0,0,1.070159912109375
0.822227116,0,0,1.4389152526855469,0,0,1.070159912109375
0.823226083,0,0,1.4963760375976563,0,0,0.5350799560546875
0.82422631,0,0,1.3455413579940796,0,0,0.7644000053405762
0.825226241,0,0,1.3910311460494995,0,0,0.7644000053405762
0.826227413,0,0,1.455674648284912,0,0,0.7644000053405762
0.827226177,0,0,1.5682021379470825,0,0,0.6879600286483765
0.82822607,0,0,1.5155296325683594,0,0,0.9937199950218201
0.829226131,0,0,1.4724340438842773,0,0,0.9937199950218201
0.830227117,0,0,1.4413094520568848,0,0,0.7644000053405762
0.831225733,0,0,1.4772224426269531,0,0,0.9937199950218201
0.832226293,0,0,1.4053963422775269,0,0,0.8408399820327759
0.833228891,0,0,1.3527239561080933,0,0,0.7644000053405762
0.834227395,0,0,1.3958195447921753,0,0,0.9172800183296204
0.835225696,0,0,1.3431471586227417,0,0,1.1466000080108643
0.836226238,0,0,1.4173674583435059,0,0,0.611519992351532
0.837226188,0,0,1.4628572463989258,0,0,0.9172800183296204
0.838226377,0,0,1.5298948287963867,0,0,0.8408399820327759
0.839226271,0,0,1.5107412338256836,0,0,1.1466000080108643
0.840226202,0,0,1.4221558570861816,0,0,0.611519992351532
0.841226244,0,0,1.482010841369629,0,0,0.8408399820327759
0.842226174,0,0,1.455674648284912,0,0,0.9937199950218201
0.843223568,0,0,1.3958195447921753,0,0,0.8408399820327759
0.84422374,0,0,1.357512354850769,0,0,1.070159912109375
0.845223726,0,0,1.4053963422775269,0,0,0.7644000053405762
0.84622799,0,0,1.3718775510787964,0,0,0.6879600286483765
0.847226421,0,0,1.316810965538025,0,0,0.8408399820327759
0.848226296,0,0,1.335964560508728,0,0,0.7644000053405762
0.849226023,0,0,1.4844050407409668,0,0,0.7644000053405762
0.850227083,0,0,1.558625340461731,0,0,0.611519992351532
0.851226051,0,0,1.5275006294250488,0,0,0.6879600286483765
0.852226185,0,0,1.4844050407409668,0,0,0.9937199950218201
0.85322556,0,0,1.5442601442337036,0,0,1.070159912109375
0.854227417,0,0,1.5131354331970215,0,0,0.6879600286483765
0.855226218,0,0,1.41257905960083,0,0,1.1466000080108643
0.856225649,0,0,1.403002142906189,0,0,0.8408399820327759
0.857226061,0,0,1.335964560508728,0,0,0.8408399820327759
0.858227121,0,0,1.3838485479354858,0,0,0.6879600286483765
0.859226182,0,0,1.3862427473068237,0,0,0.611519992351532
0.860226335,0,0,1.4700398445129395,0,0,0.8408399820327759
0.861226191,0,0,1.5514427423477173,0,0,0.8408399820327759
0.862226863,0,0,1.5059528350830078,0,0,0.7644000053405762
0.863225942,0,0,1.4939818382263184,0,0,0.8408399820327759
0.864225909,0,0,1.4987702369689941,0,0,1.070159912109375
0.865226044,0,0,1.5298948287963867,0,0,0.6879600286483765
0.866227067,0,0,1.400607943534851,0,0,0.8408399820327759
0.867226183,0,0,1.403002142906189,0,0,1.070159912109375
0.868226077,0,0,1.4389152526855469,0,0,0.6879600286483765
0.869226267,0,0,1.3958195447921753,0,0,1.070159912109375
0.870226327,0,0,1.3646949529647827,0,0,0.9172800183296204
0.871226128,0,0,1.5107412338256836,0,0,0.8408399820327759
0.872226392,0,0,1.5059528350830078,0,0,0.9172800183296204
0.873225952,0,0,1.525106430053711,0,0,0.611519992351532
0.874226661,0,0,1.4437036514282227,0,0,0.9937199950218201
0.875226369,0,0,1.4508862495422363,0,0,1.223039984703064
0.876225911,0,0,1.4460978507995605,0,0,0.611519992351532
0.877226101,0,0,1.3623007535934448,0,0,0.7644000053405762
0.87822431,0,0,1.4245500564575195,0,0,0.5350799560546875
0.879223777,0,0,1.3455413579940796,0,0,0.8408399820327759
0.880223375,0,0,1.3192051649093628,0,0,0.9937199950218201
0.881232361,0,0,1.3215993642807007,0,0,0.6879600286483765
0.882232551,0,0,1.4293384552001953,0,0,0.9172800183296204
0.883262074,0,0,1.4844050407409668,0,0,0.611519992351532
0.884262468,0,0,1.5275006294250488,0,0,0.611519992351532
0.885228806,0,0,1.4772224426269531,0,0,0.6879600286483765
0.886230829,0,0,1.4437036514282227,0,0,0.9172800183296204
0.887226168,0,0,1.4987702369689941,0,0,0.5350799560546875
0.888358874,0,0,1.3862427473068237,0,0,0.7644000053405762
0.889241918,0,0,1.4269442558288574,0,0,20.409481048583984
0.890474827,0,0,1.359906554222107,0,0,0
0.891264334,0,0,1.3742717504501343,0,0,0.9172800183296204
0.892241376,0,0,1.3742717504501343,0,0,0.611519992351532
0.893231215,0,0,1.4173674583435059,0,0,0.9172800183296204
0.894227497,0,0,1.482010841369629,0,0,0.8408399820327759
0.895226558,0,0,1.5514427423477173,0,0,0.611519992351532
0.896225896,0,0,1.5466543436050415,0,0,0.6879600286483765
0.897226123,0,0,1.5083470344543457,0,0,0.6879600286483765
0.898226257,0,0,1.4652514457702637,0,0,0.8408399820327759
0.89922591,0,0,1.3742717504501343,0,0,0.8408399820327759
0.900225971,0,0,1.4293384552001953,0,0,0.8408399820327759
0.901226346,0,0,1.4077905416488647,0,0,0.8408399820327759
0.90222698,0,0,1.3503297567367554,0,0,0.9172800183296204
0.903226559,0,0,1.359906554222107,0,0,0.9937199950218201
0.904226471,0,0,1.4197616577148438,0,0,0.7644000053405762
0.90522655,0,0,1.479616641998291,0,0,0.8408399820327759
0.90622674,0,0,1.479616641998291,0,0,0.9937199950218201
0.90722643,0,0,1.4987702369689941,0,0,0.9172800183296204
0.908226435,0,0,1.5275006294250488,0,0,1.070159912109375
0.909226477,0,0,1.482010841369629,0,0,0.6879600286483765
0.910226629,0,0,1.403002142906189,0,0,0.611519992351532
0.911226671,0,0,1.4293384552001953,0,0,0.7644000053405762
0.912226454,0,0,1.400607943534851,0,0,0.7644000053405762
0.913226403,0,0,1.3431471586227417,0,0,0.9937199950218201
0.914226408,0,0,1.4077905416488647,0,0,0.6879600286483765
0.915226672,0,0,1.5203180313110352,0,0,0.9172800183296204
0.91622638,0,0,1.4628572463989258,0,0,0.611519992351532
0.917226385,0,0,1.4987702369689941,0,0,0.6879600286483765
0.918358184,0,0,1.5275006294250488,0,0,0.7644000053405762
0.919226117,0,0,1.5729905366897583,0,0,0.8408399820327759
0.920224029,0,0,1.50355863571167,0,0,1.070159912109375
0.921223478,0,0,1.4269442558288574,0,0,0.9172800183296204
0.922226872,0,0,1.381454348564148,0,0,1.1466000080108643
0.923226247,0,0,1.3335703611373901,0,0,0.8408399820327759
0.924225993,0,0,1.2737152576446533,0,0,0.7644000053405762
0.925225942,0,0,1.359906554222107,0,0,0.611519992351532
0.926227188,0,0,1.3910311460494995,0,0,0.4586400091648102
0.927225729,0,0,1.5203180313110352,0,0,0.6879600286483765
0.928225845,0,0,1.5538369417190552,0,0,0.9172800183296204
0.929226128,0,0,1.4508862495422363,0,0,0.7644000053405762
0.930227096,0,0,1.4652514457702637,0,0,0.9937199950218201
0.931225841,0,0,1.525106430053711,0,0,1.070159912109375
0.932225976,0,0,1.4460978507995605,0,0,0.7644000053405762
0.933225851,0,0,1.4460978507995605,0,0,0.9937199950218201
0.934226892,0,0,1.3862427473068237,0,0,1.1466000080108643
0.935225971,0,0,1.2545616626739502,0,0,1.070159912109375
0.936226106,0,0,1.2689268589019775,0,0,0.7644000053405762
0.937225907,0,0,1.3958195447921753,0,0,0
0.938227189,0,0,1.5466543436050415,0,0,0.9937199950218201
0.939225528,0,0,1.5155296325683594,0,0,0.8408399820327759
0.940225847,0,0,1.5729905366897583,0,0,0.8408399820327759
0.941225815,0,0,1.6089035272598267,0,0,0.9937199950218201
0.942227023,0,0,1.5418659448623657,0,0,1.070159912109375
0.943225584,0,0,1.359906554222107,0,0,0.8408399820327759
0.944225866,0,0,1.2713210582733154,0,0,1.070159912109375
0.945241001,0,0,1.400607943534851,0,0,0.9172800183296204
0.946226691,0,0,1.3886369466781616,0,0,0.9172800183296204
0.947225955,0,0,1.3431471586227417,0,0,0.7644000053405762
0.948225885,0,0,1.3215993642807007,0,0,0.8408399820327759
0.949225853,0,0,1.436521053314209,0,0,0.9172800183296204
0.950227395,0,0,1.4460978507995605,0,0,0.9172800183296204
0.951225789,0,0,1.5873557329177856,0,0,0.7644000053405762
0.952226016,0,0,1.5155296325683594,0,0,0.6879600286483765
0.95322602,0,0,1.45806884765625,0,0,0.9172800183296204
0.954226951,0,0,1.455674648284912,0,0,0.8408399820327759
0.955225863,0,0,1.41257905960083,0,0,0
0.956225813,0,0,1.357512354850769,0,0,0.7644000053405762
0.957225743,0,0,1.278503656387329,0,0,1.070159912109375
0.95822673,0,0,1.3263877630233765,0,0,1.1466000080108643
0.959225975,0,0,1.3694833517074585,0,0,0.9937199950218201
0.960225832,0,0,1.4676456451416016,0,0,0.8408399820327759
0.961225559,0,0,1.455674648284912,0,0,0.7644000053405762
0.96222636,0,0,1.3982137441635132,0,0,0.611519992351532
0.963225957,0,0,1.4389152526855469,0,0,0.8408399820327759
0.964225462,0,0,1.4939818382263184,0,0,0.9172800183296204
0.965225856,0,0,1.357512354850769,0,0,0.9172800183296204
0.966226879,0,0,1.3646949529647827,0,0,0.6879600286483765
0.967226569,0,0,1.4197616577148438,0,0,0.5350799560546875
0.968225722,0,0,1.3096283674240112,0,0,0.7644000053405762
0.969225819,0,0,1.3958195447921753,0,0,0.9172800183296204
0.970227176,0,0,1.434126853942871,0,0,0.5350799560546875
0.971226014,0,0,1.50355863571167,0,0,0.7644000053405762
0.972225723,0,0,1.5418659448623657,0,0,0.9937199950218201
0.973226042,0,0,1.5155296325683594,0,0,0.6879600286483765
0.974226954,0,0,1.5418659448623657,0,0,0.7644000053405762
0.975225829,0,0,1.5322890281677246,0,0,0.9937199950218201
0.976225705,0,0,1.357512354850769,0,0,0.611519992351532
0.977225932,0,0,1.414973258972168,0,0,1.070159912109375
0.978227103,0,0,1.4077905416488647,0,0,0.5350799560546875
0.979225997,0,0,1.3192051649093628,0,0,0.8408399820327759
0.980225779,0,0,1.4652514457702637,0,0,0.8408399820327759
0.98122608,0,0,1.3934253454208374,0,0,0.8408399820327759
0.982226474,0,0,1.4963760375976563,0,0,0.6879600286483765
0.983225683,0,0,1.4915876388549805,0,0,0.7644000053405762
0.984225576,0,0,1.4748282432556152,0,0,0.6879600286483765
0.985225859,0,0,1.5394717454910278,0,0,0.9172800183296204
0.986226012,0,0,1.5705963373184204,0,0,0.7644000053405762
0.987226072,0,0,1.434126853942871,0,0,0.611519992351532
0.988225799,0,0,1.2665326595306396,0,0,0.7644000053405762
0.989225693,0,0,1.3407529592514038,0,0,0.9937199950218201
0.990227216,0,0,1.400607943534851,0,0,0.7644000053405762
0.991226128,0,0,1.3694833517074585,0,0,0.9937199950218201
0.992225744,0,0,1.3646949529647827,0,0,0.4586400091648102
0.993225823,0,0,1.5083470344543457,0,0,0.8408399820327759
0.994227069,0,0,1.482010841369629,0,0,0.7644000053405762
0.995225851,0,0,1.4915876388549805,0,0,0.9937199950218201
0.996225874,0,0,1.525106430053711,0,0,0.6879600286483765
0.997225824,0,0,1.5083470344543457,0,0,1.070159912109375
0.998226903,0,0,1.41257905960083,0,0,0.6879600286483765
0.999225907,0,0,1.3862427473068237,0,0,0.9172800183296204
1.000225801,0,0,1.3982137441635132,0,0,0.9937199950218201
1.00122588,0,0,1.403002142906189,0,0,0.9937199950218201
1.002226977,0,0,1.3551181554794312,0,0,0.9172800183296204
1.003225889,0,0,1.3742717504501343,0,0,0.7644000053405762
1.004225487,0,0,1.4389152526855469,0,0,0
1.005225918,0,0,1.4915876388549805,0,0,1.1466000080108643
1.006226885,0,0,1.482010841369629,0,0,0.6879600286483765
1.007225538,0,0,1.4963760375976563,0,0,0.6879600286483765
1.008225562,0,0,1.5322890281677246,0,0,0.9937199950218201
1.009233955,0,0,1.5610195398330688,0,0,0.611519992351532
1.010227219,0,0,1.4484920501708984,0,0,0.9172800183296204
1.011226113,0,0,1.3766659498214722,0,0,0.9172800183296204
1.012225821,0,0,1.3407529592514038,0,0,0.7644000053405762
1.013225715,0,0,1.3623007535934448,0,0,0.7644000053405762
1.014226794,0,0,1.3742717504501343,0,0,0.611519992351532
1.015226021,0,0,1.4891934394836426,0,0,0.6879600286483765
1.016225748,0,0,1.53707754611969,0,0,0.7644000053405762
1.0172257710000001,0,0,1.5418659448623657,0,0,0.611519992351532
1.018226628,0,0,1.4891934394836426,0,0,0.7644000053405762
1.019225985,0,0,1.4867992401123047,0,0,0.9937199950218201
1.020225897,0,0,1.534683346748352,0,0,0.611519992351532
1.021225883,0,0,1.4317326545715332,0,0,0.6879600286483765
1.022227036,0,0,1.4413094520568848,0,0,1.070159912109375
1.023226115,0,0,1.403002142906189,0,0,0.7644000053405762
1.024225694,0,0,1.335964560508728,0,0,0.8408399820327759
1.025311771,0,0,1.4053963422775269,0,0,0.7644000053405762
1.0262307960000001,0,0,1.5514427423477173,0,0,0.8408399820327759
1.027226301,0,0,1.5155296325683594,0,0,0.8408399820327759
1.028225787,0,0,1.4413094520568848,0,0,0.611519992351532
1.029225292,0,0,1.4867992401123047,0,0,0.8408399820327759
1.030227,0,0,1.4293384552001953,0,0,0.9172800183296204
1.031225912,0,0,1.3742717504501343,0,0,0.7644000053405762
1.032225806,0,0,1.3120225667953491,0,0,0.9937199950218201
1.033225626,0,0,1.3048399686813354,0,0,0.8408399820327759
1.034226834,0,0,1.3503297567367554,0,0,0.6879600286483765
1.035225802,0,0,1.381454348564148,0,0,0.8408399820327759
1.036225844,0,0,1.381454348564148,0,0,0.9172800183296204
1.037225885,0,0,1.4317326545715332,0,0,0.611519992351532
1.038227001,0,0,1.5107412338256836,0,0,0.8408399820327759
1.039225747,0,0,1.4891934394836426,0,0,0.5350799560546875
1.040225918,0,0,1.4891934394836426,0,0,0.9937199950218201
1.041225886,0,0,1.3958195447921753,0,0,0.9937199950218201
1.042226743,0,0,1.436521053314209,0,0,1.070159912109375
1.043225711,0,0,1.3766659498214722,0,0,0.7644000053405762
1.044225771,0,0,1.482010841369629,0,0,0.9172800183296204
1.04522585,0,0,1.414973258972168,0,0,1.070159912109375
1.046226892,0,0,1.338358759880066,0,0,0.7644000053405762
1.047225433,0,0,1.3455413579940796,0,0,0.9172800183296204
1.04822592,0,0,1.4772224426269531,0,0,0.7644000053405762
1.049225721,0,0,1.4532804489135742,0,0,0.7644000053405762
1.050226744,0,0,1.4676456451416016,0,0,0.7644000053405762
1.051225452,0,0,1.479616641998291,0,0,0.9172800183296204
1.052226087,0,0,1.5107412338256836,0,0,0.9172800183296204
1.05322911,0,0,1.4053963422775269,0,0,0.611519992351532
1.054227245,0,0,1.3742717504501343,0,0,0.6879600286483765
1.055225861,0,0,1.3694833517074585,0,0,0.7644000053405762
1.056225736,0,0,1.3263877630233765,0,0,0.6879600286483765
1.057225981,0,0,1.3694833517074585,0,0,0.7644000053405762
1.058226819,0,0,1.3910311460494995,0,0,0.8408399820327759
1.059225824,0,0,1.4460978507995605,0,0,0.9172800183296204
1.060225644,0,0,1.4484920501708984,0,0,0.9937199950218201
1.061225852,0,0,1.4437036514282227,0,0,0.9172800183296204
1.062227116,0,0,1.5298948287963867,0,0,1.070159912109375
1.063225991,0,0,1.5921441316604614,0,0,0.8408399820327759
1.064225718,0,0,1.501164436340332,0,0,0.611519992351532
1.065225853,0,0,1.4867992401123047,0,0,0.9172800183296204
1.066226876,0,0,1.4844050407409668,0,0,1.070159912109375
1.067225714,0,0,1.4676456451416016,0,0,0.7644000053405762
1.06822596,0,0,1.3718775510787964,0,0,1.1466000080108643
1.069225761,0,0,1.335964560508728,0,0,0.8408399820327759
1.070226969,0,0,1.3311761617660522,0,0,0.7644000053405762
1.071225863,0,0,1.5466543436050415,0,0,0.7644000053405762
1.072225534,0,0,1.4891934394836426,0,0,0.4586400091648102
1.0732257060000001,0,0,1.4891934394836426,0,0,0.6879600286483765
1.074226581,0,0,1.5322890281677246,0,0,0.9172800183296204
1.075225641,0,0,1.5083470344543457,0,0,0.9937199950218201
1.076225461,0,0,1.3838485479354858,0,0,0.6879600286483765
1.077235743,0,0,1.3527239561080933,0,0,1.070159912109375
1.078236359,0,0,1.414973258972168,0,0,0.9172800183296204
1.079227735,0,0,1.3670891523361206,0,0,0.9172800183296204
1.080226536,0,0,1.3263877630233765,0,0,0.6879600286483765
1.081226281,0,0,1.3766659498214722,0,0,0.611519992351532
1.082227453,0,0,1.4460978507995605,0,0,0.6879600286483765
1.083226106,0,0,1.53707754611969,0,0,0.611519992351532
1.084226333,0,0,1.5538369417190552,0,0,0.611519992351532
1.08522606,0,0,1.5514427423477173,0,0,0.9172800183296204
1.086227194,0,0,1.5203180313110352,0,0,0.611519992351532
1.087226217,0,0,1.4197616577148438,0,0,1.070159912109375
1.0882260559999999,0,0,1.3718775510787964,0,0,0.9172800183296204
1.089226375,0,0,1.4508862495422363,0,0,0.8408399820327759
1.090226287,0,0,1.357512354850769,0,0,0.7644000053405762
1.091227681,0,0,1.3431471586227417,0,0,0.9172800183296204
1.092226482,0,0,1.3263877630233765,0,0,0.7644000053405762
1.0932264680000001,0,0,1.4676456451416016,0,0,0.7644000053405762
1.094224806,0,0,1.4700398445129395,0,0,0.9937199950218201
1.095223571,0,0,1.5059528350830078,0,0,0.9172800183296204
1.0962235200000001,0,0,1.4748282432556152,0,0,0.7644000053405762
1.097223784,0,0,1.4173674583435059,0,0,0.7644000053405762
1.098230011,0,0,1.4245500564575195,0,0,0.9172800183296204
1.099226571,0,0,1.3263877630233765,0,0,0.8408399820327759
1.100226298,0,0,1.3694833517074585,0,0,0.611519992351532
1.101226396,0,0,1.3479355573654175,0,0,0.8408399820327759
1.102226863,0,0,1.3766659498214722,0,0,0.9172800183296204
1.1032263310000001,0,0,1.3527239561080933,0,0,0.611519992351532
1.104226188,0,0,1.482010841369629,0,0,0.7644000053405762
1.105226211,0,0,1.525106430053711,0,0,1.1466000080108643
1.106226271,0,0,1.5466543436050415,0,0,0.5350799560546875
1.107226239,0,0,1.479616641998291,0,0,0.9937199950218201
1.10822617,0,0,1.4173674583435059,0,0,1.070159912109375
1.109226452,0,0,1.3838485479354858,0,0,0.7644000053405762
1.110227661,0,0,1.3503297567367554,0,0,0.8408399820327759
1.111226295,0,0,1.41257905960083,0,0,0.7644000053405762
1.112225893,0,0,1.3551181554794312,0,0,0.7644000053405762
1.113226249,0,0,1.3551181554794312,0,0,0.9937199950218201
1.114227365,0,0,1.3407529592514038,0,0,0.9937199950218201
1.115226037,0,0,1.4293384552001953,0,0,0.9937199950218201
1.116225912,0,0,1.479616641998291,0,0,0.9172800183296204
1.117226491,0,0,1.53707754611969,0,0,0.611519992351532
1.118227569,0,0,1.5514427423477173,0,0,0.9172800183296204
1.119226259,0,0,1.5634137392044067,0,0,1.070159912109375
1.120226172,0,0,1.4413094520568848,0,0,0.7644000053405762
1.121226399,0,0,1.3718775510787964,0,0,0.8408399820327759
1.122227403,0,0,1.3910311460494995,0,0,0.8408399820327759
1.12322613,0,0,1.3646949529647827,0,0,0.9937199950218201
1.124226265,0,0,1.3838485479354858,0,0,1.070159912109375
1.12522601,0,0,1.3646949529647827,0,0,0.9172800183296204
1.126227534,0,0,1.5107412338256836,0,0,0.611519992351532
1.127226483,0,0,1.482010841369629,0,0,0.8408399820327759
1.128226247,0,0,1.4891934394836426,0,0,0.6879600286483765
1.129226141,0,0,1.4724340438842773,0,0,0.9172800183296204
1.130227368,0,0,1.50355863571167,0,0,0.8408399820327759
1.131226187,0,0,1.4221558570861816,0,0,0.6879600286483765
1.132226581,0,0,1.400607943534851,0,0,1.1466000080108643
1.133265659,0,0,1.335964560508728,0,0,0.8408399820327759
1.134269997,0,0,1.3215993642807007,0,0,0.8408399820327759
1.135228558,0,0,1.338358759880066,0,0,0.9172800183296204
1.136226526,0,0,1.2880805730819702,0,0,0.7644000053405762
1.13722616,0,0,1.479616641998291,0,0,0.9172800183296204
1.138229332,0,0,1.5873557329177856,0,0,0.9937199950218201
1.139226429,0,0,1.556231141090393,0,0,0.9172800183296204
1.140226193,0,0,1.5107412338256836,0,0,0.8408399820327759
1.1412265129999999,0,0,1.4987702369689941,0,0,0.7644000053405762
1.142227425,0,0,1.3958195447921753,0,0,0.611519992351532
1.143226319,0,0,1.2425906658172607,0,0,0.8408399820327759
1.144226398,0,0,1.3982137441635132,0,0,0.8408399820327759
1.1452261990000001,0,0,1.3958195447921753,0,0,0.7644000053405762
1.146227278,0,0,1.3670891523361206,0,0,0.9172800183296204
1.147226375,0,0,1.3120225667953491,0,0,0.611519992351532
1.148226417,0,0,1.4437036514282227,0,0,0.611519992351532
1.1492261990000001,0,0,1.5490485429763794,0,0,0.9172800183296204
1.1502273889999999,0,0,1.5610195398330688,0,0,20.409481048583984
1.151242672,0,0,1.5466543436050415,0,0,0.6879600286483765
1.152227028,0,0,1.4724340438842773,0,0,0.8408399820327759
1.153226607,0,0,1.4173674583435059,0,0,0.6879600286483765
1.154228316,0,0,1.3623007535934448,0,0,0.9172800183296204
1.155226765,0,0,1.41257905960083,0,0,1.070159912109375
1.156226437,0,0,1.4437036514282227,0,0,0.611519992351532
1.157226071,0,0,1.4484920501708984,0,0,0.9172800183296204
1.158227076,0,0,1.3431471586227417,0,0,0.8408399820327759
1.159225895,0,0,1.5083470344543457,0,0,0.8408399820327759
1.160226474,0,0,1.5131354331970215,0,0,0.9937199950218201
1.16122646,0,0,1.4269442558288574,0,0,0.6879600286483765
1.162227965,0,0,1.4221558570861816,0,0,0.611519992351532
1.163226248,0,0,1.45806884765625,0,0,0.9172800183296204
1.1642263640000001,0,0,1.436521053314209,0,0,0.6879600286483765
1.165226146,0,0,1.4101848602294922,0,0,0.8408399820327759
1.166226355,0,0,1.41257905960083,0,0,0.8408399820327759
1.16722623,0,0,1.4508862495422363,0,0,0.6879600286483765
1.16822629,0,0,1.2617442607879639,0,0,0.8408399820327759
1.169226369,0,0,1.3982137441635132,0,0,0.9172800183296204
1.170227448,0,0,1.4652514457702637,0,0,0.6879600286483765
1.171226323,0,0,1.5634137392044067,0,0,0.6879600286483765
1.172226458,0,0,1.601720929145813,0,0,0.8408399820327759
1.1732263139999999,0,0,1.558625340461731,0,0,0.8408399820327759
1.174227615,0,0,1.4939818382263184,0,0,1.070159912109375
1.175226342,0,0,1.4413094520568848,0,0,0.9172800183296204
1.176226273,0,0,1.4221558570861816,0,0,0.9172800183296204
1.177226389,0,0,1.400607943534851,0,0,0.6879600286483765
1.1782273380000001,0,0,1.3934253454208374,0,0,0.611519992351532
1.179226732,0,0,1.3670891523361206,0,0,0.7644000053405762
1.18022594,0,0,1.3670891523361206,0,0,0.611519992351532
1.181226352,0,0,1.3982137441635132,0,0,0.611519992351532
1.1822272090000001,0,0,1.522712230682373,0,0,0.6879600286483765
1.183226436,0,0,1.5155296325683594,0,0,0.8408399820327759
1.184226163,0,0,1.5298948287963867,0,0,0.5350799560546875
1.185226186,0,0,1.599326729774475,0,0,1.070159912109375
1.18622808,0,0,1.436521053314209,0,0,0.3822000026702881
1.187226363,0,0,1.3263877630233765,0,0,0.8408399820327759
1.188226256,0,0,1.3431471586227417,0,0,1.1466000080108643
1.189226391,0,0,1.4245500564575195,0,0,0.7644000053405762
1.190227599,0,0,1.3407529592514038,0,0,0.9937199950218201
1.19122616,0,0,1.3096283674240112,0,0,0.611519992351532
1.192226331,0,0,1.4987702369689941,0,0,0.9172800183296204
1.193226354,0,0,1.5729905366897583,0,0,1.070159912109375
1.194227248,0,0,1.4532804489135742,0,0,0.611519992351532
1.195226401,0,0,1.4700398445129395,0,0,0.6879600286483765
1.196226109,0,0,1.4867992401123047,0,0,1.070159912109375
1.197226373,0,0,1.3982137441635132,0,0,0.611519992351532
1.1982268409999999,0,0,1.3982137441635132,0,0,0.9172800183296204
1.19922629,0,0,1.3646949529647827,0,0,0.9937199950218201
1.200226295,0,0,1.3910311460494995,0,0,0.7644000053405762
1.2012263,0,0,1.436521053314209,0,0,0.6879600286483765
1.2022270640000001,0,0,1.436521053314209,0,0,0.5350799560546875
1.203226384,0,0,1.5275006294250488,0,0,0.611519992351532
1.2042264440000001,0,0,1.482010841369629,0,0,0.8408399820327759
1.20522643,0,0,1.4987702369689941,0,0,0.8408399820327759
1.206227213,0,0,1.4867992401123047,0,0,0.7644000053405762
1.207226162,0,0,1.4915876388549805,0,0,0.7644000053405762
1.208226519,0,0,1.4939818382263184,0,0,0.9172800183296204
1.209226375,0,0,1.3958195447921753,0,0,0.6879600286483765
1.210227325,0,0,1.3096283674240112,0,0,1.1466000080108643
1.2112263109999999,0,0,1.316810965538025,0,0,0.9172800183296204
1.212226556,0,0,1.3215993642807007,0,0,0.9937199950218201
1.213226154,0,0,1.3766659498214722,0,0,0.6879600286483765
1.214227436,0,0,1.5634137392044067,0,0,0.6879600286483765
1.215226515,0,0,1.5179238319396973,0,0,0.6879600286483765
1.216226427,0,0,1.501164436340332,0,0,0.611519992351532
1.217226173,0,0,1.5466543436050415,0,0,0.3822000026702881
1.218227363,0,0,1.50355863571167,0,0,0.9172800183296204
1.21922622,0,0,1.4652514457702637,0,0,0.611519992351532
1.220225965,0,0,1.292868971824646,0,0,0.611519992351532
1.221226229,0,0,1.2856862545013428,0,0,0.9172800183296204
1.222227123,0,0,1.3048399686813354,0,0,1.070159912109375
1.223226091,0,0,1.357512354850769,0,0,0.6879600286483765
1.224225984,0,0,1.4173674583435059,0,0,0.9172800183296204
1.22522647,0,0,1.482010841369629,0,0,0.6879600286483765
1.226227234,0,0,1.5298948287963867,0,0,0.7644000053405762
1.227226332,0,0,1.3934253454208374,0,0,0.9172800183296204
1.2282261509999999,0,0,1.5131354331970215,0,0,0.9172800183296204
1.229226434,0,0,1.5753847360610962,0,0,1.070159912109375
1.230227365,0,0,1.4652514457702637,0,0,0.6879600286483765
1.231226536,0,0,1.3000515699386597,0,0,0.8408399820327759
1.232226356,0,0,1.3503297567367554,0,0,1.070159912109375
1.233226342,0,0,1.403002142906189,0,0,0.9172800183296204
1.234227551,0,0,1.3407529592514038,0,0,0.9172800183296204
1.235226092,0,0,1.41257905960083,0,0,0.9172800183296204
1.236226375,0,0,1.6065093278884888,0,0,0.5350799560546875
1.237226269,0,0,1.6160861253738403,0,0,0.7644000053405762
1.238227347,0,0,1.5083470344543457,0,0,0.9172800183296204
1.239226149,0,0,1.4772224426269531,0,0,0.2293200045824051
1.24022632,0,0,1.4508862495422363,0,0,1.070159912109375
1.241226288,0,0,1.436521053314209,0,0,0.9172800183296204
1.242227218,0,0,1.3982137441635132,0,0,0.611519992351532
1.243226279,0,0,1.3766659498214722,0,0,0.9937199950218201
1.244226247,0,0,1.278503656387329,0,0,0.9172800183296204
1.245225918,0,0,1.3096283674240112,0,0,0.7644000053405762
1.246227349,0,0,1.3886369466781616,0,0,0.8408399820327759
1.247226298,0,0,1.4891934394836426,0,0,0.7644000053405762
1.248226432,0,0,1.4772224426269531,0,0,0.611519992351532
1.249226511,0,0,1.5059528350830078,0,0,0.9937199950218201
1.250227349,0,0,1.4532804489135742,0,0,0.611519992351532
1.251226169,0,0,1.4915876388549805,0,0,0.8408399820327759
1.2522262849999999,0,0,1.414973258972168,0,0,1.1466000080108643
1.253226308,0,0,1.2713210582733154,0,0,0.8408399820327759
1.254227165,0,0,1.3910311460494995,0,0,1.070159912109375
1.255226336,0,0,1.3479355573654175,0,0,0.611519992351532
1.256226137,0,0,1.4532804489135742,0,0,0.8408399820327759
1.257226327,0,0,1.4413094520568848,0,0,0.9172800183296204
1.258227314,0,0,1.4676456451416016,0,0,0.8408399820327759
1.2592264850000001,0,0,1.5155296325683594,0,0,0.9172800183296204
1.260226082,0,0,1.4652514457702637,0,0,0.9937199950218201
1.2612262539999999,0,0,1.5131354331970215,0,0,0.611519992351532
1.262227425,0,0,1.5131354331970215,0,0,0.6879600286483765
1.2632255780000001,0,0,1.4221558570861816,0,0,0.8408399820327759
1.264226176,0,0,1.3407529592514038,0,0,0
1.2652262730000001,0,0,1.338358759880066,0,0,0.9172800183296204
1.266227037,0,0,1.4293384552001953,0,0,0.9172800183296204
1.2672258379999999,0,0,1.4772224426269531,0,0,0.9937199950218201
1.268226398,0,0,1.436521053314209,0,0,1.070159912109375
1.2692302180000001,0,0,1.4676456451416016,0,0,0.611519992351532
1.2702282409999999,0,0,1.4939818382263184,0,0,0.611519992351532
1.271226468,0,0,1.534683346748352,0,0,0.9937199950218201
1.272226307,0,0,1.4389152526855469,0,0,0.9172800183296204
1.273226922,0,0,1.455674648284912,0,0,0.7644000053405762
1.274227483,0,0,1.4628572463989258,0,0,1.1466000080108643
1.275226173,0,0,1.3694833517074585,0,0,0.8408399820327759
1.276226363,0,0,1.4245500564575195,0,0,0.9172800183296204
1.277255367,0,0,1.3670891523361206,0,0,0.9937199950218201
1.2782346310000001,0,0,1.2880805730819702,0,0,0.7644000053405762
1.279226784,0,0,1.3096283674240112,0,0,0.8408399820327759
1.280226382,0,0,1.4700398445129395,0,0,1.070159912109375
1.281226276,0,0,1.5131354331970215,0,0,0.6879600286483765
1.282226799,0,0,1.5969325304031372,0,0,1.223039984703064
1.283226304,0,0,1.6663644313812256,0,0,0.5350799560546875
1.2842262340000001,0,0,1.5682021379470825,0,0,0.7644000053405762
1.285226313,0,0,1.558625340461731,0,0,1.070159912109375
1.286226892,0,0,1.434126853942871,0,0,0.8408399820327759
1.28722623,0,0,1.3910311460494995,0,0,0.9937199950218201
1.288225828,0,0,1.3646949529647827,0,0,0.5350799560546875
1.289226443,0,0,1.3072341680526733,0,0,0.7644000053405762
1.290226356,0,0,1.4221558570861816,0,0,0.9937199950218201
1.291226305,0,0,1.4724340438842773,0,0,0.5350799560546875
1.292233532,0,0,1.4700398445129395,0,0,0.8408399820327759
1.29322837,0,0,1.5658079385757446,0,0,0.611519992351532
1.294226727,0,0,1.6089035272598267,0,0,0.3822000026702881
1.295226565,0,0,1.50355863571167,0,0,0.8408399820327759
1.2962262359999999,0,0,1.414973258972168,0,0,0.9172800183296204
1.297226371,0,0,1.278503656387329,0,0,0.8408399820327759
1.298226561,0,0,1.3551181554794312,0,0,0.9937199950218201
1.299226454,0,0,1.3886369466781616,0,0,0.4586400091648102
1.300226163,0,0,1.37906014919281,0,0,0.7644000053405762
1.30122639,0,0,1.4077905416488647,0,0,0.9937199950218201
1.3022250610000001,0,0,1.460463047027588,0,0,0.9172800183296204
1.3032234919999999,0,0,1.482010841369629,0,0,0.6879600286483765
1.304223349,0,0,1.479616641998291,0,0,0.9172800183296204
1.305223687,0,0,1.4772224426269531,0,0,0.7644000053405762
1.306229284,0,0,1.5682021379470825,0,0,0.7644000053405762
1.307226678,0,0,1.4939818382263184,0,0,0.7644000053405762
1.308226201,0,0,1.4437036514282227,0,0,0.7644000053405762
1.3092260580000001,0,0,1.4772224426269531,0,0,1.070159912109375
1.310226933,0,0,1.4221558570861816,0,0,0.8408399820327759
1.311226308,0,0,1.335964560508728,0,0,0.7644000053405762
1.312226202,0,0,1.3551181554794312,0,0,0.9937199950218201
1.313226169,0,0,1.4101848602294922,0,0,0.7644000053405762
1.314227341,0,0,1.501164436340332,0,0,0.6879600286483765
1.315226105,0,0,1.4987702369689941,0,0,0.7644000053405762
1.3162262949999999,0,0,1.4915876388549805,0,0,0.611519992351532
1.317226355,0,0,1.5131354331970215,0,0,0.6879600286483765
1.318227064,0,0,1.5729905366897583,0,0,1.2994799613952637
1.319226143,0,0,1.4676456451416016,0,0,0.9937199950218201
1.320226147,0,0,1.4053963422775269,0,0,0.9172800183296204
1.321226319,0,0,1.292868971824646,0,0,1.223039984703064
1.322236342,0,0,1.3431471586227417,0,0,0.9172800183296204
1.3232269030000001,0,0,1.3838485479354858,0,0,0.9172800183296204
1.324226148,0,0,1.4221558570861816,0,0,0.5350799560546875
1.32522619,0,0,1.5466543436050415,0,0,0.611519992351532
1.326227528,0,0,1.45806884765625,0,0,0.8408399820327759
1.327226255,0,0,1.3982137441635132,0,0,0.9172800183296204
1.328225649,0,0,1.434126853942871,0,0,0.8408399820327759
1.329226209,0,0,1.5490485429763794,0,0,1.1466000080108643
1.330227232,0,0,1.403002142906189,0,0,0.7644000053405762
1.331225959,0,0,1.37906014919281,0,0,0.5350799560546875
1.332226316,0,0,1.3934253454208374,0,0,0.9937199950218201
1.33322621,0,0,1.3910311460494995,0,0,0.9937199950218201
1.334227214,0,0,1.381454348564148,0,0,0.9172800183296204
1.335226238,0,0,1.3910311460494995,0,0,1.070159912109375
1.336226224,0,0,1.4508862495422363,0,0,1.1466000080108643
1.337226173,0,0,1.4867992401123047,0,0,0.7644000053405762
1.33822753,0,0,1.4724340438842773,0,0,0.7644000053405762
1.3392262750000001,0,0,1.3862427473068237,0,0,0.7644000053405762
1.340226391,0,0,1.3838485479354858,0,0,0.9172800183296204
1.341226415,0,0,1.4077905416488647,0,0,0.8408399820327759
1.342227142,0,0,1.3862427473068237,0,0,0.6879600286483765
1.343226683,0,0,1.4413094520568848,0,0,0.8408399820327759
1.34422654,0,0,1.3742717504501343,0,0,20.409481048583984
1.345226156,0,0,1.3527239561080933,0,0,0
1.34622605,0,0,1.3263877630233765,0,0,0.9172800183296204
1.347223758,0,0,1.455674648284912,0,0,0.611519992351532
1.348223541,0,0,1.5131354331970215,0,0,0.7644000053405762
1.349223064,0,0,1.4891934394836426,0,0,0.9172800183296204
1.350227476,0,0,1.5155296325683594,0,0,0.6879600286483765
1.351226333,0,0,1.556231141090393,0,0,0.7644000053405762
1.3522265230000001,0,0,1.460463047027588,0,0,0.9172800183296204
1.3532310459999999,0,0,1.400607943534851,0,0,0.9172800183296204
1.3542283099999999,0,0,1.357512354850769,0,0,0.9937199950218201
1.355226259,0,0,1.2521674633026123,0,0,0.8408399820327759
1.356226412,0,0,1.314416766166687,0,0,1.070159912109375
1.357226565,0,0,1.3503297567367554,0,0,0.7644000053405762
1.358227607,0,0,1.5298948287963867,0,0,0.5350799560546875
1.359226575,0,0,1.5490485429763794,0,0,0.6879600286483765
1.360226246,0,0,1.460463047027588,0,0,1.070159912109375
1.3612266210000001,0,0,1.4700398445129395,0,0,0.7644000053405762
1.3622272739999999,0,0,1.4724340438842773,0,0,0.9172800183296204
1.363226335,0,0,1.4844050407409668,0,0,0.9937199950218201
1.364226451,0,0,1.41257905960083,0,0,0.6879600286483765
1.365226122,0,0,1.4269442558288574,0,0,0.9937199950218201
1.366227534,0,0,1.3239935636520386,0,0,0.6879600286483765
1.367226391,0,0,1.3431471586227417,0,0,0.9172800183296204
1.368226396,0,0,1.3646949529647827,0,0,0.9172800183296204
1.369226364,0,0,1.5155296325683594,0,0,0.6879600286483765
1.37022722,0,0,1.50355863571167,0,0,0.9937199950218201
1.371226058,0,0,1.5729905366897583,0,0,0.9937199950218201
1.372226396,0,0,1.5203180313110352,0,0,0.7644000053405762
1.373226346,0,0,1.5873557329177856,0,0,0.9937199950218201
1.374227017,0,0,1.4077905416488647,0,0,0.9172800183296204
1.375226133,0,0,1.3479355573654175,0,0,0.7644000053405762
1.376226138,0,0,1.3742717504501343,0,0,0.8408399820327759
1.377226309,0,0,1.2689268589019775,0,0,0.8408399820327759
1.378227388,0,0,1.3096283674240112,0,0,0.6879600286483765
1.379226467,0,0,1.381454348564148,0,0,0.9937199950218201
1.380226398,0,0,1.4724340438842773,0,0,0.6879600286483765
1.381226254,0,0,1.5083470344543457,0,0,0.6879600286483765
1.3822275,0,0,1.5131354331970215,0,0,0.7644000053405762
1.383226412,0,0,1.4700398445129395,0,0,0.6879600286483765
1.384252453,0,0,1.5083470344543457,0,0,0.7644000053405762
1.385264088,0,0,1.460463047027588,0,0,0.9172800183296204
1.386232834,0,0,1.4269442558288574,0,0,0.9937199950218201
1.387226376,0,0,1.359906554222107,0,0,0.9172800183296204
1.388226399,0,0,1.2976573705673218,0,0,1.070159912109375
1.389226441,0,0,1.237802267074585,0,0,0.9172800183296204
1.390227575,0,0,1.3527239561080933,0,0,0.6879600286483765
1.391226173,0,0,1.4891934394836426,0,0,0.7644000053405762
1.392226325,0,0,1.5298948287963867,0,0,0.8408399820327759
1.393226182,0,0,1.5514427423477173,0,0,0.8408399820327759
1.394227391,0,0,1.4939818382263184,0,0,0.6879600286483765
1.395226358,0,0,1.4437036514282227,0,0,0.6879600286483765
1.3962256960000001,0,0,1.455674648284912,0,0,0.6879600286483765
1.397227183,0,0,1.4245500564575195,0,0,0.4586400091648102
1.398227336,0,0,1.434126853942871,0,0,0.8408399820327759
1.399226118,0,0,1.3934253454208374,0,0,0.5350799560546875
1.400226382,0,0,1.482010841369629,0,0,0.7644000053405762
1.401232331,0,0,1.3862427473068237,0,0,0.7644000053405762
1.402233281,0,0,1.3766659498214722,0,0,0.6879600286483765
1.403227008,0,0,1.5394717454910278,0,0,0.6879600286483765
1.404226642,0,0,1.5682021379470825,0,0,0.9937199950218201
1.405226184,0,0,1.5322890281677246,0,0,0.5350799560546875
1.406227244,0,0,1.501164436340332,0,0,1.070159912109375
1.407226175,0,0,1.4484920501708984,0,0,1.223039984703064
1.408226309,0,0,1.41257905960083,0,0,0.5350799560546875
1.409227092,0,0,1.4269442558288574,0,0,0.9172800183296204
1.410228171,0,0,1.3455413579940796,0,0,0.7644000053405762
1.411226565,0,0,1.3192051649093628,0,0,0.6879600286483765
1.412226588,0,0,1.357512354850769,0,0,0.8408399820327759
1.413226167,0,0,1.4508862495422363,0,0,0.611519992351532
1.414227097,0,0,1.625662922859192,0,0,0.9937199950218201
1.415226547,0,0,1.460463047027588,0,0,0.8408399820327759
1.416226274,0,0,1.455674648284912,0,0,0.4586400091648102
1.4172260749999999,0,0,1.4628572463989258,0,0,0.611519992351532
1.418227135,0,0,1.4437036514282227,0,0,0.9937199950218201
1.419226362,0,0,1.381454348564148,0,0,0.6879600286483765
1.420226404,0,0,1.3623007535934448,0,0,0.8408399820327759
1.4212264270000001,0,0,1.3479355573654175,0,0,0.6879600286483765
1.4222272280000001,0,0,1.2952631711959839,0,0,0.9172800183296204
1.4232262150000001,0,0,1.3192051649093628,0,0,0.611519992351532
1.424226405,0,0,1.4173674583435059,0,0,0.8408399820327759
1.425226409,0,0,1.4867992401123047,0,0,0.8408399820327759
1.42622721,0,0,1.5131354331970215,0,0,0.9172800183296204
1.427226345,0,0,1.4939818382263184,0,0,0.4586400091648102
1.428226276,0,0,1.45806884765625,0,0,0.9172800183296204
1.429226243,0,0,1.4532804489135742,0,0,1.2994799613952637
1.43022623,0,0,1.4101848602294922,0,0,0.611519992351532
1.431223753,0,0,1.37906014919281,0,0,0.8408399820327759
1.432223536,0,0,1.400607943534851,0,0,0.8408399820327759
1.433227744,0,0,1.3287819623947144,0,0,0.5350799560546875
1.434227471,0,0,1.292868971824646,0,0,0.9172800183296204
1.435226883,0,0,1.4197616577148438,0,0,0.611519992351532
1.436226203,0,0,1.4987702369689941,0,0,0.6879600286483765
1.437226393,0,0,1.4963760375976563,0,0,0.9172800183296204
1.4382276379999999,0,0,1.45806884765625,0,0,0.5350799560546875
1.439226125,0,0,1.5682021379470825,0,0,0.8408399820327759
1.440226481,0,0,1.5418659448623657,0,0,1.1466000080108643
1.44122619,0,0,1.37906014919281,0,0,0.611519992351532
1.442226769,0,0,1.3742717504501343,0,0,0.9172800183296204
1.44322631,0,0,1.3646949529647827,0,0,0.8408399820327759
1.44424613,0,0,1.3024457693099976,0,0,0.7644000053405762
1.445227505,0,0,1.335964560508728,0,0,0.7644000053405762
1.446226658,0,0,1.4389152526855469,0,0,0.611519992351532
1.447225774,0,0,1.3718775510787964,0,0,0.9172800183296204
1.448226057,0,0,1.4891934394836426,0,0,0.8408399820327759
1.449225821,0,0,1.5538369417190552,0,0,0.5350799560546875
1.450226177,0,0,1.525106430053711,0,0,0.7644000053405762
1.451225756,0,0,1.4700398445129395,0,0,0.8408399820327759
1.452225798,0,0,1.41257905960083,0,0,0.611519992351532
1.4532257290000001,0,0,1.3718775510787964,0,0,0.6879600286483765
1.45422627,0,0,1.4245500564575195,0,0,1.223039984703064
1.455225849,0,0,1.3670891523361206,0,0,0.3822000026702881
1.4562257060000001,0,0,1.37906014919281,0,0,0.7644000053405762
1.457240155,0,0,1.4221558570861816,0,0,0.8408399820327759
1.4582264010000001,0,0,1.5538369417190552,0,0,0.7644000053405762
1.4592258679999999,0,0,1.50355863571167,0,0,0.7644000053405762
1.460226021,0,0,1.4628572463989258,0,0,0.6879600286483765
1.461225397,0,0,1.5682021379470825,0,0,0.9937199950218201
1.462227438,0,0,1.556231141090393,0,0,0.9172800183296204
1.463228425,0,0,1.5083470344543457,0,0,0.6879600286483765
1.464225948,0,0,1.403002142906189,0,0,0.9172800183296204
1.465227286,0,0,1.41257905960083,0,0,0.8408399820327759
1.46624392,0,0,1.3431471586227417,0,0,0.6879600286483765
1.4672278699999999,0,0,1.4101848602294922,0,0,0.8408399820327759
1.4682261890000001,0,0,1.3862427473068237,0,0,0.7644000053405762
1.469225787,0,0,1.4293384552001953,0,0,0.6879600286483765
1.470226495,0,0,1.4676456451416016,0,0,0.8408399820327759
1.471225944,0,0,1.4484920501708984,0,0,0.611519992351532
1.472225801,0,0,1.5490485429763794,0,0,0.7644000053405762
1.473225936,0,0,1.5203180313110352,0,0,0.8408399820327759
1.4742262,0,0,1.37906014919281,0,0,0.7644000053405762
1.475225982,0,0,1.3646949529647827,0,0,0.6879600286483765
1.476225746,0,0,1.3000515699386597,0,0,0.6879600286483765
1.477225714,0,0,1.280897855758667,0,0,1.070159912109375
1.4782261079999999,0,0,1.3742717504501343,0,0,0.7644000053405762
1.4792255939999999,0,0,1.3623007535934448,0,0,0.8408399820327759
1.480225858,0,0,1.4077905416488647,0,0,0.7644000053405762
1.481225807,0,0,1.4915876388549805,0,0,1.223039984703064
1.482226145,0,0,1.556231141090393,0,0,0.7644000053405762
1.48322815,0,0,1.5322890281677246,0,0,1.070159912109375
1.484226229,0,0,1.4867992401123047,0,0,0.8408399820327759
1.485226197,0,0,1.3862427473068237,0,0,0.611519992351532
1.486226572,0,0,1.2832920551300049,0,0,0.6879600286483765
1.4872260210000001,0,0,1.3239935636520386,0,0,1.070159912109375
1.4882270069999999,0,0,1.3623007535934448,0,0,0.9172800183296204
1.489225882,0,0,1.4293384552001953,0,0,0.6879600286483765
1.490228184,0,0,1.400607943534851,0,0,0.8408399820327759
1.491284039,0,0,1.6376339197158813,0,0,0.9172800183296204
1.492289137,0,0,1.5921441316604614,0,0,0.8408399820327759
1.493272845,0,0,1.5514427423477173,0,0,0.7644000053405762
1.494269202,0,0,1.5442601442337036,0,0,0.9172800183296204
1.4952287069999999,0,0,1.4939818382263184,0,0,1.070159912109375
1.49622686,0,0,1.4939818382263184,0,0,0.9937199950218201
1.497225754,0,0,1.381454348564148,0,0,0.8408399820327759
1.498226203,0,0,1.4532804489135742,0,0,1.1466000080108643
1.499225912,0,0,1.4437036514282227,0,0,0.7644000053405762
1.5002258240000002,0,0,1.403002142906189,0,0,0.8408399820327759
1.501225699,0,0,1.4197616577148438,0,0,1.070159912109375
1.5022265,0,0,1.45806884765625,0,0,0.9937199950218201
1.503225709,0,0,1.4532804489135742,0,0,0.6879600286483765
1.504225528,0,0,1.479616641998291,0,0,0.7644000053405762
1.505226052,0,0,1.455674648284912,0,0,0.6879600286483765
1.506226427,0,0,1.5490485429763794,0,0,1.070159912109375
1.5072258760000001,0,0,1.4437036514282227,0,0,1.070159912109375
1.5082257879999998,0,0,1.4173674583435059,0,0,0.8408399820327759
1.509225923,0,0,1.4269442558288574,0,0,1.070159912109375
1.510227539,0,0,1.357512354850769,0,0,0.7644000053405762
1.511226062,0,0,1.3646949529647827,0,0,0.5350799560546875
1.5122257700000001,0,0,1.3479355573654175,0,0,1.070159912109375
1.513225775,0,0,1.4508862495422363,0,0,0.8408399820327759
1.514226984,0,0,1.534683346748352,0,0,0.9937199950218201
1.51522597,0,0,1.5610195398330688,0,0,0.7644000053405762
1.516225604,0,0,1.5729905366897583,0,0,0.7644000053405762
1.51722585,0,0,1.4700398445129395,0,0,1.1466000080108643
1.518226373,0,0,1.4460978507995605,0,0,1.070159912109375
1.519225841,0,0,1.3766659498214722,0,0,0.4586400091648102
1.520225846,0,0,1.403002142906189,0,0,0.7644000053405762
1.521239147,0,0,1.3479355573654175,0,0,0.9172800183296204
1.5222271520000001,0,0,1.357512354850769,0,0,1.1466000080108643
1.523225805,0,0,1.3000515699386597,0,0,0.9172800183296204
1.524226939,0,0,1.482010841369629,0,0,0.3822000026702881
1.525225722,0,0,1.5155296325683594,0,0,1.1466000080108643
1.52622643,0,0,1.522712230682373,0,0,0.7644000053405762
1.5272259529999999,0,0,1.5729905366897583,0,0,0.7644000053405762
1.5282257910000001,0,0,1.5825673341751099,0,0,0.6879600286483765
1.529226185,0,0,1.4628572463989258,0,0,1.070159912109375
1.530226912,0,0,1.4293384552001953,0,0,0.7644000053405762
1.531225917,0,0,1.4437036514282227,0,0,0.9937199950218201
1.532225681,0,0,1.3646949529647827,0,0,0.7644000053405762
1.533225852,0,0,1.335964560508728,0,0,0.8408399820327759
1.534226968,0,0,1.3766659498214722,0,0,1.1466000080108643
1.5352258060000001,0,0,1.5107412338256836,0,0,0.7644000053405762
1.536225811,0,0,1.4915876388549805,0,0,0.6879600286483765
1.537225705,0,0,1.4748282432556152,0,0,0.6879600286483765
1.5382265990000001,0,0,1.4867992401123047,0,0,0.8408399820327759
1.539225789,0,0,1.5179238319396973,0,0,0.7644000053405762
1.540225867,0,0,1.5466543436050415,0,0,0.5350799560546875
1.5412256869999998,0,0,1.3958195447921753,0,0,0.8408399820327759
1.5422265990000001,0,0,1.3527239561080933,0,0,0.8408399820327759
1.5432255110000002,0,0,1.3886369466781616,0,0,0.8408399820327759
1.5442360160000002,0,0,1.4197616577148438,0,0,0.6879600286483765
1.5452277429999999,0,0,1.4053963422775269,0,0,0.7644000053405762
1.5462280069999998,0,0,1.4891934394836426,0,0,0.5350799560546875
1.54722629,0,0,1.5610195398330688,0,0,0.7644000053405762
1.5482265910000002,0,0,1.5705963373184204,0,0,0.9937199950218201
1.5492264100000002,0,0,1.5394717454910278,0,0,0.4586400091648102
1.550226804,0,0,1.4891934394836426,0,0,0.8408399820327759
1.551229827,0,0,1.4772224426269531,0,0,1.1466000080108643
1.552227443,0,0,1.3311761617660522,0,0,0.8408399820327759
1.553226522,0,0,1.3215993642807007,0,0,0.8408399820327759
1.554227471,0,0,1.3287819623947144,0,0,0.7644000053405762
1.5552263100000001,0,0,1.3503297567367554,0,0,0.9172800183296204
1.556226407,0,0,1.4628572463989258,0,0,0.8408399820327759
1.5572265779999999,0,0,1.4939818382263184,0,0,0.9937199950218201
1.558227324,0,0,1.4293384552001953,0,0,0.4586400091648102
1.559226199,0,0,1.4221558570861816,0,0,0.6879600286483765
1.560226519,0,0,1.4867992401123047,0,0,0.7644000053405762
1.561226412,0,0,1.5753847360610962,0,0,0.9172800183296204
1.56222775,0,0,1.5753847360610962,0,0,1.070159912109375
1.5632263480000002,0,0,1.4460978507995605,0,0,0.6879600286483765
1.564226538,0,0,1.4293384552001953,0,0,0.9937199950218201
1.565225839,0,0,1.436521053314209,0,0,1.1466000080108643
1.566226788,0,0,1.2832920551300049,0,0,0.7644000053405762
1.5672261079999998,0,0,1.338358759880066,0,0,0.5350799560546875
1.5682261130000001,0,0,1.3886369466781616,0,0,0.8408399820327759
1.5692258030000001,0,0,1.5275006294250488,0,0,0.6879600286483765
1.570227826,0,0,1.5753847360610962,0,0,0.6879600286483765
1.57122696,0,0,1.5059528350830078,0,0,0.8408399820327759
1.572226409,0,0,1.4772224426269531,0,0,0.8408399820327759
1.57322634,0,0,1.50355863571167,0,0,1.070159912109375
1.574227308,0,0,1.4389152526855469,0,0,0.611519992351532
1.575226628,0,0,1.4173674583435059,0,0,0.9172800183296204
1.576226114,0,0,1.4053963422775269,0,0,0.7644000053405762
1.577226341,0,0,1.3287819623947144,0,0,0.8408399820327759
1.5782274200000002,0,0,1.4460978507995605,0,0,0.6879600286483765
1.579226276,0,0,1.4293384552001953,0,0,0.8408399820327759
1.580226411,0,0,1.460463047027588,0,0,0.7644000053405762
1.58122636,0,0,1.53707754611969,0,0,0.9172800183296204
1.5822272910000001,0,0,1.4772224426269531,0,0,0.5350799560546875
1.583226295,0,0,1.4772224426269531,0,0,0.7644000053405762
1.584226078,0,0,1.5514427423477173,0,0,0.9937199950218201
1.585235212,0,0,1.4987702369689941,0,0,0.6879600286483765
1.586227569,0,0,1.3551181554794312,0,0,0.8408399820327759
1.587226,0,0,1.3503297567367554,0,0,0.9172800183296204
1.588226301,0,0,1.3024457693099976,0,0,0.611519992351532
1.589226417,0,0,1.3766659498214722,0,0,0.8408399820327759
1.590226959,0,0,1.4245500564575195,0,0,0.5350799560546875
1.591225982,0,0,1.436521053314209,0,0,0.8408399820327759
1.5922264130000001,0,0,1.45806884765625,0,0,0.8408399820327759
1.5932264539999998,0,0,1.4891934394836426,0,0,0.8408399820327759
1.594227311,0,0,1.4987702369689941,0,0,1.070159912109375
1.595226483,0,0,1.6136919260025024,0,0,1.070159912109375
1.596226376,0,0,1.381454348564148,0,0,0.8408399820327759
1.597226418,0,0,1.3934253454208374,0,0,0.9937199950218201
1.598227349,0,0,1.4413094520568848,0,0,0.9172800183296204
1.5992261129999998,0,0,1.3215993642807007,0,0,0.6879600286483765
1.600226414,0,0,1.4460978507995605,0,0,0.9937199950218201
1.601226456,0,0,1.3910311460494995,0,0,0.9937199950218201
1.6022269420000002,0,0,1.4987702369689941,0,0,0.3822000026702881
1.603226336,0,0,1.5873557329177856,0,0,0.8408399820327759
1.604226396,0,0,1.5538369417190552,0,0,0.7644000053405762
1.605226253,0,0,1.5322890281677246,0,0,0.9172800183296204
1.606227517,0,0,1.4772224426269531,0,0,0.9172800183296204
1.607226207,0,0,1.403002142906189,0,0,0.7644000053405762
1.6082261930000001,0,0,1.278503656387329,0,0,0.6879600286483765
1.6092262160000002,0,0,1.3718775510787964,0,0,1.1466000080108643
1.610227165,0,0,1.4389152526855469,0,0,0.611519992351532
1.6112263,0,0,1.3503297567367554,0,0,0.6879600286483765
1.612226008,0,0,1.3694833517074585,0,0,0.7644000053405762
1.6132265129999999,0,0,1.4532804489135742,0,0,0.7644000053405762
1.614227592,0,0,1.434126853942871,0,0,0.8408399820327759
1.615226375,0,0,1.45806884765625,0,0,3.3633599281311035
1.616226305,0,0,1.4891934394836426,0,0,0.4586400091648102
1.617226569,0,0,1.5418659448623657,0,0,0.9937199950218201
1.61822737,0,0,1.3910311460494995,0,0,0.611519992351532
1.619226338,0,0,1.335964560508728,0,0,0.8408399820327759
1.620226417,0,0,1.434126853942871,0,0,1.070159912109375
1.621226329,0,0,1.3096283674240112,0,0,0.9172800183296204
1.622227186,0,0,1.3694833517074585,0,0,0.7644000053405762
1.623226228,0,0,1.3646949529647827,0,0,0.8408399820327759
1.624226288,0,0,1.4508862495422363,0,0,0.5350799560546875
1.6252262929999999,0,0,1.460463047027588,0,0,0.8408399820327759
1.62622789,0,0,1.4652514457702637,0,0,0.6879600286483765
1.627226377,0,0,1.6136919260025024,0,0,0.8408399820327759
1.628226363,0,0,1.5610195398330688,0,0,0.6879600286483765
1.629226275,0,0,1.460463047027588,0,0,0.6879600286483765
1.630227058,0,0,1.3886369466781616,0,0,0.7644000053405762
1.631226396,0,0,1.3311761617660522,0,0,1.070159912109375
1.632226382,0,0,1.3766659498214722,0,0,0.5350799560546875
1.633226053,0,0,1.4077905416488647,0,0,0.8408399820327759
1.6342271510000002,0,0,1.3670891523361206,0,0,1.1466000080108643
1.6352481920000002,0,0,1.479616641998291,0,0,0.8408399820327759
1.636267012,0,0,1.5059528350830078,0,0,1.070159912109375
1.637229184,0,0,1.4197616577148438,0,0,0.611519992351532
1.638232596,0,0,1.4245500564575195,0,0,0.5350799560546875
1.6392261559999999,0,0,1.6136919260025024,0,0,0.7644000053405762
1.640226439,0,0,1.4676456451416016,0,0,0.9172800183296204
1.641226407,0,0,1.338358759880066,0,0,0.6879600286483765
1.642227578,0,0,1.381454348564148,0,0,0.9172800183296204
1.64322649,0,0,1.400607943534851,0,0,1.1466000080108643
1.644226532,0,0,1.335964560508728,0,0,1.223039984703064
1.6452262960000001,0,0,1.3527239561080933,0,0,1.1466000080108643
1.646227412,0,0,1.4939818382263184,0,0,0.8408399820327759
1.6472264349999999,0,0,1.5969325304031372,0,0,0.611519992351532
1.648226347,0,0,1.5514427423477173,0,0,1.070159912109375
1.649242852,0,0,1.4844050407409668,0,0,0.6879600286483765
1.650227987,0,0,1.4628572463989258,0,0,0.7644000053405762
1.651226528,0,0,1.4652514457702637,0,0,0.5350799560546875
1.652226311,0,0,1.3551181554794312,0,0,0.8408399820327759
1.653243279,0,0,1.3503297567367554,0,0,0.9937199950218201
1.654229543,0,0,1.335964560508728,0,0,0.8408399820327759
1.655226085,0,0,1.3838485479354858,0,0,0.9937199950218201
1.656226571,0,0,1.3479355573654175,0,0,1.070159912109375
1.657226465,0,0,1.4197616577148438,0,0,0.6879600286483765
1.658227525,0,0,1.5298948287963867,0,0,0.9172800183296204
1.6592265849999999,0,0,1.4891934394836426,0,0,0.9937199950218201
1.660226294,0,0,1.479616641998291,0,0,0.5350799560546875
1.6612263170000001,0,0,1.434126853942871,0,0,0.7644000053405762
1.662226914,0,0,1.3982137441635132,0,0,1.223039984703064
1.6632349560000002,0,0,1.338358759880066,0,0,0.7644000053405762
1.6642268310000001,0,0,1.3024457693099976,0,0,1.070159912109375
1.665226225,0,0,1.3862427473068237,0,0,0.6879600286483765
1.666227619,0,0,1.2880805730819702,0,0,0.8408399820327759
1.667226179,0,0,1.4077905416488647,0,0,0.8408399820327759
1.668226165,0,0,1.4963760375976563,0,0,0.8408399820327759
1.669226059,0,0,1.5466543436050415,0,0,0.9172800183296204
1.670227545,0,0,1.4652514457702637,0,0,1.1466000080108643
1.671226328,0,0,1.4484920501708984,0,0,0.6879600286483765
1.672226444,0,0,1.4245500564575195,0,0,0.8408399820327759
1.673225837,0,0,1.460463047027588,0,0,0.9172800183296204
1.674227416,0,0,1.4676456451416016,0,0,0.7644000053405762
1.675226292,0,0,1.4173674583435059,0,0,0.8408399820327759
1.67622637,0,0,1.4389152526855469,0,0,0.9172800183296204
1.67722606,0,0,1.4460978507995605,0,0,0.7644000053405762
1.678227269,0,0,1.3335703611373901,0,0,0.9172800183296204
1.679226403,0,0,1.3862427473068237,0,0,0.5350799560546875
1.680226186,0,0,1.50355863571167,0,0,0.6879600286483765
1.6812262279999999,0,0,1.4939818382263184,0,0,1.070159912109375
1.682227362,0,0,1.4437036514282227,0,0,0.6879600286483765
1.6832264220000002,0,0,1.482010841369629,0,0,0.7644000053405762
1.684227279,0,0,1.5634137392044067,0,0,0.7644000053405762
1.685226747,0,0,1.3718775510787964,0,0,0.7644000053405762
1.686227492,0,0,1.3527239561080933,0,0,0.7644000053405762
1.687226367,0,0,1.4652514457702637,0,0,0.8408399820327759
1.688226502,0,0,1.3958195447921753,0,0,0.9172800183296204
1.6892263029999999,0,0,1.434126853942871,0,0,0.5350799560546875
1.690227289,0,0,1.4939818382263184,0,0,0.8408399820327759
1.691226238,0,0,1.5514427423477173,0,0,0.9172800183296204
1.6922283729999998,0,0,1.482010841369629,0,0,1.070159912109375
1.693226618,0,0,1.4939818382263184,0,0,0.6879600286483765
1.694226901,0,0,1.4939818382263184,0,0,0.6879600286483765
1.6952260909999999,0,0,1.4676456451416016,0,0,1.1466000080108643
1.696226651,0,0,1.4652514457702637,0,0,0.611519992351532
1.697226212,0,0,1.3934253454208374,0,0,0.9172800183296204
1.698226087,0,0,1.4269442558288574,0,0,0.8408399820327759
1.699226018,0,0,1.3215993642807007,0,0,1.1466000080108643
1.700226393,0,0,1.4077905416488647,0,0,20.409481048583984
1.701281174,0,0,1.3862427473068237,0,0,0.9172800183296204
1.7022657350000001,0,0,1.53707754611969,0,0,0.6879600286483765
1.7033973310000001,0,0,1.45806884765625,0,0,0.9937199950218201
1.7042524110000001,0,0,1.4173674583435059,0,0,0.7644000053405762
1.705282323,0,0,1.4269442558288574,0,0,0.7644000053405762
1.706303846,0,0,1.4939818382263184,0,0,0.9172800183296204
1.707301518,0,0,1.4389152526855469,0,0,0.7644000053405762
1.708289949,0,0,1.41257905960083,0,0,0.7644000053405762
1.7093079530000002,0,0,1.4413094520568848,0,0,20.409481048583984
1.710281514,0,0,1.4197616577148438,0,0,0
1.711277908,0,0,1.41257905960083,0,0,0.8408399820327759
1.712253802,0,0,1.4173674583435059,0,0,0.5350799560546875
1.713326972,0,0,1.4221558570861816,0,0,0.6879600286483765
1.714321792,0,0,1.4724340438842773,0,0,0.8408399820327759
1.71527939,0,0,1.4891934394836426,0,0,0.6879600286483765
1.716320209,0,0,1.4197616577148438,0,0,0.6879600286483765
1.717306066,0,0,1.5059528350830078,0,0,1.070159912109375
1.71828496,0,0,1.4245500564575195,0,0,0.9937199950218201
1.7193330009999999,0,0,1.4317326545715332,0,0,0.8408399820327759
1.720295487,0,0,1.4915876388549805,0,0,0.9937199950218201
1.721290029,0,0,1.400607943534851,0,0,0.9172800183296204
1.7235594239999998,0,0,1.400607943534851,0,0,1.1466000080108643
1.723774347,0,0,1.400607943534851,0,0,1.070159912109375
1.7242757659999999,0,0,1.4676456451416016,0,0,0.7644000053405762
1.725287826,0,0,1.45806884765625,0,0,0.7644000053405762
1.7262940530000002,0,0,1.4844050407409668,0,0,0.9937199950218201
1.7272716510000001,0,0,1.4891934394836426,0,0,0.7644000053405762
1.728247304,0,0,1.4700398445129395,0,0,1.070159912109375
1.729247939,0,0,1.4939818382263184,0,0,0.9172800183296204
1.7302364620000001,0,0,1.4053963422775269,0,0,0.7644000053405762
1.731227837,0,0,1.4293384552001953,0,0,0.7644000053405762
1.7329908870000001,0,0,1.403002142906189,0,0,0.6879600286483765
1.733263846,0,0,1.41257905960083,0,0,0.6879600286483765
1.734231426,0,0,1.316810965538025,0,0,0.8408399820327759
1.7352276340000001,0,0,1.4460978507995605,0,0,0.8408399820327759
1.736531672,0,0,1.4867992401123047,0,0,0.9172800183296204
1.7372770690000001,0,0,1.4053963422775269,0,0,1.070159912109375
1.738866381,0,0,1.4053963422775269,0,0,0.9937199950218201
1.739510557,0,0,1.4437036514282227,0,0,0.9937199950218201
1.740401489,0,0,1.4508862495422363,0,0,0.9172800183296204
1.7413316060000001,0,0,1.256955862045288,0,0,0.8408399820327759
1.742250242,0,0,1.3048399686813354,0,0,0.8408399820327759
1.743247506,0,0,1.4173674583435059,0,0,0.8408399820327759
1.74426701,0,0,1.4197616577148438,0,0,0.7644000053405762
1.745280478,0,0,1.4772224426269531,0,0,1.1466000080108643
1.746263686,0,0,1.5155296325683594,0,0,0.6879600286483765
1.747251728,0,0,1.4245500564575195,0,0,0.9172800183296204
1.748250918,0,0,1.4987702369689941,0,0,0.8408399820327759
1.749248905,0,0,1.5155296325683594,0,0,0
1.750259669,0,0,1.4867992401123047,0,0,0.9937199950218201
1.7512416179999999,0,0,1.501164436340332,0,0,0.8408399820327759
1.75234727,0,0,1.292868971824646,0,0,0.9937199950218201
1.753243128,0,0,1.3239935636520386,0,0,0.7644000053405762
1.754261447,0,0,1.3982137441635132,0,0,0.611519992351532
1.755246841,0,0,1.3311761617660522,0,0,0.9937199950218201
1.756241142,0,0,1.2856862545013428,0,0,0.9937199950218201
1.757237425,0,0,1.4652514457702637,0,0,0.5350799560546875
1.758493833,0,0,1.4508862495422363,0,0,0.8408399820327759
1.759262397,0,0,1.4700398445129395,0,0,0.9172800183296204
1.760236698,0,0,1.4221558570861816,0,0,0.8408399820327759
1.76123174,0,0,1.4484920501708984,0,0,0.7644000053405762
1.762252097,0,0,1.4413094520568848,0,0,0.9937199950218201
1.763236176,0,0,1.3215993642807007,0,0,0.6879600286483765
1.7642319579999999,0,0,1.3958195447921753,0,0,1.1466000080108643
1.7652322040000001,0,0,1.3503297567367554,0,0,0.8408399820327759
1.76623382,0,0,1.403002142906189,0,0,0.8408399820327759
1.767231121,0,0,1.3694833517074585,0,0,0.9172800183296204
1.768233551,0,0,1.3766659498214722,0,0,0.9937199950218201
1.769230353,0,0,1.4532804489135742,0,0,0.9172800183296204
1.7702390239999999,0,0,1.4867992401123047,0,0,0.6879600286483765
1.77125351,0,0,1.4724340438842773,0,0,0.6879600286483765
1.772264107,0,0,1.5322890281677246,0,0,0.6879600286483765
1.7732912600000001,0,0,1.525106430053711,0,0,0.8408399820327759
1.774272876,0,0,1.460463047027588,0,0,0.4586400091648102
1.775262659,0,0,1.4101848602294922,0,0,0.8408399820327759
1.7762505709999998,0,0,1.4077905416488647,0,0,0.9172800183296204
1.777266557,0,0,1.400607943534851,0,0,1.070159912109375
1.778614594,0,0,1.3742717504501343,0,0,0.7644000053405762
1.779289307,0,0,1.4245500564575195,0,0,0.6879600286483765
1.7802671270000001,0,0,1.5107412338256836,0,0,0.9172800183296204
1.781266187,0,0,1.5538369417190552,0,0,0.6879600286483765
1.782251359,0,0,1.45806884765625,0,0,0.611519992351532
1.783246975,0,0,1.4676456451416016,0,0,0.6879600286483765
1.7842476459999999,0,0,1.4053963422775269,0,0,0.8408399820327759
1.785245059,0,0,1.3263877630233765,0,0,0.4586400091648102
1.786248526,0,0,1.4101848602294922,0,0,0.9937199950218201
1.787245161,0,0,1.3527239561080933,0,0,0.9937199950218201
1.788247777,0,0,1.3455413579940796,0,0,0.9937199950218201
1.789267411,0,0,1.4389152526855469,0,0,0.611519992351532
1.790250194,0,0,1.41257905960083,0,0,0.8408399820327759
1.7912599390000001,0,0,1.501164436340332,0,0,0.7644000053405762
1.7922956289999998,0,0,1.525106430053711,0,0,0.5350799560546875
1.7932918,0,0,1.4867992401123047,0,0,0.611519992351532
1.7942777680000002,0,0,1.5418659448623657,0,0,1.070159912109375
1.795295624,0,0,1.4891934394836426,0,0,0.9172800183296204
1.796289574,0,0,1.3718775510787964,0,0,0.8408399820327759
1.797294152,0,0,1.316810965538025,0,0,1.070159912109375
1.798281417,0,0,1.357512354850769,0,0,0.9937199950218201
1.799283477,0,0,1.3096283674240112,0,0,0.7644000053405762
1.800270667,0,0,1.4173674583435059,0,0,0.8408399820327759
1.8012992639999998,0,0,1.3239935636520386,0,0,0.7644000053405762
1.8023273610000001,0,0,1.4987702369689941,0,0,0.7644000053405762
1.803289533,0,0,1.5298948287963867,0,0,0.9172800183296204
1.804321852,0,0,1.534683346748352,0,0,0.611519992351532
1.805325413,0,0,1.4628572463989258,0,0,1.070159912109375
1.8063051030000001,0,0,1.4317326545715332,0,0,0.9937199950218201
1.8073695509999999,0,0,1.381454348564148,0,0,0.7644000053405762
1.808303131,0,0,1.3838485479354858,0,0,0.9172800183296204
1.80930121,0,0,1.335964560508728,0,0,0.9937199950218201
1.810285863,0,0,1.3335703611373901,0,0,0.9172800183296204
1.811322164,0,0,1.3072341680526733,0,0,0.9172800183296204
1.812300539,0,0,1.3479355573654175,0,0,0.7644000053405762
1.813275155,0,0,1.5131354331970215,0,0,0
1.814275549,0,0,1.4891934394836426,0,0,0.8408399820327759
1.8152521099999999,0,0,1.434126853942871,0,0,0.305759996175766
1.816242689,0,0,1.501164436340332,0,0,0.7644000053405762
1.8172481010000001,0,0,1.4748282432556152,0,0,1.070159912109375
1.8182758460000001,0,0,1.37906014919281,0,0,0.6879600286483765
1.819294091,0,0,1.3623007535934448,0,0,0.9937199950218201
1.820244245,0,0,1.37906014919281,0,0,0.611519992351532
1.821230324,0,0,1.359906554222107,0,0,0.6879600286483765
1.822234551,0,0,1.3766659498214722,0,0,0.9172800183296204
1.823228611,0,0,1.41257905960083,0,0,0.7644000053405762
1.824227449,0,0,1.4844050407409668,0,0,0.7644000053405762
1.8252260649999998,0,0,1.45806884765625,0,0,0.9172800183296204
1.826232755,0,0,1.5466543436050415,0,0,0.7644000053405762
1.8272292970000001,0,0,1.6136919260025024,0,0,0.9937199950218201
1.828229283,0,0,1.5849615335464478,0,0,0.9937199950218201
1.829227436,0,0,1.4460978507995605,0,0,0.5350799560546875
1.830233904,0,0,1.4724340438842773,0,0,0.7644000053405762
1.831228779,0,0,1.37906014919281,0,0,1.070159912109375
1.832228358,0,0,1.2832920551300049,0,0,0.6879600286483765
1.8332291029999999,0,0,1.3694833517074585,0,0,0.9172800183296204
1.8342496270000002,0,0,1.4077905416488647,0,0,0.6879600286483765
1.835235613,0,0,1.5083470344543457,0,0,0.9937199950218201
1.8362335440000002,0,0,1.455674648284912,0,0,0.9172800183296204
1.837231252,0,0,1.5538369417190552,0,0,0.6879600286483765
1.838235479,0,0,1.5753847360610962,0,0,1.1466000080108643
1.83922941,0,0,1.50355863571167,0,0,1.070159912109375
1.840228711,0,0,1.3263877630233765,0,0,0.7644000053405762
1.8412396420000001,0,0,1.4173674583435059,0,0,0.8408399820327759
1.842236721,0,0,1.455674648284912,0,0,0.9937199950218201
1.843245151,0,0,1.3766659498214722,0,0,0.6879600286483765
1.844328414,0,0,1.2713210582733154,0,0,0.8408399820327759
1.8453381960000002,0,0,1.2761094570159912,0,0,0.8408399820327759
1.846285554,0,0,1.5059528350830078,0,0,0.5350799560546875
1.847276411,0,0,1.5179238319396973,0,0,0.9172800183296204
1.848242397,0,0,1.4508862495422363,0,0,0.6879600286483765
1.849226939,0,0,1.4173674583435059,0,0,0.7644000053405762
1.850225759,0,0,1.5418659448623657,0,0,0.8408399820327759
1.851223412,0,0,1.4987702369689941,0,0,1.070159912109375
1.852223787,0,0,1.4724340438842773,0,0,0.9937199950218201
1.853223533,0,0,1.4053963422775269,0,0,0.9937199950218201
1.8542239820000002,0,0,1.357512354850769,0,0,0.9172800183296204
1.8552235609999999,0,0,1.4317326545715332,0,0,0.9172800183296204
1.8562235839999999,0,0,1.357512354850769,0,0,0.9937199950218201
1.8572236439999998,0,0,1.41257905960083,0,0,0.7644000053405762
1.858228223,0,0,1.4676456451416016,0,0,0.9937199950218201
1.8592241170000001,0,0,1.4939818382263184,0,0,0.305759996175766
1.860223474,0,0,1.4891934394836426,0,0,0.9172800183296204
1.861223534,0,0,1.5610195398330688,0,0,0.9172800183296204
1.862224872,0,0,1.4532804489135742,0,0,0.8408399820327759
1.863223562,0,0,1.3934253454208374,0,0,0.8408399820327759
1.864223456,0,0,1.3239935636520386,0,0,0.8408399820327759
1.865223257,0,0,1.3311761617660522,0,0,0.8408399820327759
1.866224058,0,0,1.3910311460494995,0,0,0.6879600286483765
1.8672236180000001,0,0,1.3934253454208374,0,0,0.8408399820327759
1.868223697,0,0,1.5083470344543457,0,0,1.223039984703064
1.869223183,0,0,1.5322890281677246,0,0,0.7644000053405762
1.870229151,0,0,1.455674648284912,0,0,0.7644000053405762
1.871226174,0,0,1.5155296325683594,0,0,0.9172800183296204
1.872225975,0,0,1.4844050407409668,0,0,0.9172800183296204
1.873225573,0,0,1.4317326545715332,0,0,0.7644000053405762
1.874226337,0,0,1.3096283674240112,0,0,0.8408399820327759
1.875226008,0,0,1.3503297567367554,0,0,0.8408399820327759
1.876226032,0,0,1.3982137441635132,0,0,0.8408399820327759
1.877225981,0,0,1.3862427473068237,0,0,0.9172800183296204
1.878226689,0,0,1.41257905960083,0,0,0.7644000053405762
1.879225953,0,0,1.4772224426269531,0,0,0.6879600286483765
1.880226051,0,0,1.5682021379470825,0,0,0.9172800183296204
1.8812257959999998,0,0,1.6304513216018677,0,0,0.5350799560546875
1.8822260229999999,0,0,1.5394717454910278,0,0,0.8408399820327759
1.8832254910000001,0,0,1.5634137392044067,0,0,1.070159912109375
1.88422557,0,0,1.4484920501708984,0,0,0.6879600286483765
1.885225667,0,0,1.3766659498214722,0,0,0.6879600286483765
1.8866120560000001,0,0,1.3766659498214722,0,0,0.8408399820327759
1.887263991,0,0,1.3311761617660522,0,0,0.611519992351532
1.888235237,0,0,1.292868971824646,0,0,1.070159912109375
1.889226316,0,0,1.316810965538025,0,0,0.7644000053405762
1.8902268389999999,0,0,1.3670891523361206,0,0,0.6879600286483765
1.891224807,0,0,1.4077905416488647,0,0,0.9937199950218201
1.892430013,0,0,1.4508862495422363,0,0,0.7644000053405762
1.8932259089999999,0,0,1.5322890281677246,0,0,0.9172800183296204
1.8942244879999999,0,0,1.556231141090393,0,0,1.1466000080108643
1.895224937,0,0,1.455674648284912,0,0,0.8408399820327759
1.896223627,0,0,1.3287819623947144,0,0,0.8408399820327759
1.897223651,0,0,1.381454348564148,0,0,0.9937199950218201
1.8982243589999999,0,0,1.3742717504501343,0,0,0.7644000053405762
1.8992240310000001,0,0,1.2832920551300049,0,0,1.070159912109375
1.900223647,0,0,1.3335703611373901,0,0,0.5350799560546875
1.901223707,0,0,1.4245500564575195,0,0,0.611519992351532
1.902225082,0,0,1.53707754611969,0,0,0.7644000053405762
1.9032402899999998,0,0,1.4532804489135742,0,0,0.7644000053405762
1.904225332,0,0,1.4844050407409668,0,0,0
1.9052395039999999,0,0,1.4700398445129395,0,0,0.9172800183296204
1.9062278419999998,0,0,1.434126853942871,0,0,0.7644000053405762
1.9072267360000001,0,0,1.3311761617660522,0,0,1.070159912109375
1.90822637,0,0,1.436521053314209,0,0,1.070159912109375
1.909226356,0,0,1.4532804489135742,0,0,0.6879600286483765
1.9102276759999999,0,0,1.41257905960083,0,0,0.8408399820327759
1.9112262549999999,0,0,1.3503297567367554,0,0,0.9172800183296204
1.9122260930000001,0,0,1.359906554222107,0,0,0.9172800183296204
1.913226375,0,0,1.5203180313110352,0,0,0.7644000053405762
1.914227288,0,0,1.5203180313110352,0,0,0.8408399820327759
1.9152262740000001,0,0,1.4748282432556152,0,0,0.8408399820327759
1.9162259640000001,0,0,1.4844050407409668,0,0,1.070159912109375
1.917226228,0,0,1.5179238319396973,0,0,1.1466000080108643
1.91822727,0,0,1.4460978507995605,0,0,0.6879600286483765
1.9192263299999999,0,0,1.434126853942871,0,0,0.9937199950218201
1.920226816,0,0,1.3479355573654175,0,0,0.611519992351532
1.921226377,0,0,1.3886369466781616,0,0,0.8408399820327759
1.9222262890000001,0,0,1.3766659498214722,0,0,1.1466000080108643
1.92322372,0,0,1.4389152526855469,0,0,0.611519992351532
1.9242235760000002,0,0,1.4891934394836426,0,0,0.6879600286483765
1.9252236,0,0,1.5634137392044067,0,0,0.6879600286483765
1.9262269189999999,0,0,1.558625340461731,0,0,0.611519992351532
1.927225813,0,0,1.5083470344543457,0,0,0.7644000053405762
1.928226021,0,0,1.4437036514282227,0,0,0.8408399820327759
1.9292257670000001,0,0,1.4173674583435059,0,0,0.6879600286483765
1.930227086,0,0,1.3862427473068237,0,0,0.8408399820327759
1.931225739,0,0,1.4269442558288574,0,0,0.611519992351532
1.932225855,0,0,1.3934253454208374,0,0,0.611519992351532
1.933225934,0,0,1.3838485479354858,0,0,0.7644000053405762
1.934225791,0,0,1.4413094520568848,0,0,0.8408399820327759
1.935225796,0,0,1.4413094520568848,0,0,0.9172800183296204
1.9362258190000001,0,0,1.3958195447921753,0,0,0.611519992351532
1.937225268,0,0,1.4484920501708984,0,0,0.611519992351532
1.9382266989999999,0,0,1.5083470344543457,0,0,0.8408399820327759
1.939225741,0,0,1.434126853942871,0,0,0.611519992351532
1.94022582,0,0,1.3215993642807007,0,0,0.8408399820327759
1.941225954,0,0,1.3838485479354858,0,0,1.1466000080108643
1.942226885,0,0,1.3766659498214722,0,0,1.070159912109375
1.9432260559999999,0,0,1.3407529592514038,0,0,0.8408399820327759
1.944225672,0,0,1.381454348564148,0,0,0.7644000053405762
1.945225751,0,0,1.4460978507995605,0,0,0.6879600286483765
1.9462260150000001,0,0,1.4508862495422363,0,0,0.7644000053405762
1.947225668,0,0,1.4652514457702637,0,0,0.9937199950218201
1.9482258209999999,0,0,1.5155296325683594,0,0,0.7644000053405762
1.949225918,0,0,1.5418659448623657,0,0,0.9937199950218201
1.950226386,0,0,1.5825673341751099,0,0,0.611519992351532
1.951225539,0,0,1.4245500564575195,0,0,0.8408399820327759
1.952225933,0,0,1.4101848602294922,0,0,1.070159912109375
1.953236511,0,0,1.4221558570861816,0,0,0.8408399820327759
1.954228201,0,0,1.357512354850769,0,0,0.7644000053405762
1.955225891,0,0,1.436521053314209,0,0,1.070159912109375
1.956225748,0,0,1.4532804489135742,0,0,0.6879600286483765
1.9572255859999999,0,0,1.5394717454910278,0,0,0.8408399820327759
1.95822685,0,0,1.4915876388549805,0,0,0.9172800183296204
1.959225244,0,0,1.479616641998291,0,0,0.8408399820327759
1.9602259709999998,0,0,1.5538369417190552,0,0,0.8408399820327759
1.961225939,0,0,1.4891934394836426,0,0,0.7644000053405762
1.962227869,0,0,1.434126853942871,0,0,0.6879600286483765
1.9632261149999999,0,0,1.2952631711959839,0,0,0.8408399820327759
1.964225768,0,0,1.3527239561080933,0,0,0.5350799560546875
1.96522555,0,0,1.3886369466781616,0,0,0.8408399820327759
1.966227018,0,0,1.3551181554794312,0,0,0.9937199950218201
1.9672257819999999,0,0,1.3862427473068237,0,0,0.8408399820327759
1.968225602,0,0,1.403002142906189,0,0,0.9937199950218201
1.969237921,0,0,1.434126853942871,0,0,0.9172800183296204
1.970226334,0,0,1.4437036514282227,0,0,0.611519992351532
1.97122582,0,0,1.558625340461731,0,0,0.8408399820327759
1.9722257509999999,0,0,1.5729905366897583,0,0,0.7644000053405762
1.973225903,0,0,1.3910311460494995,0,0,0.9172800183296204
1.9742269449999998,0,0,1.381454348564148,0,0,0.8408399820327759
1.9752256350000001,0,0,1.3646949529647827,0,0,0.7644000053405762
1.976225677,0,0,1.4077905416488647,0,0,0.9172800183296204
1.977225293,0,0,1.455674648284912,0,0,0.6879600286483765
1.978225927,0,0,1.4173674583435059,0,0,0.5350799560546875
1.9792257100000001,0,0,1.4628572463989258,0,0,0.611519992351532
1.98022553,0,0,1.381454348564148,0,0,0.9937199950218201
1.981225257,0,0,1.4891934394836426,0,0,0.6879600286483765
1.982227021,0,0,1.4891934394836426,0,0,0.6879600286483765
1.98322584,0,0,1.5442601442337036,0,0,0.9172800183296204
1.9842254750000001,0,0,1.4460978507995605,0,0,0.9172800183296204
1.98522585,0,0,1.3742717504501343,0,0,0.8408399820327759
1.9862266690000001,0,0,1.3670891523361206,0,0,0.9172800183296204
1.9872256190000002,0,0,1.357512354850769,0,0,0.8408399820327759
1.9882256790000001,0,0,1.4317326545715332,0,0,0.8408399820327759
1.9892257020000002,0,0,1.400607943534851,0,0,0.6879600286483765
1.9902269110000002,0,0,1.5059528350830078,0,0,1.070159912109375
1.991225675,0,0,1.5275006294250488,0,0,1.2994799613952637
1.992225717,0,0,1.5418659448623657,0,0,0.9172800183296204
1.993225758,0,0,1.5825673341751099,0,0,0.7644000053405762
1.994226319,0,0,1.4891934394836426,0,0,1.070159912109375
1.9952256940000002,0,0,1.3742717504501343,0,0,0.8408399820327759
1.9962258099999999,0,0,1.3192051649093628,0,0,1.1466000080108643
1.997225629,0,0,1.3694833517074585,0,0,0.4586400091648102
1.998227579,0,0,1.3311761617660522,0,0,1.1466000080108643
1.999225102,0,0,1.3072341680526733,0,0,1.070159912109375
2.00022594,0,0,1.4053963422775269,0,0,0.7644000053405762
2.001225334,0,0,1.53707754611969,0,0,0.8408399820327759
2.002226172,0,0,1.525106430053711,0,0,0.9172800183296204
2.003225343,0,0,1.5059528350830078,0,0,0.8408399820327759
2.004225737,0,0,1.4389152526855469,0,0,0.6879600286483765
2.005225668,0,0,1.436521053314209,0,0,0.8408399820327759
2.006226987,0,0,1.3503297567367554,0,0,0.9937199950218201
2.007225807,0,0,1.3096283674240112,0,0,0.7644000053405762
2.008225793,0,0,1.3886369466781616,0,0,0.6879600286483765
2.009225631,0,0,1.338358759880066,0,0,0.7644000053405762
2.010226284,0,0,1.3503297567367554,0,0,0.7644000053405762
2.011225752,0,0,1.37906014919281,0,0,0
2.012225794,0,0,1.4939818382263184,0,0,0.9172800183296204
2.013225706,0,0,1.5155296325683594,0,0,0.8408399820327759
2.014227081,0,0,1.50355863571167,0,0,0.4586400091648102
2.015225771,0,0,1.4867992401123047,0,0,0.611519992351532
2.016225924,0,0,1.5849615335464478,0,0,0.8408399820327759
2.017225762,0,0,1.4963760375976563,0,0,0.7644000053405762
2.018227008,0,0,1.3455413579940796,0,0,0.9172800183296204
2.019225661,0,0,1.359906554222107,0,0,0.9937199950218201
2.020225869,0,0,1.3455413579940796,0,0,0.7644000053405762
2.0212258,0,0,1.3527239561080933,0,0,0.9172800183296204
2.022226786,0,0,1.3527239561080933,0,0,0.8408399820327759
2.023225606,0,0,1.41257905960083,0,0,1.070159912109375
2.024225666,0,0,1.4987702369689941,0,0,0.9172800183296204
2.025225689,0,0,1.4867992401123047,0,0,0.9937199950218201
2.026226861,0,0,1.4939818382263184,0,0,0.6879600286483765
2.027225606,0,0,1.5490485429763794,0,0,0.9937199950218201
2.028225648,0,0,1.460463047027588,0,0,0.9172800183296204
2.029225672,0,0,1.4317326545715332,0,0,0.7644000053405762
2.030226732,0,0,1.4317326545715332,0,0,0.7644000053405762
2.031225811,0,0,1.4508862495422363,0,0,0.8408399820327759
2.032225964,0,0,1.3886369466781616,0,0,1.070159912109375
2.033246635,0,0,1.3886369466781616,0,0,0.6879600286483765
2.034228992,0,0,1.4293384552001953,0,0,1.070159912109375
2.035225997,0,0,1.5059528350830078,0,0,0.9937199950218201
2.036226038,0,0,1.5418659448623657,0,0,0.8408399820327759
2.037228673,0,0,1.4413094520568848,0,0,0.7644000053405762
2.038227141,0,0,1.4532804489135742,0,0,0.9172800183296204
2.039225905,0,0,1.50355863571167,0,0,0.611519992351532
2.040225743,0,0,1.3934253454208374,0,0,0.6879600286483765
2.041225729,0,0,1.292868971824646,0,0,0.8408399820327759
2.042225993,0,0,1.316810965538025,0,0,0.7644000053405762
2.043225831,0,0,1.3551181554794312,0,0,0.6879600286483765
2.044225836,0,0,1.3766659498214722,0,0,0.9172800183296204
2.045225156,0,0,1.3982137441635132,0,0,0.7644000053405762
2.046226401,0,0,1.4963760375976563,0,0,0.9937199950218201
2.04722598,0,0,1.4891934394836426,0,0,0.7644000053405762
2.048225411,0,0,1.50355863571167,0,0,0.611519992351532
2.049346932,0,0,1.5394717454910278,0,0,0.8408399820327759
2.050231254,0,0,1.4772224426269531,0,0,0.6879600286483765
2.05122661,0,0,1.3910311460494995,0,0,0.5350799560546875
2.052225819,0,0,1.335964560508728,0,0,0.8408399820327759
2.053225935,0,0,1.4221558570861816,0,0,0.9172800183296204
2.054226865,0,0,1.3407529592514038,0,0,0.9172800183296204
2.055225629,0,0,1.3862427473068237,0,0,0.9172800183296204
2.05622556,0,0,1.403002142906189,0,0,0.6879600286483765
2.057225824,0,0,1.5203180313110352,0,0,0.9172800183296204
2.058226829,0,0,1.4987702369689941,0,0,0.8408399820327759
2.059225593,0,0,1.4652514457702637,0,0,0.7644000053405762
2.060225468,0,0,1.5131354331970215,0,0,0.9172800183296204
2.06122588,0,0,1.4293384552001953,0,0,0.9172800183296204
2.062226774,0,0,1.3120225667953491,0,0,0.6879600286483765
2.06322576,0,0,1.41257905960083,0,0,0.9937199950218201
2.064225765,0,0,1.3623007535934448,0,0,0.611519992351532
2.065225585,0,0,1.3072341680526733,0,0,0.9172800183296204
2.066226867,0,0,1.357512354850769,0,0,0.9172800183296204
2.06722515,0,0,1.4197616577148438,0,0,0.7644000053405762
