Time,AccelX1,AccelY1,AccelZ1,AccelX2,AccelY2,AccelZ2
0.000011148,0,0,1.7812861204147339,0,0,0.7644000053405762
0.001317021,0,0,1.7812861204147339,0,0,1.070159912109375
0.002264065,0,0,1.647210717201233,0,0,1.070159912109375
0.003252609,0,0,1.647210717201233,0,0,0.9937199950218201
0.004234023,0,0,1.5514427423477173,0,0,0.8408399820327759
0.005304973,0,0,1.577778935432434,0,0,0.9172800183296204
0.006370849,0,0,1.577778935432434,0,0,0.9937199950218201
0.007292819,0,0,1.6663644313812256,0,0,0.6879600286483765
0.008325714,0,0,1.7046716213226318,0,0,1.070159912109375
0.009328165,0,0,1.7046716213226318,0,0,1.1466000080108643
0.010272727,0,0,1.7094600200653076,0,0,0.8408399820327759
0.011268937,0,0,1.7836803197860718,0,0,1.070159912109375
0.012262444,0,0,1.7860745191574097,0,0,1.1466000080108643
0.013258562,0,0,1.6735470294952393,0,0,1.223039984703064
0.014252735,0,0,1.5466543436050415,0,0,0.8408399820327759
0.0152545,0,0,1.5969325304031372,0,0,0.9172800183296204
0.016245192,0,0,1.580173134803772,0,0,1.070159912109375
0.017234291,0,0,1.6639702320098877,0,0,1.375920057296753
0.01826239,0,0,1.656787633895874,0,0,1.070159912109375
0.019250396,0,0,1.6184803247451782,0,0,0.6879600286483765
0.020234384,0,0,1.6759412288665771,0,0,0.9937199950218201
0.021259816,0,0,1.7597382068634033,0,0,1.070159912109375
0.022348563,0,0,1.7597382068634033,0,0,0.8408399820327759
0.023275625,0,0,1.8411411046981812,0,0,0.9172800183296204
0.024255465,0,0,1.7501614093780518,0,0,0.9172800183296204
0.025246102,0,0,1.5705963373184204,0,0,1.070159912109375
0.026268793,0,0,1.5418659448623657,0,0,0.9937199950218201
0.027280632,0,0,1.6065093278884888,0,0,0.6879600286483765
0.028263917,0,0,1.6352397203445435,0,0,0.9172800183296204
0.029255405,0,0,1.6136919260025024,0,0,0.9172800183296204
0.030257707,0,0,1.7286136150360107,0,0,0.8408399820327759
0.031254455,0,0,1.7525556087493896,0,0,0.9937199950218201
0.032249609,0,0,1.742978811264038,0,0,0.8408399820327759
0.033286078,0,0,1.721431016921997,0,0,0.6879600286483765
0.034254029,0,0,1.7334020137786865,0,0,0.8408399820327759
0.035262369,0,0,1.7381904125213623,0,0,1.070159912109375
0.036262524,0,0,1.7597382068634033,0,0,1.1466000080108643
0.037272697,0,0,1.659181833267212,0,0,1.223039984703064
0.038260499,0,0,1.5394717454910278,0,0,0.9172800183296204
0.039241339,0,0,1.5514427423477173,0,0,1.070159912109375
0.040274345,0,0,1.4987702369689941,0,0,1.1466000080108643
0.041263593,0,0,1.5873557329177856,0,0,0.9937199950218201
0.042266062,0,0,1.6615760326385498,0,0,0.7644000053405762
0.043250513,0,0,1.800439715385437,0,0,0.9937199950218201
0.044246205,0,0,1.778891921043396,0,0,0.9172800183296204
0.045261692,0,0,1.800439715385437,0,0,0.9172800183296204
0.046256866,0,0,1.6879122257232666,0,0,0.9937199950218201
0.047257816,0,0,1.7621324062347412,0,0,0.9937199950218201
0.048273045,0,0,1.7357962131500244,0,0,1.223039984703064
0.049256681,0,0,1.601720929145813,0,0,1.070159912109375
0.050261558,0,0,1.6615760326385498,0,0,0.8408399820327759
0.051254861,0,0,1.5945383310317993,0,0,0.7644000053405762
0.052257385,0,0,1.5466543436050415,0,0,0.9937199950218201
0.053264595,0,0,1.6519991159439087,0,0,0.7644000053405762
0.054249454,0,0,1.7405846118927002,0,0,0.7644000053405762
0.055256423,0,0,1.7741034030914307,0,0,0.7644000053405762
0.056268689,0,0,1.778891921043396,0,0,0.8408399820327759
0.057264158,0,0,1.821987509727478,0,0,1.070159912109375
0.058267868,0,0,1.7286136150360107,0,0,1.070159912109375
0.059265634,0,0,1.6663644313812256,0,0,0.9937199950218201
0.060271066,0,0,1.599326729774475,0,0,1.2994799613952637
0.06126685,0,0,1.7334020137786865,0,0,1.070159912109375
0.062260024,0,0,1.6927006244659424,0,0,0.7644000053405762
0.06326653,0,0,1.5466543436050415,0,0,0.9937199950218201
0.064302073,0,0,1.5945383310317993,0,0,0.7644000053405762
0.065468448,0,0,1.6543933153152466,0,0,0.8408399820327759
0.066364566,0,0,1.7190368175506592,0,0,0.7644000053405762
0.067402702,0,0,1.867477297782898,0,0,1.1466000080108643
0.068362431,0,0,1.8315643072128296,0,0,0.611519992351532
0.069396196,0,0,1.7884687185287476,0,0,0.9937199950218201
0.070338481,0,0,1.7477672100067139,0,0,0.9172800183296204
0.071366191,0,0,1.680729627609253,0,0,0.611519992351532
0.072368901,0,0,1.6879122257232666,0,0,0.9172800183296204
0.073337834,0,0,1.7357962131500244,0,0,0.9172800183296204
0.074325581,0,0,1.5825673341751099,0,0,0.9937199950218201
0.07533131,0,0,1.525106430053711,0,0,0.9172800183296204
0.076332131,0,0,1.556231141090393,0,0,0.8408399820327759
0.077302693,0,0,1.6855180263519287,0,0,0.8408399820327759
0.078298681,0,0,1.802833914756775,0,0,0.9172800183296204
0.079316039,0,0,1.7525556087493896,0,0,0.9172800183296204
0.080375026,0,0,1.7046716213226318,0,0,0.9172800183296204
0.081374329,0,0,1.7501614093780518,0,0,0.9172800183296204
0.082337577,0,0,1.6304513216018677,0,0,1.223039984703064
0.083498396,0,0,1.6304513216018677,0,0,0.9937199950218201
0.084293034,0,0,1.6112977266311646,0,0,0.9172800183296204
0.08530093,0,0,1.5490485429763794,0,0,0.9937199950218201
0.086353509,0,0,1.4460978507995605,0,0,1.1466000080108643
0.087318072,0,0,1.5729905366897583,0,0,0.7644000053405762
0.088313689,0,0,1.647210717201233,0,0,0.9937199950218201
0.089346473,0,0,1.7118542194366455,0,0,0.8408399820327759
0.090355331,0,0,1.8171991109848022,0,0,0.9172800183296204
0.091289116,0,0,1.7405846118927002,0,0,0.9937199950218201
0.092267938,0,0,1.6759412288665771,0,0,1.1466000080108643
0.093281685,0,0,1.742978811264038,0,0,1.2994799613952637
0.094287117,0,0,1.5945383310317993,0,0,0.9172800183296204
0.095303383,0,0,1.647210717201233,0,0,1.070159912109375
0.096271963,0,0,1.623268723487854,0,0,0.9937199950218201
0.097289377,0,0,1.4700398445129395,0,0,0.9937199950218201
0.098246625,0,0,1.5921441316604614,0,0,0.9937199950218201
0.099248779,0,0,1.6304513216018677,0,0,0.8408399820327759
0.100247934,0,0,1.7477672100067139,0,0,0.9937199950218201
0.101253366,0,0,1.7286136150360107,0,0,0.9937199950218201
0.102229188,0,0,1.800439715385437,0,0,0.7644000053405762
0.103224324,0,0,1.7597382068634033,0,0,0.9172800183296204
0.104224293,0,0,1.7166426181793213,0,0,1.1466000080108643
0.105223762,0,0,1.7549498081207275,0,0,0.9172800183296204
0.106224417,0,0,1.623268723487854,0,0,1.1466000080108643
0.107223794,0,0,1.6184803247451782,0,0,0.9937199950218201
0.108223763,0,0,1.6184803247451782,0,0,0.9937199950218201
0.109223807,0,0,1.5849615335464478,0,0,1.223039984703064
0.110223813,0,0,1.6543933153152466,0,0,0.9172800183296204
0.111223875,0,0,1.6184803247451782,0,0,0.4586400091648102
0.112223474,0,0,1.625662922859192,0,0,0.9937199950218201
0.11322348,0,0,1.6759412288665771,0,0,0.9172800183296204
0.114223209,0,0,1.7334020137786865,0,0,0.9937199950218201
0.115223771,0,0,1.7717092037200928,0,0,0.9937199950218201
0.116223555,0,0,1.6376339197158813,0,0,1.070159912109375
0.117223543,0,0,1.5466543436050415,0,0,1.1466000080108643
0.118228864,0,0,1.522712230682373,0,0,1.223039984703064
0.119226296,0,0,1.5849615335464478,0,0,0.7644000053405762
0.120226025,0,0,1.4724340438842773,0,0,0.9937199950218201
0.121225939,0,0,1.5107412338256836,0,0,1.070159912109375
0.122226149,0,0,1.6041151285171509,0,0,0.611519992351532
0.123235655,0,0,1.680729627609253,0,0,0.8408399820327759
0.12422594,0,0,1.7549498081207275,0,0,0.7644000053405762
0.125225853,0,0,1.7357962131500244,0,0,0.6879600286483765
0.126226138,0,0,1.7357962131500244,0,0,0.8408399820327759
0.12722594,0,0,1.7094600200653076,0,0,0.9937199950218201
0.128225891,0,0,1.5945383310317993,0,0,0.9172800183296204
0.129251286,0,0,1.5179238319396973,0,0,0.8408399820327759
0.130228534,0,0,1.5729905366897583,0,0,0.9172800183296204
0.131226225,0,0,1.4939818382263184,0,0,0.6879600286483765
0.132225472,0,0,1.4652514457702637,0,0,0.9937199950218201
0.133226164,0,0,1.4891934394836426,0,0,0.4586400091648102
0.134227041,0,0,1.522712230682373,0,0,0.8408399820327759
0.135225362,0,0,1.6615760326385498,0,0,1.070159912109375
0.136225368,0,0,1.7310078144073486,0,0,0.9172800183296204
0.137225949,0,0,1.723825216293335,0,0,0.9937199950218201
0.138229677,0,0,1.601720929145813,0,0,0.9172800183296204
0.139226202,0,0,1.580173134803772,0,0,1.070159912109375
0.140227727,0,0,1.5634137392044067,0,0,0.9172800183296204
0.141447953,0,0,1.5897499322891235,0,0,1.070159912109375
0.142230166,0,0,1.580173134803772,0,0,0.9937199950218201
0.143273005,0,0,1.4724340438842773,0,0,1.1466000080108643
0.144229716,0,0,1.6065093278884888,0,0,0.611519992351532
0.145226278,0,0,1.702277421951294,0,0,0.9937199950218201
0.146227043,0,0,1.6400281190872192,0,0,1.070159912109375
0.147226087,0,0,1.7094600200653076,0,0,0.7644000053405762
0.148226538,0,0,1.7262194156646729,0,0,0.8408399820327759
0.149226174,0,0,1.7142484188079834,0,0,0.9172800183296204
0.150226921,0,0,1.7836803197860718,0,0,1.1466000080108643
0.151226001,0,0,1.6831238269805908,0,0,0.9937199950218201
0.15222623,0,0,1.6136919260025024,0,0,0.6879600286483765
0.153226255,0,0,1.6927006244659424,0,0,1.070159912109375
0.154226354,0,0,1.5682021379470825,0,0,0.7644000053405762
0.155226194,0,0,1.5514427423477173,0,0,0.9172800183296204
0.156226145,0,0,1.5825673341751099,0,0,1.1466000080108643
0.157225632,0,0,1.6950948238372803,0,0,0.6879600286483765
0.158226657,0,0,1.7932571172714233,0,0,0.9172800183296204
0.159226127,0,0,1.7334020137786865,0,0,1.070159912109375
0.160226133,0,0,1.7477672100067139,0,0,0.7644000053405762
0.161226066,0,0,1.7884687185287476,0,0,1.1466000080108643
0.162226331,0,0,1.8100165128707886,0,0,0.9937199950218201
0.163226319,0,0,1.5610195398330688,0,0,0.7644000053405762
0.164225992,0,0,1.5418659448623657,0,0,0.9937199950218201
0.165226073,0,0,1.6328455209732056,0,0,1.070159912109375
0.166226227,0,0,1.6089035272598267,0,0,0.9172800183296204
0.167225993,0,0,1.6543933153152466,0,0,0.9172800183296204
0.168226092,0,0,1.7573440074920654,0,0,0.5350799560546875
0.169226283,0,0,1.845929503440857,0,0,0.8408399820327759
0.170227882,0,0,1.7501614093780518,0,0,0.8408399820327759
0.171226037,0,0,1.766920804977417,0,0,0.8408399820327759
0.172226025,0,0,1.7477672100067139,0,0,0.8408399820327759
0.173226031,0,0,1.7501614093780518,0,0,1.070159912109375
0.174227482,0,0,1.7381904125213623,0,0,1.070159912109375
0.175225859,0,0,1.6759412288665771,0,0,0.8408399820327759
0.176226328,0,0,1.644816517829895,0,0,1.070159912109375
0.177227038,0,0,1.4844050407409668,0,0,0.9937199950218201
0.178227471,0,0,1.5203180313110352,0,0,0.8408399820327759
0.179225977,0,0,1.625662922859192,0,0,0.9172800183296204
0.180226206,0,0,1.7190368175506592,0,0,0.8408399820327759
0.181226083,0,0,1.7405846118927002,0,0,0.9937199950218201
0.182227348,0,0,1.7501614093780518,0,0,1.070159912109375
0.183226151,0,0,1.800439715385437,0,0,0.8408399820327759
0.184226139,0,0,1.7693150043487549,0,0,0.9937199950218201
0.185226293,0,0,1.6950948238372803,0,0,1.070159912109375
0.186227318,0,0,1.6304513216018677,0,0,1.070159912109375
0.18722601,0,0,1.6304513216018677,0,0,1.2994799613952637
0.188226016,0,0,1.659181833267212,0,0,0.9172800183296204
0.18922606,0,0,1.5753847360610962,0,0,0.7644000053405762
0.190226825,0,0,1.6328455209732056,0,0,0.9172800183296204
0.191243776,0,0,1.647210717201233,0,0,1.070159912109375
0.192245338,0,0,1.7262194156646729,0,0,0.9937199950218201
0.193225789,0,0,1.7884687185287476,0,0,1.1466000080108643
0.194225499,0,0,1.7525556087493896,0,0,0.9172800183296204
0.195223857,0,0,1.7262194156646729,0,0,1.070159912109375
0.19622379,0,0,1.6711528301239014,0,0,0.9937199950218201
0.197223815,0,0,1.6112977266311646,0,0,1.070159912109375
0.19822384,0,0,1.5825673341751099,0,0,1.375920057296753
0.199223642,0,0,1.6136919260025024,0,0,1.070159912109375
0.200223112,0,0,1.6280571222305298,0,0,0.9172800183296204
0.201223877,0,0,1.6184803247451782,0,0,1.1466000080108643
0.202224939,0,0,1.623268723487854,0,0,1.070159912109375
0.203223335,0,0,1.7286136150360107,0,0,0.9172800183296204
0.204223878,0,0,1.8171991109848022,0,0,0.9172800183296204
0.205223607,0,0,1.8986018896102905,0,0,1.070159912109375
0.206223669,0,0,1.8531121015548706,0,0,1.223039984703064
0.207223731,0,0,1.7262194156646729,0,0,1.1466000080108643
0.208223737,0,0,1.6831238269805908,0,0,1.070159912109375
0.20922341,0,0,1.558625340461731,0,0,0.8408399820327759
0.210223657,0,0,1.6950948238372803,0,0,0.6879600286483765
0.211223849,0,0,1.623268723487854,0,0,1.2994799613952637
0.212223614,0,0,1.5945383310317993,0,0,0.9172800183296204
0.21322375,0,0,1.6280571222305298,0,0,1.070159912109375
0.214227257,0,0,1.7405846118927002,0,0,0.9172800183296204
0.215226467,0,0,1.7334020137786865,0,0,0.9937199950218201
0.216226566,0,0,1.7932571172714233,0,0,0.9937199950218201
0.21724335,0,0,1.7501614093780518,0,0,0.8408399820327759
0.218230894,0,0,1.6950948238372803,0,0,0.9172800183296204
0.219226844,0,0,1.7717092037200928,0,0,0.9172800183296204
0.220226314,0,0,1.680729627609253,0,0,1.070159912109375
0.221226468,0,0,1.6112977266311646,0,0,1.070159912109375
0.222227234,0,0,1.5849615335464478,0,0,1.070159912109375
0.223226666,0,0,1.4987702369689941,0,0,0.9937199950218201
0.224226432,0,0,1.53707754611969,0,0,0.9937199950218201
0.225226383,0,0,1.5610195398330688,0,0,0.611519992351532
0.226227649,0,0,1.6376339197158813,0,0,0.7644000053405762
0.227226396,0,0,1.6879122257232666,0,0,0.7644000053405762
0.228226328,0,0,1.7764976024627686,0,0,0.9172800183296204
0.22922639,0,0,1.7357962131500244,0,0,0.9937199950218201
0.230227637,0,0,1.7525556087493896,0,0,1.1466000080108643
0.231226644,0,0,1.7166426181793213,0,0,0.7644000053405762
0.232226224,0,0,1.580173134803772,0,0,0.8408399820327759
0.23322623,0,0,1.678335428237915,0,0,1.1466000080108643
0.23422744,0,0,1.6903064250946045,0,0,0.9172800183296204
0.235226336,0,0,1.5897499322891235,0,0,0.8408399820327759
0.236226435,0,0,1.5753847360610962,0,0,0.9172800183296204
0.23722633,0,0,1.6496049165725708,0,0,0.9172800183296204
0.238227374,0,0,1.7836803197860718,0,0,0.9172800183296204
0.239226473,0,0,1.7357962131500244,0,0,1.070159912109375
0.240226109,0,0,1.7812861204147339,0,0,0.9172800183296204
0.241226578,0,0,1.6879122257232666,0,0,0.9172800183296204
0.242227362,0,0,1.6687586307525635,0,0,1.070159912109375
0.243226183,0,0,1.659181833267212,0,0,0.9937199950218201
0.244226005,0,0,1.5825673341751099,0,0,0.8408399820327759
0.245226622,0,0,1.5873557329177856,0,0,1.070159912109375
0.24622774,0,0,1.577778935432434,0,0,0.9172800183296204
0.247226376,0,0,1.599326729774475,0,0,0.9172800183296204
0.248226456,0,0,1.6543933153152466,0,0,0.9172800183296204
0.249226481,0,0,1.7334020137786865,0,0,0.8408399820327759
0.250227413,0,0,1.7310078144073486,0,0,0.9172800183296204
0.251226549,0,0,1.7549498081207275,0,0,0.9172800183296204
0.252226167,0,0,1.8411411046981812,0,0,0.9937199950218201
0.253226414,0,0,1.800439715385437,0,0,0.9172800183296204
0.254227643,0,0,1.7525556087493896,0,0,0.9937199950218201
0.255226668,0,0,1.5322890281677246,0,0,1.070159912109375
0.256226489,0,0,1.6112977266311646,0,0,0.9172800183296204
0.257250551,0,0,1.5897499322891235,0,0,0.8408399820327759
0.258229113,0,0,1.4484920501708984,0,0,0.8408399820327759
0.259226656,0,0,1.5059528350830078,0,0,0.9172800183296204
0.26022644,0,0,1.5969325304031372,0,0,0.6879600286483765
0.261226502,0,0,1.656787633895874,0,0,0.9937199950218201
0.262227472,0,0,1.7142484188079834,0,0,0.611519992351532
0.263226367,0,0,1.7334020137786865,0,0,0.9172800183296204
0.264226151,0,0,1.7477672100067139,0,0,0.6879600286483765
0.265226269,0,0,1.6950948238372803,0,0,0.9172800183296204
0.26622759,0,0,1.5418659448623657,0,0,1.1466000080108643
0.267226411,0,0,1.5203180313110352,0,0,0.9937199950218201
0.268226529,0,0,1.6041151285171509,0,0,0.8408399820327759
0.269226535,0,0,1.4508862495422363,0,0,0.6879600286483765
0.270227616,0,0,1.5442601442337036,0,0,0.7644000053405762
0.27122614,0,0,1.5610195398330688,0,0,0.8408399820327759
0.272226462,0,0,1.6376339197158813,0,0,0.9172800183296204
0.273226209,0,0,1.7525556087493896,0,0,0.9937199950218201
0.274227382,0,0,1.7860745191574097,0,0,0.8408399820327759
0.275226407,0,0,1.7190368175506592,0,0,0.6879600286483765
0.276226432,0,0,1.6974890232086182,0,0,1.070159912109375
0.277226531,0,0,1.7405846118927002,0,0,0.8408399820327759
0.278227574,0,0,1.6328455209732056,0,0,0.8408399820327759
0.279226395,0,0,1.5634137392044067,0,0,1.1466000080108643
0.280226346,0,0,1.6041151285171509,0,0,0.9937199950218201
0.28122639,0,0,1.5298948287963867,0,0,0.9172800183296204
0.282227507,0,0,1.5634137392044067,0,0,0.9937199950218201
0.283225977,0,0,1.6328455209732056,0,0,0.611519992351532
0.284226094,0,0,1.7262194156646729,0,0,1.070159912109375
0.285226323,0,0,1.6639702320098877,0,0,0.611519992351532
0.286227218,0,0,1.745373010635376,0,0,0.6879600286483765
0.287225965,0,0,1.745373010635376,0,0,0.9172800183296204
0.28822636,0,0,1.6065093278884888,0,0,0.9172800183296204
0.289226385,0,0,1.6160861253738403,0,0,0.8408399820327759
0.290227484,0,0,1.625662922859192,0,0,0.9937199950218201
0.291226472,0,0,1.599326729774475,0,0,0.7644000053405762
0.292226145,0,0,1.577778935432434,0,0,0.8408399820327759
0.293226374,0,0,1.580173134803772,0,0,0.9937199950218201
0.294227621,0,0,1.6041151285171509,0,0,0.9937199950218201
0.29522635,0,0,1.7764976024627686,0,0,0.611519992351532
0.296226356,0,0,1.7142484188079834,0,0,0.7644000053405762
0.297226529,0,0,1.7142484188079834,0,0,0.9172800183296204
0.298227443,0,0,1.6639702320098877,0,0,1.1466000080108643
0.299226246,0,0,1.745373010635376,0,0,1.1466000080108643
0.300226363,0,0,1.678335428237915,0,0,0.9172800183296204
0.30122637,0,0,1.5849615335464478,0,0,1.070159912109375
0.302227487,0,0,1.6280571222305298,0,0,0.9172800183296204
0.303226179,0,0,1.5945383310317993,0,0,0.8408399820327759
0.304226556,0,0,1.599326729774475,0,0,0.9172800183296204
0.305226321,0,0,1.580173134803772,0,0,0.9937199950218201
0.306227309,0,0,1.6400281190872192,0,0,0.6879600286483765
0.307226408,0,0,1.7693150043487549,0,0,0.8408399820327759
0.308226007,0,0,1.7381904125213623,0,0,1.1466000080108643
0.309226384,0,0,1.702277421951294,0,0,0.7644000053405762
0.310227835,0,0,1.7357962131500244,0,0,0.9172800183296204
0.311226323,0,0,1.7597382068634033,0,0,1.070159912109375
0.312226144,0,0,1.5634137392044067,0,0,0.9937199950218201
0.313226206,0,0,1.623268723487854,0,0,1.2994799613952637
0.314227471,0,0,1.6376339197158813,0,0,0.9937199950218201
0.315226404,0,0,1.580173134803772,0,0,1.070159912109375
0.316226169,0,0,1.577778935432434,0,0,0.9937199950218201
0.317226324,0,0,1.647210717201233,0,0,1.223039984703064
0.318227201,0,0,1.6639702320098877,0,0,0.6879600286483765
0.319226374,0,0,1.678335428237915,0,0,0.611519992351532
0.320226195,0,0,1.6759412288665771,0,0,0.9937199950218201
0.321226387,0,0,1.6735470294952393,0,0,0.9172800183296204
0.322227504,0,0,1.7477672100067139,0,0,0.9172800183296204
0.323226418,0,0,1.7477672100067139,0,0,1.1466000080108643
0.324226406,0,0,1.6424223184585571,0,0,1.1466000080108643
0.325226301,0,0,1.5753847360610962,0,0,0.9172800183296204
0.326227159,0,0,1.6184803247451782,0,0,1.1466000080108643
0.327226462,0,0,1.5634137392044067,0,0,1.070159912109375
0.328226043,0,0,1.5945383310317993,0,0,1.070159912109375
0.329226105,0,0,1.7070658206939697,0,0,0.8408399820327759
0.330226852,0,0,1.7310078144073486,0,0,0.8408399820327759
0.331226266,0,0,1.723825216293335,0,0,0.9937199950218201
0.332226235,0,0,1.699883222579956,0,0,1.070159912109375
0.333226427,0,0,1.7046716213226318,0,0,0.9937199950218201
0.334228488,0,0,1.8411411046981812,0,0,1.070159912109375
0.335226291,0,0,1.7334020137786865,0,0,0.8408399820327759
0.336226464,0,0,1.6759412288665771,0,0,1.223039984703064
0.337226434,0,0,1.7310078144073486,0,0,0.9937199950218201
0.338227273,0,0,1.6615760326385498,0,0,0.8408399820327759
0.339226372,0,0,1.7094600200653076,0,0,0.9172800183296204
0.340226231,0,0,1.7190368175506592,0,0,0.9937199950218201
0.341229348,0,0,1.7693150043487549,0,0,0.9172800183296204
0.342226762,0,0,1.8411411046981812,0,0,0.9937199950218201
0.343226176,0,0,1.802833914756775,0,0,0.9172800183296204
0.34422633,0,0,1.7477672100067139,0,0,0.8408399820327759
0.345226429,0,0,1.7477672100067139,0,0,0.9172800183296204
0.346225158,0,0,1.6831238269805908,0,0,0.9172800183296204
0.347223942,0,0,1.5897499322891235,0,0,0.9937199950218201
0.348223449,0,0,1.680729627609253,0,0,1.070159912109375
0.349223622,0,0,1.6184803247451782,0,0,0.9172800183296204
0.350227961,0,0,1.53707754611969,0,0,1.1466000080108643
0.351225783,0,0,1.6160861253738403,0,0,0.9172800183296204
0.352226122,0,0,1.6687586307525635,0,0,0.8408399820327759
0.35322661,0,0,1.7501614093780518,0,0,0.7644000053405762
0.354226542,0,0,1.802833914756775,0,0,0.9172800183296204
0.35522603,0,0,1.7118542194366455,0,0,0.7644000053405762
0.356225926,0,0,1.6831238269805908,0,0,0.8408399820327759
0.357226099,0,0,1.7286136150360107,0,0,0.9172800183296204
0.35822605,0,0,1.5945383310317993,0,0,0.9172800183296204
0.359226186,0,0,1.623268723487854,0,0,0.9937199950218201
0.360225822,0,0,1.7046716213226318,0,0,1.375920057296753
0.361225976,0,0,1.5059528350830078,0,0,1.070159912109375
0.362227131,0,0,1.4724340438842773,0,0,0.6879600286483765
0.363225915,0,0,1.5873557329177856,0,0,0.9172800183296204
0.364229162,0,0,1.6927006244659424,0,0,0.6879600286483765
0.365226391,0,0,1.702277421951294,0,0,0.8408399820327759
0.366226027,0,0,1.8076223134994507,0,0,0.6879600286483765
0.367225941,0,0,1.7046716213226318,0,0,0.9172800183296204
0.368226151,0,0,1.7764976024627686,0,0,1.1466000080108643
0.369225602,0,0,1.6663644313812256,0,0,0.9172800183296204
0.370226126,0,0,1.5969325304031372,0,0,0.9172800183296204
0.371225892,0,0,1.5873557329177856,0,0,0.9937199950218201
0.372225954,0,0,1.5945383310317993,0,0,0.9937199950218201
0.373268978,0,0,1.4460978507995605,0,0,0.7644000053405762
0.374227393,0,0,1.53707754611969,0,0,0.8408399820327759
0.375226307,0,0,1.5682021379470825,0,0,1.070159912109375
0.376226128,0,0,1.7286136150360107,0,0,0.7644000053405762
0.377237449,0,0,1.7549498081207275,0,0,0.6879600286483765
0.378227104,0,0,1.8339585065841675,0,0,0.9172800183296204
0.379225869,0,0,1.7501614093780518,0,0,0.8408399820327759
0.380225968,0,0,1.7310078144073486,0,0,0.6879600286483765
0.381226067,0,0,1.6280571222305298,0,0,0.8408399820327759
0.382227685,0,0,1.5275006294250488,0,0,0.9937199950218201
0.383226043,0,0,1.5059528350830078,0,0,0.7644000053405762
0.384226068,0,0,1.5203180313110352,0,0,0.7644000053405762
0.385225963,0,0,1.5514427423477173,0,0,0.7644000053405762
0.38622684,0,0,1.5466543436050415,0,0,0.8408399820327759
0.38722605,0,0,1.6543933153152466,0,0,1.070159912109375
0.38822589,0,0,1.6879122257232666,0,0,0.7644000053405762
0.389225896,0,0,1.7070658206939697,0,0,0.9937199950218201
0.390227384,0,0,1.6352397203445435,0,0,0.8408399820327759
0.391225631,0,0,1.656787633895874,0,0,0.7644000053405762
0.392226156,0,0,1.6543933153152466,0,0,1.070159912109375
0.393226126,0,0,1.577778935432434,0,0,0.8408399820327759
0.394226595,0,0,1.6112977266311646,0,0,0.9172800183296204
0.395225546,0,0,1.5945383310317993,0,0,0.7644000053405762
0.396225904,0,0,1.53707754611969,0,0,0.9172800183296204
0.397226003,0,0,1.5394717454910278,0,0,0.9172800183296204
0.398227343,0,0,1.577778935432434,0,0,0.7644000053405762
0.399225886,0,0,1.6855180263519287,0,0,0.9937199950218201
0.400226078,0,0,1.7357962131500244,0,0,1.070159912109375
0.401225955,0,0,1.6879122257232666,0,0,0.7644000053405762
0.402284127,0,0,1.6089035272598267,0,0,0.7644000053405762
0.403226245,0,0,1.5969325304031372,0,0,1.070159912109375
0.404452693,0,0,1.5969325304031372,0,0,1.223039984703064
0.405457311,0,0,1.5682021379470825,0,0,1.2994799613952637
0.406459002,0,0,1.5753847360610962,0,0,1.1466000080108643
0.407455157,0,0,1.577778935432434,0,0,0.7644000053405762
0.408455219,0,0,1.6184803247451782,0,0,1.070159912109375
0.409454725,0,0,1.5969325304031372,0,0,0.8408399820327759
0.410458639,0,0,1.644816517829895,0,0,0.6879600286483765
0.411455794,0,0,1.6615760326385498,0,0,0.8408399820327759
0.412454763,0,0,1.680729627609253,0,0,0.9172800183296204
0.413455344,0,0,1.6927006244659424,0,0,0.9172800183296204
0.414457665,0,0,1.656787633895874,0,0,0.8408399820327759
0.415455079,0,0,1.678335428237915,0,0,1.070159912109375
0.416455159,0,0,1.5945383310317993,0,0,0.8408399820327759
0.417454888,0,0,1.5945383310317993,0,0,0.9172800183296204
0.418458042,0,0,1.5083470344543457,0,0,1.070159912109375
0.419454993,0,0,1.4772224426269531,0,0,1.070159912109375
0.420454111,0,0,1.4939818382263184,0,0,0.9172800183296204
0.421454598,0,0,1.6184803247451782,0,0,0.9172800183296204
0.422457049,0,0,1.699883222579956,0,0,0.9172800183296204
0.423453741,0,0,1.7860745191574097,0,0,1.223039984703064
0.424857168,0,0,1.778891921043396,0,0,1.070159912109375
0.42556003,0,0,1.7334020137786865,0,0,1.070159912109375
0.426522704,0,0,1.6304513216018677,0,0,1.1466000080108643
0.427507118,0,0,1.5610195398330688,0,0,1.070159912109375
0.428529957,0,0,1.5921441316604614,0,0,0.9172800183296204
0.429499075,0,0,1.5705963373184204,0,0,1.1466000080108643
0.430500396,0,0,1.534683346748352,0,0,1.223039984703064
0.431498403,0,0,1.534683346748352,0,0,1.070159912109375
0.432458187,0,0,1.6160861253738403,0,0,0.9172800183296204
0.433452175,0,0,1.7046716213226318,0,0,-9.019920349121094
0.434468145,0,0,1.7046716213226318,0,0,1.1466000080108643
0.435452281,0,0,1.7405846118927002,0,0,0.6879600286483765
0.436450769,0,0,1.8100165128707886,0,0,0.7644000053405762
0.437463886,0,0,1.7597382068634033,0,0,0.9172800183296204
0.43845293,0,0,1.742978811264038,0,0,0.9172800183296204
0.439450658,0,0,1.6855180263519287,0,0,0.8408399820327759
0.44044922,0,0,1.5921441316604614,0,0,0.9937199950218201
0.441476356,0,0,1.5275006294250488,0,0,0.8408399820327759
0.442464048,0,0,1.5083470344543457,0,0,0.9172800183296204
0.443453128,0,0,1.5658079385757446,0,0,1.070159912109375
0.444448579,0,0,1.6400281190872192,0,0,-8.561279296875
0.445448974,0,0,1.599326729774475,0,0,0.8408399820327759
0.446451222,0,0,1.702277421951294,0,0,0.8408399820327759
0.447447895,0,0,1.7693150043487549,0,0,0.7644000053405762
0.448449549,0,0,1.7262194156646729,0,0,0.8408399820327759
0.449449222,0,0,1.6855180263519287,0,0,1.070159912109375
0.450451062,0,0,1.6927006244659424,0,0,1.1466000080108643
0.451449013,0,0,1.6065093278884888,0,0,1.1466000080108643
0.452448779,0,0,1.702277421951294,0,0,1.1466000080108643
0.453448563,0,0,1.6496049165725708,0,0,0.7644000053405762
0.454459217,0,0,1.5729905366897583,0,0,0.8408399820327759
0.455456835,0,0,1.625662922859192,0,0,1.223039984703064
0.456457119,0,0,1.656787633895874,0,0,0.7644000053405762
0.457456607,0,0,1.7693150043487549,0,0,0.9937199950218201
0.45845328,0,0,1.7597382068634033,0,0,0.7644000053405762
0.459449138,0,0,1.7764976024627686,0,0,0.7644000053405762
0.460449034,0,0,1.778891921043396,0,0,0.9937199950218201
0.461447929,0,0,1.7741034030914307,0,0,0.9172800183296204
0.46245838,0,0,1.6184803247451782,0,0,1.070159912109375
0.463456238,0,0,1.6400281190872192,0,0,1.223039984703064
0.464456207,0,0,1.6496049165725708,0,0,0.8408399820327759
0.465456621,0,0,1.5442601442337036,0,0,0.8408399820327759
0.46645722,0,0,1.5083470344543457,0,0,1.1466000080108643
0.467456615,0,0,1.6160861253738403,0,0,0.8408399820327759
0.468456288,0,0,1.6615760326385498,0,0,0.5350799560546875
0.469454573,0,0,1.7405846118927002,0,0,0.8408399820327759
0.470459653,0,0,1.6950948238372803,0,0,0.9172800183296204
0.471455437,0,0,1.6903064250946045,0,0,0.9172800183296204
0.472456147,0,0,1.7357962131500244,0,0,1.1466000080108643
0.473456302,0,0,1.7477672100067139,0,0,1.070159912109375
0.474459956,0,0,1.6903064250946045,0,0,0.9172800183296204
0.475456278,0,0,1.6160861253738403,0,0,0.9937199950218201
0.476456543,0,0,1.4915876388549805,0,0,0.8408399820327759
0.477455957,0,0,1.4221558570861816,0,0,0.8408399820327759
0.478459686,0,0,1.6065093278884888,0,0,0.8408399820327759
0.479456174,0,0,1.6615760326385498,0,0,0.9172800183296204
0.480456365,0,0,1.6903064250946045,0,0,0.9172800183296204
0.481456298,0,0,1.7262194156646729,0,0,0.9937199950218201
0.482458674,0,0,1.7812861204147339,0,0,0.8408399820327759
0.483456014,0,0,1.7812861204147339,0,0,1.1466000080108643
0.484456243,0,0,1.745373010635376,0,0,1.070159912109375
0.48545599,0,0,1.680729627609253,0,0,0.9172800183296204
0.486458644,0,0,1.5131354331970215,0,0,0.7644000053405762
0.487455447,0,0,1.5131354331970215,0,0,0.9937199950218201
0.488456602,0,0,1.534683346748352,0,0,0.9172800183296204
0.489456534,0,0,1.5921441316604614,0,0,0.6879600286483765
0.490458689,0,0,1.6112977266311646,0,0,0.8408399820327759
0.491455621,0,0,1.6376339197158813,0,0,0.7644000053405762
0.49245659,0,0,1.7142484188079834,0,0,0.611519992351532
0.493456782,0,0,1.7741034030914307,0,0,0.8408399820327759
0.494459122,0,0,1.7190368175506592,0,0,0.9937199950218201
0.495456054,0,0,1.7932571172714233,0,0,0.8408399820327759
0.496456023,0,0,1.7477672100067139,0,0,1.2994799613952637
0.497455752,0,0,1.5514427423477173,0,0,0.9172800183296204
0.498456906,0,0,1.6328455209732056,0,0,0.7644000053405762
0.499455894,0,0,1.659181833267212,0,0,1.1466000080108643
0.500456253,0,0,1.7142484188079834,0,0,1.375920057296753
0.511434823,0,0,1.5682021379470825,0,0,1.070159912109375
0.511795134,0,0,1.5682021379470825,0,0,1.070159912109375
0.512126333,0,0,1.5682021379470825,0,0,0.9937199950218201
0.512457348,0,0,1.6184803247451782,0,0,1.223039984703064
0.512788196,0,0,1.6184803247451782,0,0,0.5350799560546875
0.513118951,0,0,1.6184803247451782,0,0,1.070159912109375
0.513450003,0,0,1.6184803247451782,0,0,1.223039984703064
0.513829091,0,0,1.6184803247451782,0,0,0.9172800183296204
0.514162272,0,0,1.6184803247451782,0,0,0.4586400091648102
0.514493527,0,0,1.742978811264038,0,0,1.2994799613952637
0.514825986,0,0,1.742978811264038,0,0,1.9109998941421509
0.515157278,0,0,1.742978811264038,0,0,0.305759996175766
0.515542681,0,0,1.7525556087493896,0,0,1.223039984703064
0.515877621,0,0,1.7525556087493896,0,0,1.070159912109375
0.516209154,0,0,1.7525556087493896,0,0,1.1466000080108643
0.516545947,0,0,1.8315643072128296,0,0,1.070159912109375
0.517455528,0,0,1.7836803197860718,0,0,0.9937199950218201
0.518418905,0,0,1.7190368175506592,0,0,-8.637720108032227
0.519423375,0,0,1.6831238269805908,0,0,1.1466000080108643
0.520425566,0,0,1.623268723487854,0,0,0.9172800183296204
0.521408184,0,0,1.5729905366897583,0,0,1.070159912109375
0.522410227,0,0,1.6112977266311646,0,0,1.223039984703064
0.523406938,0,0,1.5179238319396973,0,0,1.1466000080108643
0.524406796,0,0,1.6280571222305298,0,0,0.9937199950218201
0.52540708,0,0,1.7190368175506592,0,0,0.9172800183296204
0.526408457,0,0,1.7717092037200928,0,0,0.9937199950218201
0.527407111,0,0,1.764526605606079,0,0,1.2994799613952637
0.528406451,0,0,1.7693150043487549,0,0,0.9937199950218201
0.529406735,0,0,1.7334020137786865,0,0,1.070159912109375
0.53040689,0,0,1.680729627609253,0,0,0.8408399820327759
0.53140673,0,0,1.6400281190872192,0,0,0.9172800183296204
0.532406125,0,0,1.702277421951294,0,0,0.6879600286483765
0.533406076,0,0,1.7190368175506592,0,0,0.8408399820327759
0.534409619,0,0,1.6184803247451782,0,0,1.2994799613952637
0.535407274,0,0,1.625662922859192,0,0,0.8408399820327759
0.536407336,0,0,1.6735470294952393,0,0,0.9172800183296204
0.537406138,0,0,1.7405846118927002,0,0,0.8408399820327759
0.538406867,0,0,1.766920804977417,0,0,0.9172800183296204
0.539406688,0,0,1.8124107122421265,0,0,1.1466000080108643
0.540406732,0,0,1.8076223134994507,0,0,1.223039984703064
0.541411108,0,0,1.8387469053268433,0,0,1.1466000080108643
0.542410504,0,0,1.7190368175506592,0,0,0.9937199950218201
0.543407103,0,0,1.5729905366897583,0,0,1.070159912109375
0.544406998,0,0,1.5418659448623657,0,0,0.7644000053405762
0.545407023,0,0,1.5969325304031372,0,0,0.9937199950218201
0.546407085,0,0,1.5873557329177856,0,0,0.9172800183296204
0.547407221,0,0,1.6112977266311646,0,0,1.223039984703064
0.548406875,0,0,1.6711528301239014,0,0,0.8408399820327759
0.549406808,0,0,1.7405846118927002,0,0,0.8408399820327759
0.550408777,0,0,1.7405846118927002,0,0,0.9172800183296204
0.551407376,0,0,1.7310078144073486,0,0,0.8408399820327759
0.55240679,0,0,1.7142484188079834,0,0,0.9172800183296204
0.553406667,0,0,1.7310078144073486,0,0,0.9937199950218201
0.554406395,0,0,1.7741034030914307,0,0,0.9937199950218201
0.555406698,0,0,1.6615760326385498,0,0,0.9937199950218201
0.556406834,0,0,1.5945383310317993,0,0,0.9172800183296204
0.557407192,0,0,1.501164436340332,0,0,0.9937199950218201
0.558407402,0,0,1.5945383310317993,0,0,1.223039984703064
0.559406798,0,0,1.6735470294952393,0,0,0.6879600286483765
0.56040636,0,0,1.7046716213226318,0,0,0.9172800183296204
0.561407181,0,0,1.745373010635376,0,0,0.6879600286483765
0.562416817,0,0,1.8076223134994507,0,0,1.1466000080108643
0.563414138,0,0,1.742978811264038,0,0,1.223039984703064
0.564413441,0,0,1.7142484188079834,0,0,1.1466000080108643
0.565413336,0,0,1.659181833267212,0,0,1.070159912109375
0.566415324,0,0,1.5538369417190552,0,0,1.070159912109375
0.567413201,0,0,1.6496049165725708,0,0,0.9937199950218201
0.568412948,0,0,1.5849615335464478,0,0,0.9172800183296204
0.56941264,0,0,1.5059528350830078,0,0,0.7644000053405762
0.570417479,0,0,1.6304513216018677,0,0,1.223039984703064
0.571413337,0,0,1.6376339197158813,0,0,0.9937199950218201
0.572412881,0,0,1.7142484188079834,0,0,0.9172800183296204
0.573413035,0,0,1.702277421951294,0,0,1.070159912109375
0.574415709,0,0,1.7525556087493896,0,0,0.6879600286483765
0.575413326,0,0,1.7262194156646729,0,0,0.9172800183296204
0.576412795,0,0,1.7070658206939697,0,0,0.9172800183296204
0.577413061,0,0,1.623268723487854,0,0,1.223039984703064
0.578415308,0,0,1.5442601442337036,0,0,0.9937199950218201
0.579413129,0,0,1.6160861253738403,0,0,1.070159912109375
0.580413228,0,0,1.5322890281677246,0,0,1.223039984703064
0.581412883,0,0,1.5514427423477173,0,0,0.8408399820327759
0.582415371,0,0,1.5873557329177856,0,0,0.611519992351532
0.583414914,0,0,1.7046716213226318,0,0,1.1466000080108643
0.584413347,0,0,1.6687586307525635,0,0,0.9937199950218201
0.585412927,0,0,1.7118542194366455,0,0,0.7644000053405762
0.586415452,0,0,1.7166426181793213,0,0,0.9172800183296204
0.587412718,0,0,1.6280571222305298,0,0,1.1466000080108643
0.588412965,0,0,1.601720929145813,0,0,0.9172800183296204
0.589412971,0,0,1.5514427423477173,0,0,0.9172800183296204
0.590412904,0,0,1.525106430053711,0,0,1.070159912109375
0.591407169,0,0,1.5729905366897583,0,0,1.070159912109375
0.592407194,0,0,1.4915876388549805,0,0,0.9937199950218201
0.593406719,0,0,1.6160861253738403,0,0,0.7644000053405762
0.594416374,0,0,1.623268723487854,0,0,0.7644000053405762
0.595416528,0,0,1.6639702320098877,0,0,0.8408399820327759
0.596413627,0,0,1.5921441316604614,0,0,0.9172800183296204
0.597412319,0,0,1.6496049165725708,0,0,0.7644000053405762
0.59841564,0,0,1.6543933153152466,0,0,0.9172800183296204
0.599413406,0,0,1.702277421951294,0,0,0.9172800183296204
0.600413542,0,0,1.7046716213226318,0,0,0.6879600286483765
0.601413696,0,0,1.5466543436050415,0,0,0.8408399820327759
0.60241424,0,0,1.6089035272598267,0,0,0.9172800183296204
0.603443301,0,0,1.5897499322891235,0,0,0.8408399820327759
0.604414308,0,0,1.4939818382263184,0,0,0.9172800183296204
0.605413185,0,0,1.5442601442337036,0,0,0.611519992351532
0.606416117,0,0,1.6424223184585571,0,0,0.9937199950218201
0.607412957,0,0,1.7381904125213623,0,0,1.1466000080108643
0.608413093,0,0,1.7262194156646729,0,0,0.9937199950218201
0.609412766,0,0,1.7166426181793213,0,0,1.070159912109375
0.610416328,0,0,1.678335428237915,0,0,0.9172800183296204
0.611427556,0,0,1.6855180263519287,0,0,0.7644000053405762
0.612423304,0,0,1.625662922859192,0,0,1.070159912109375
0.613413829,0,0,1.6974890232086182,0,0,0.9172800183296204
0.614413335,0,0,1.5969325304031372,0,0,1.070159912109375
0.615413175,0,0,1.53707754611969,0,0,0.8408399820327759
0.616413366,0,0,1.5466543436050415,0,0,0.8408399820327759
0.617412836,0,0,1.5921441316604614,0,0,0.9937199950218201
0.618413379,0,0,1.6950948238372803,0,0,1.070159912109375
0.6194122,0,0,1.702277421951294,0,0,1.223039984703064
0.620413485,0,0,1.7501614093780518,0,0,0.8408399820327759
0.62141301,0,0,1.7477672100067139,0,0,1.1466000080108643
0.622413886,0,0,1.6831238269805908,0,0,0.9937199950218201
0.623413041,0,0,1.6400281190872192,0,0,0.9172800183296204
0.624413529,0,0,1.6065093278884888,0,0,0.8408399820327759
0.625412943,0,0,1.6280571222305298,0,0,0.8408399820327759
0.626413116,0,0,1.558625340461731,0,0,1.1466000080108643
0.627413474,0,0,1.4460978507995605,0,0,0.611519992351532
0.628413054,0,0,1.5921441316604614,0,0,0.8408399820327759
0.629413357,0,0,1.723825216293335,0,0,0.9937199950218201
0.630416493,0,0,1.7357962131500244,0,0,0.8408399820327759
0.63141287,0,0,1.6903064250946045,0,0,1.070159912109375
0.632412747,0,0,1.7286136150360107,0,0,0.7644000053405762
0.633412975,0,0,1.7525556087493896,0,0,0.9937199950218201
0.63441463,0,0,1.7334020137786865,0,0,0.7644000053405762
0.635413247,0,0,1.5921441316604614,0,0,0.9172800183296204
0.636413013,0,0,1.580173134803772,0,0,0.8408399820327759
0.63741289,0,0,1.6184803247451782,0,0,1.070159912109375
0.638415341,0,0,1.5514427423477173,0,0,1.1466000080108643
0.639413329,0,0,1.558625340461731,0,0,0.9172800183296204
0.640413057,0,0,1.6160861253738403,0,0,1.070159912109375
0.641411823,0,0,1.723825216293335,0,0,0.9172800183296204
0.642415163,0,0,1.8171991109848022,0,0,0.9172800183296204
0.643413021,0,0,1.802833914756775,0,0,1.1466000080108643
0.644412861,0,0,1.7741034030914307,0,0,0.9937199950218201
0.645413534,0,0,1.7764976024627686,0,0,1.223039984703064
0.646415966,0,0,1.6160861253738403,0,0,1.070159912109375
0.647427546,0,0,1.6352397203445435,0,0,1.1466000080108643
0.648415997,0,0,1.580173134803772,0,0,0.8408399820327759
0.64941317,0,0,1.4484920501708984,0,0,0.9172800183296204
0.650415825,0,0,1.5275006294250488,0,0,1.070159912109375
0.651413128,0,0,1.577778935432434,0,0,0.8408399820327759
0.65241319,0,0,1.778891921043396,0,0,0.9172800183296204
0.653413103,0,0,1.6496049165725708,0,0,1.070159912109375
0.654415739,0,0,1.7094600200653076,0,0,0.9172800183296204
0.655413635,0,0,1.6639702320098877,0,0,0.7644000053405762
0.656440011,0,0,1.6089035272598267,0,0,0.9937199950218201
0.657415111,0,0,1.7142484188079834,0,0,1.2994799613952637
0.65841745,0,0,1.6711528301239014,0,0,0.9937199950218201
0.65941366,0,0,1.5873557329177856,0,0,1.2994799613952637
0.66041287,0,0,1.5682021379470825,0,0,1.2994799613952637
0.661413284,0,0,1.5897499322891235,0,0,1.1466000080108643
0.66241455,0,0,1.601720929145813,0,0,0.9937199950218201
0.663412945,0,0,1.6735470294952393,0,0,0.8408399820327759
0.66441347,0,0,1.7884687185287476,0,0,0.9937199950218201
0.665413514,0,0,1.745373010635376,0,0,1.070159912109375
0.666415576,0,0,1.7501614093780518,0,0,1.1466000080108643
0.667412508,0,0,1.6974890232086182,0,0,1.1466000080108643
0.668412885,0,0,1.7070658206939697,0,0,1.070159912109375
0.669413354,0,0,1.680729627609253,0,0,1.1466000080108643
0.670415786,0,0,1.6280571222305298,0,0,0.9937199950218201
0.67141333,0,0,1.6041151285171509,0,0,1.1466000080108643
0.672412744,0,0,1.5897499322891235,0,0,0.9937199950218201
0.673413194,0,0,1.6687586307525635,0,0,0.611519992351532
0.674415386,0,0,1.6424223184585571,0,0,0.7644000053405762
0.675413022,0,0,1.7405846118927002,0,0,0.9172800183296204
0.676413251,0,0,1.7693150043487549,0,0,1.070159912109375
0.677412479,0,0,1.7525556087493896,0,0,0.6879600286483765
0.678416356,0,0,1.7094600200653076,0,0,1.070159912109375
0.679412918,0,0,1.7190368175506592,0,0,1.1466000080108643
0.680412962,0,0,1.7836803197860718,0,0,1.1466000080108643
0.681413412,0,0,1.6735470294952393,0,0,0.9937199950218201
0.682415141,0,0,1.5658079385757446,0,0,0.9172800183296204
0.683412796,0,0,1.556231141090393,0,0,0.8408399820327759
0.684412746,0,0,1.5059528350830078,0,0,1.070159912109375
0.685415808,0,0,1.6663644313812256,0,0,0.9937199950218201
0.686412315,0,0,1.7286136150360107,0,0,0.8408399820327759
0.687406506,0,0,1.721431016921997,0,0,0.9172800183296204
0.688406624,0,0,1.7764976024627686,0,0,1.1466000080108643
0.689406482,0,0,1.821987509727478,0,0,1.070159912109375
0.690415748,0,0,1.764526605606079,0,0,1.2994799613952637
0.691413199,0,0,1.7860745191574097,0,0,0.9937199950218201
0.692413112,0,0,1.6927006244659424,0,0,0.8408399820327759
0.693426563,0,0,1.6615760326385498,0,0,0.6879600286483765
0.694416385,0,0,1.6735470294952393,0,0,1.2994799613952637
0.695407002,0,0,1.5634137392044067,0,0,0.9172800183296204
0.696406268,0,0,1.6208745241165161,0,0,1.1466000080108643
0.697406237,0,0,1.6663644313812256,0,0,0.9937199950218201
0.698425706,0,0,1.721431016921997,0,0,0.9172800183296204
0.699412213,0,0,1.702277421951294,0,0,1.1466000080108643
0.700422738,0,0,1.821987509727478,0,0,0.9172800183296204
0.701432985,0,0,1.8171991109848022,0,0,0.6879600286483765
0.70242975,0,0,1.7405846118927002,0,0,1.1466000080108643
0.703563607,0,0,1.7286136150360107,0,0,0.9172800183296204
0.704858943,0,0,1.623268723487854,0,0,0.7644000053405762
0.705440584,0,0,1.680729627609253,0,0,1.1466000080108643
0.706416387,0,0,1.659181833267212,0,0,1.1466000080108643
0.70741482,0,0,1.5322890281677246,0,0,0.9172800183296204
0.708413308,0,0,1.6400281190872192,0,0,0.9172800183296204
0.709412555,0,0,1.764526605606079,0,0,1.070159912109375
0.710417043,0,0,1.8124107122421265,0,0,0.8408399820327759
0.711412586,0,0,1.800439715385437,0,0,0.9937199950218201
0.7124125,0,0,1.778891921043396,0,0,0.7644000053405762
0.71341221,0,0,1.7597382068634033,0,0,0.7644000053405762
0.714415642,0,0,1.6879122257232666,0,0,1.223039984703064
0.715412667,0,0,1.5849615335464478,0,0,1.070159912109375
0.716412414,0,0,1.5059528350830078,0,0,1.070159912109375
0.717412421,0,0,1.6112977266311646,0,0,1.223039984703064
0.718415131,0,0,1.4987702369689941,0,0,0.9172800183296204
0.719412526,0,0,1.5394717454910278,0,0,0.6879600286483765
0.720411366,0,0,1.656787633895874,0,0,1.070159912109375
0.721412391,0,0,1.7549498081207275,0,0,0.7644000053405762
0.722415138,0,0,1.764526605606079,0,0,0.8408399820327759
0.723411959,0,0,1.745373010635376,0,0,0.9172800183296204
0.724411947,0,0,1.6304513216018677,0,0,0.9937199950218201
0.72541212,0,0,1.6735470294952393,0,0,0.9172800183296204
0.72641333,0,0,1.6424223184585571,0,0,0.9937199950218201
0.727411577,0,0,1.6089035272598267,0,0,0.9937199950218201
0.728412139,0,0,1.6424223184585571,0,0,1.070159912109375
0.729412572,0,0,1.5083470344543457,0,0,0.9172800183296204
0.730415485,0,0,1.5897499322891235,0,0,1.070159912109375
0.731412399,0,0,1.5682021379470825,0,0,1.070159912109375
0.732412221,0,0,1.6041151285171509,0,0,0.8408399820327759
0.733412449,0,0,1.6280571222305298,0,0,0.6879600286483765
0.734414826,0,0,1.742978811264038,0,0,1.1466000080108643
0.735412721,0,0,1.7693150043487549,0,0,0.9937199950218201
0.736412357,0,0,1.7573440074920654,0,0,1.1466000080108643
0.737412623,0,0,1.7094600200653076,0,0,1.070159912109375
0.738415222,0,0,1.5729905366897583,0,0,0.9937199950218201
0.739412451,0,0,1.5466543436050415,0,0,1.1466000080108643
0.740412698,0,0,1.5682021379470825,0,0,0.9172800183296204
0.741412297,0,0,1.558625340461731,0,0,1.1466000080108643
0.742417359,0,0,1.601720929145813,0,0,1.070159912109375
0.743412532,0,0,1.6280571222305298,0,0,0.8408399820327759
0.744412223,0,0,1.7310078144073486,0,0,0.9937199950218201
0.745411896,0,0,1.7884687185287476,0,0,0.611519992351532
0.746412884,0,0,1.742978811264038,0,0,0.611519992351532
0.747412335,0,0,1.7477672100067139,0,0,0.6879600286483765
0.748412879,0,0,1.7908629179000854,0,0,0.9172800183296204
0.749411404,0,0,1.7046716213226318,0,0,1.1466000080108643
0.750413002,0,0,1.4844050407409668,0,0,0.9172800183296204
0.751412953,0,0,1.5849615335464478,0,0,0.9172800183296204
0.752411886,0,0,1.6160861253738403,0,0,1.070159912109375
0.753412929,0,0,1.5490485429763794,0,0,1.1466000080108643
0.754412769,0,0,1.558625340461731,0,0,1.070159912109375
0.755412127,0,0,1.6831238269805908,0,0,0.9937199950218201
0.756431763,0,0,1.7046716213226318,0,0,0.9172800183296204
0.757414677,0,0,1.7764976024627686,0,0,0.9172800183296204
0.758413535,0,0,1.7286136150360107,0,0,0.611519992351532
0.759412227,0,0,1.702277421951294,0,0,0.9937199950218201
0.7604124,0,0,1.7956513166427612,0,0,1.070159912109375
0.76141248,0,0,1.6424223184585571,0,0,0.9172800183296204
0.762415339,0,0,1.599326729774475,0,0,0.9172800183296204
0.763411771,0,0,1.6112977266311646,0,0,0.8408399820327759
0.764412574,0,0,1.482010841369629,0,0,0.8408399820327759
0.765412636,0,0,1.5538369417190552,0,0,0.6879600286483765
0.766414716,0,0,1.5897499322891235,0,0,0.8408399820327759
0.767412778,0,0,1.7094600200653076,0,0,1.223039984703064
0.76841221,0,0,1.7262194156646729,0,0,0.9937199950218201
0.769412624,0,0,1.7764976024627686,0,0,0.7644000053405762
0.770414464,0,0,1.7118542194366455,0,0,1.070159912109375
0.771411878,0,0,1.742978811264038,0,0,1.070159912109375
0.772412532,0,0,1.6759412288665771,0,0,1.070159912109375
0.773412761,0,0,1.5729905366897583,0,0,0.8408399820327759
0.774414804,0,0,1.53707754611969,0,0,0.5350799560546875
0.775412311,0,0,1.4867992401123047,0,0,0.7644000053405762
0.776411984,0,0,1.5298948287963867,0,0,0.8408399820327759
0.777411546,0,0,1.5658079385757446,0,0,0.9172800183296204
0.778415015,0,0,1.7118542194366455,0,0,0.8408399820327759
0.779412485,0,0,1.6496049165725708,0,0,0.8408399820327759
0.780412472,0,0,1.6950948238372803,0,0,1.1466000080108643
0.781412516,0,0,1.7573440074920654,0,0,0.9172800183296204
0.782415226,0,0,1.745373010635376,0,0,0.9937199950218201
0.783411769,0,0,1.599326729774475,0,0,1.223039984703064
0.78441185,0,0,1.5897499322891235,0,0,1.070159912109375
0.785411412,0,0,1.5418659448623657,0,0,0.9172800183296204
0.786415418,0,0,1.4724340438842773,0,0,0.9172800183296204
0.78741261,0,0,1.558625340461731,0,0,0.8408399820327759
0.788412524,0,0,1.601720929145813,0,0,0.8408399820327759
0.789411863,0,0,1.5897499322891235,0,0,0.9172800183296204
0.790414648,0,0,1.6687586307525635,0,0,0.9172800183296204
0.791412728,0,0,1.6543933153152466,0,0,0.9172800183296204
0.792411105,0,0,1.723825216293335,0,0,0.9172800183296204
0.79341237,0,0,1.6376339197158813,0,0,1.070159912109375
0.794414969,0,0,1.6927006244659424,0,0,0.8408399820327759
0.795412383,0,0,1.6759412288665771,0,0,0.8408399820327759
0.796411871,0,0,1.5921441316604614,0,0,0.9172800183296204
0.797412766,0,0,1.6687586307525635,0,0,1.223039984703064
0.798414643,0,0,1.5849615335464478,0,0,1.070159912109375
0.799412483,0,0,1.5298948287963867,0,0,0.9937199950218201
0.800412526,0,0,1.601720929145813,0,0,0.9172800183296204
0.801412551,0,0,1.6496049165725708,0,0,0.6879600286483765
0.802413706,0,0,1.699883222579956,0,0,0.9172800183296204
0.803412416,0,0,1.7118542194366455,0,0,0.9172800183296204
0.804442589,0,0,1.7525556087493896,0,0,0.8408399820327759
0.805413614,0,0,1.745373010635376,0,0,0.9937199950218201
0.806415602,0,0,1.680729627609253,0,0,0.9172800183296204
0.807412164,0,0,1.5873557329177856,0,0,0.8408399820327759
0.808412504,0,0,1.6112977266311646,0,0,1.1466000080108643
0.809412325,0,0,1.5945383310317993,0,0,0.9172800183296204
0.810414998,0,0,1.5945383310317993,0,0,0.611519992351532
0.811412023,0,0,1.6136919260025024,0,0,0.8408399820327759
0.812412437,0,0,1.577778935432434,0,0,0.9937199950218201
0.813411499,0,0,1.6208745241165161,0,0,0.7644000053405762
0.814414635,0,0,1.7477672100067139,0,0,0.9937199950218201
0.815412863,0,0,1.7142484188079834,0,0,0.9172800183296204
0.816412388,0,0,1.647210717201233,0,0,0.9937199950218201
0.817412321,0,0,1.7405846118927002,0,0,0.9172800183296204
0.81842866,0,0,1.7693150043487549,0,0,0.611519992351532
0.819413463,0,0,1.623268723487854,0,0,1.1466000080108643
0.820424043,0,0,1.6879122257232666,0,0,0.9172800183296204
0.821413661,0,0,1.6041151285171509,0,0,0.8408399820327759
0.822415278,0,0,1.5514427423477173,0,0,0.9937199950218201
0.823412563,0,0,1.5969325304031372,0,0,0.9172800183296204
0.824412717,0,0,1.6400281190872192,0,0,0.7644000053405762
0.825412112,0,0,1.7190368175506592,0,0,0.611519992351532
0.826415045,0,0,1.802833914756775,0,0,0.9172800183296204
0.827412385,0,0,1.778891921043396,0,0,1.070159912109375
0.82841165,0,0,1.721431016921997,0,0,0.7644000053405762
0.829412231,0,0,1.7118542194366455,0,0,1.1466000080108643
0.830414589,0,0,1.6735470294952393,0,0,1.070159912109375
0.831411781,0,0,1.6615760326385498,0,0,1.070159912109375
0.83241212,0,0,1.5969325304031372,0,0,0.9172800183296204
0.833412164,0,0,1.5873557329177856,0,0,0.9172800183296204
0.834414763,0,0,1.5825673341751099,0,0,0.9937199950218201
0.835411751,0,0,1.5729905366897583,0,0,0.8408399820327759
0.836412442,0,0,1.623268723487854,0,0,0.7644000053405762
0.837412486,0,0,1.656787633895874,0,0,0.9937199950218201
0.838414825,0,0,1.6519991159439087,0,0,1.1466000080108643
0.83941261,0,0,1.6903064250946045,0,0,1.070159912109375
0.840412227,0,0,1.6950948238372803,0,0,0.8408399820327759
0.841412011,0,0,1.6496049165725708,0,0,0.9172800183296204
0.842414981,0,0,1.6496049165725708,0,0,1.223039984703064
0.843412209,0,0,1.6543933153152466,0,0,0.9172800183296204
0.84441266,0,0,1.623268723487854,0,0,1.070159912109375
0.845412518,0,0,1.5298948287963867,0,0,1.1466000080108643
0.846414747,0,0,1.5322890281677246,0,0,0.8408399820327759
0.847412309,0,0,1.6208745241165161,0,0,0.9172800183296204
0.848412556,0,0,1.5921441316604614,0,0,1.070159912109375
0.849412303,0,0,1.678335428237915,0,0,0.9172800183296204
0.850414087,0,0,1.7381904125213623,0,0,0.8408399820327759
0.851412094,0,0,1.7525556087493896,0,0,1.070159912109375
0.8524121,0,0,1.742978811264038,0,0,0.7644000053405762
0.853411996,0,0,1.764526605606079,0,0,1.070159912109375
0.854414965,0,0,1.6711528301239014,0,0,1.1466000080108643
0.85541199,0,0,1.6089035272598267,0,0,0.9937199950218201
0.856412255,0,0,1.6208745241165161,0,0,0.9937199950218201
0.85741154,0,0,1.525106430053711,0,0,0.9172800183296204
0.858414824,0,0,1.5825673341751099,0,0,0.8408399820327759
0.859411904,0,0,1.6352397203445435,0,0,1.1466000080108643
0.860412077,0,0,1.778891921043396,0,0,1.1466000080108643
0.861412658,0,0,1.7932571172714233,0,0,0.9937199950218201
0.86241359,0,0,1.7357962131500244,0,0,0.8408399820327759
0.863411634,0,0,1.6927006244659424,0,0,1.070159912109375
0.864411325,0,0,1.7956513166427612,0,0,0.9937199950218201
0.866193952,0,0,1.5945383310317993,0,0,0.9937199950218201
0.866530226,0,0,1.5945383310317993,0,0,0.9937199950218201
0.867416289,0,0,1.5610195398330688,0,0,0.9172800183296204
0.868413092,0,0,1.5322890281677246,0,0,1.1466000080108643
0.869412783,0,0,1.6112977266311646,0,0,1.1466000080108643
0.870416623,0,0,1.6903064250946045,0,0,0.9172800183296204
0.871412037,0,0,1.7501614093780518,0,0,0.611519992351532
0.872412543,0,0,1.7717092037200928,0,0,1.1466000080108643
0.873412753,0,0,1.8483237028121948,0,0,0.8408399820327759
0.87441563,0,0,1.8171991109848022,0,0,1.070159912109375
0.875412451,0,0,1.778891921043396,0,0,1.070159912109375
0.876412106,0,0,1.7597382068634033,0,0,0.7644000053405762
0.877412575,0,0,1.6424223184585571,0,0,0.9937199950218201
0.878414507,0,0,1.7142484188079834,0,0,1.1466000080108643
0.879411255,0,0,1.6208745241165161,0,0,1.070159912109375
0.880412594,0,0,1.556231141090393,0,0,0.9937199950218201
0.88141273,0,0,1.6184803247451782,0,0,0.9172800183296204
0.882415644,0,0,1.6759412288665771,0,0,0.9937199950218201
0.883412706,0,0,1.702277421951294,0,0,0.9172800183296204
0.884426564,0,0,1.7262194156646729,0,0,1.070159912109375
0.885413589,0,0,1.699883222579956,0,0,0.6879600286483765
0.886414818,0,0,1.7717092037200928,0,0,1.070159912109375
0.887412417,0,0,1.7357962131500244,0,0,0.9172800183296204
0.888412572,0,0,1.5729905366897583,0,0,1.070159912109375
0.889412004,0,0,1.5514427423477173,0,0,0.8408399820327759
0.890414399,0,0,1.5442601442337036,0,0,0.9172800183296204
0.891412294,0,0,1.5514427423477173,0,0,0.9172800183296204
0.89241269,0,0,1.5418659448623657,0,0,0.6879600286483765
0.893411381,0,0,1.5729905366897583,0,0,0.9937199950218201
0.894414962,0,0,1.7142484188079834,0,0,0.8408399820327759
0.895412635,0,0,1.764526605606079,0,0,1.1466000080108643
0.896412364,0,0,1.7764976024627686,0,0,0.9172800183296204
0.897412314,0,0,1.7573440074920654,0,0,1.223039984703064
0.898414506,0,0,1.7525556087493896,0,0,1.1466000080108643
0.899412179,0,0,1.745373010635376,0,0,1.070159912109375
0.900411389,0,0,1.6759412288665771,0,0,0.9937199950218201
0.901412136,0,0,1.6615760326385498,0,0,1.070159912109375
0.902413254,0,0,1.7262194156646729,0,0,0.9172800183296204
0.903412649,0,0,1.6376339197158813,0,0,0.9172800183296204
0.904501247,0,0,1.6065093278884888,0,0,0.8408399820327759
0.905413921,0,0,1.5945383310317993,0,0,0.9937199950218201
0.906415335,0,0,1.6543933153152466,0,0,0.9937199950218201
0.907457193,0,0,1.7501614093780518,0,0,0.7644000053405762
0.908456588,0,0,1.8746598958969116,0,0,0.9172800183296204
0.909455743,0,0,1.8339585065841675,0,0,0.9172800183296204
0.910456323,0,0,1.766920804977417,0,0,0.9172800183296204
0.911455589,0,0,1.678335428237915,0,0,1.223039984703064
0.91245578,0,0,1.577778935432434,0,0,0.8408399820327759
0.913455861,0,0,1.5538369417190552,0,0,0.7644000053405762
0.91445646,0,0,1.4963760375976563,0,0,0.9937199950218201
0.915455262,0,0,1.5705963373184204,0,0,1.1466000080108643
0.916455658,0,0,1.6376339197158813,0,0,1.070159912109375
0.917454553,0,0,1.6639702320098877,0,0,0.6879600286483765
0.918458763,0,0,1.6352397203445435,0,0,0.8408399820327759
0.919454714,0,0,1.721431016921997,0,0,0.8408399820327759
0.920454906,0,0,1.7956513166427612,0,0,1.070159912109375
0.921455393,0,0,1.6759412288665771,0,0,1.070159912109375
0.922457826,0,0,1.7477672100067139,0,0,0.8408399820327759
0.92345424,0,0,1.6879122257232666,0,0,1.223039984703064
0.924456024,0,0,1.6280571222305298,0,0,1.1466000080108643
0.925455475,0,0,1.623268723487854,0,0,0.9172800183296204
0.926458463,0,0,1.4987702369689941,0,0,0.8408399820327759
0.927454913,0,0,1.5945383310317993,0,0,0.9172800183296204
0.928456253,0,0,1.680729627609253,0,0,0.5350799560546875
0.929455611,0,0,1.680729627609253,0,0,1.223039984703064
0.930457951,0,0,1.723825216293335,0,0,1.1466000080108643
0.931455569,0,0,1.7884687185287476,0,0,0.8408399820327759
0.932455853,0,0,1.702277421951294,0,0,1.1466000080108643
0.933455619,0,0,1.7405846118927002,0,0,0.9937199950218201
0.934457755,0,0,1.6112977266311646,0,0,0.9172800183296204
0.935455168,0,0,1.5394717454910278,0,0,1.1466000080108643
0.936454601,0,0,1.6328455209732056,0,0,1.070159912109375
0.937455274,0,0,1.5179238319396973,0,0,0.9172800183296204
0.938458502,0,0,1.4987702369689941,0,0,0.9172800183296204
0.939455324,0,0,1.4987702369689941,0,0,1.223039984703064
0.94045546,0,0,1.6184803247451782,0,0,0.7644000053405762
0.941454762,0,0,1.702277421951294,0,0,0.9937199950218201
0.942458621,0,0,1.6831238269805908,0,0,0.8408399820327759
0.943455997,0,0,1.745373010635376,0,0,0.8408399820327759
0.944463133,0,0,1.7597382068634033,0,0,0.9937199950218201
0.945466992,0,0,1.6927006244659424,0,0,1.1466000080108643
0.946456368,0,0,1.5107412338256836,0,0,0.8408399820327759
0.947455227,0,0,1.5682021379470825,0,0,1.070159912109375
0.948477992,0,0,1.599326729774475,0,0,0.7644000053405762
0.949458573,0,0,1.4963760375976563,0,0,0.9172800183296204
0.950456116,0,0,1.522712230682373,0,0,0.7644000053405762
0.9514549,0,0,1.5682021379470825,0,0,0.8408399820327759
0.952455833,0,0,1.6903064250946045,0,0,0.8408399820327759
0.953455395,0,0,1.6663644313812256,0,0,1.070159912109375
0.954456438,0,0,1.6879122257232666,0,0,0.9172800183296204
0.955456167,0,0,1.6687586307525635,0,0,0.9937199950218201
0.956455266,0,0,1.6519991159439087,0,0,0.9172800183296204
0.957455328,0,0,1.623268723487854,0,0,0.7644000053405762
0.958455168,0,0,1.6160861253738403,0,0,1.070159912109375
0.959455748,0,0,1.6208745241165161,0,0,0.9937199950218201
0.960455532,0,0,1.5466543436050415,0,0,0.9172800183296204
0.961454946,0,0,1.5658079385757446,0,0,1.070159912109375
0.962459989,0,0,1.6280571222305298,0,0,0.7644000053405762
0.963455792,0,0,1.7118542194366455,0,0,0.9937199950218201
0.964455224,0,0,1.7525556087493896,0,0,0.9937199950218201
0.965454583,0,0,1.8315643072128296,0,0,0.9172800183296204
0.966458145,0,0,1.8148049116134644,0,0,1.1466000080108643
0.967455966,0,0,1.7836803197860718,0,0,1.070159912109375
0.968455157,0,0,1.7812861204147339,0,0,0.7644000053405762
0.969455349,0,0,1.6424223184585571,0,0,0.9937199950218201
0.970458781,0,0,1.5945383310317993,0,0,1.375920057296753
0.97145614,0,0,1.5682021379470825,0,0,1.070159912109375
0.972455572,0,0,1.5610195398330688,0,0,1.1466000080108643
0.973454967,0,0,1.6041151285171509,0,0,0.8408399820327759
0.974459122,0,0,1.6112977266311646,0,0,1.070159912109375
0.975455647,0,0,1.5969325304031372,0,0,0.7644000053405762
0.976456042,0,0,1.7334020137786865,0,0,1.223039984703064
0.977455252,0,0,1.7525556087493896,0,0,1.070159912109375
0.978458759,0,0,1.7525556087493896,0,0,0.9172800183296204
0.979454913,0,0,1.800439715385437,0,0,1.070159912109375
0.980455031,0,0,1.766920804977417,0,0,1.1466000080108643
0.981455648,0,0,1.6519991159439087,0,0,1.223039984703064
0.982458321,0,0,1.7118542194366455,0,0,0.9937199950218201
0.983456087,0,0,1.6280571222305298,0,0,0.9172800183296204
0.984455464,0,0,1.50355863571167,0,0,0.7644000053405762
0.985455359,0,0,1.580173134803772,0,0,0.9172800183296204
0.986458717,0,0,1.6735470294952393,0,0,0.7644000053405762
0.987454483,0,0,1.7764976024627686,0,0,0.8408399820327759
0.988455749,0,0,1.800439715385437,0,0,0.8408399820327759
0.989455551,0,0,1.723825216293335,0,0,1.070159912109375
0.990458372,0,0,1.8315643072128296,0,0,0.8408399820327759
0.99145586,0,0,1.8052281141281128,0,0,1.2994799613952637
0.992456404,0,0,1.6759412288665771,0,0,1.1466000080108643
0.993455114,0,0,1.702277421951294,0,0,0.9937199950218201
0.994458713,0,0,1.6543933153152466,0,0,1.070159912109375
0.99545546,0,0,1.5466543436050415,0,0,0.7644000053405762
0.996455318,0,0,1.6424223184585571,0,0,1.223039984703064
0.997455714,0,0,1.6855180263519287,0,0,0.9172800183296204
0.998458442,0,0,1.7046716213226318,0,0,1.1466000080108643
0.999455745,0,0,1.7908629179000854,0,0,0.8408399820327759
1.000455696,0,0,1.7310078144073486,0,0,0.9172800183296204
1.001466202,0,0,1.7525556087493896,0,0,0.9172800183296204
1.002469208,0,0,1.8195933103561401,0,0,1.1466000080108643
1.003483844,0,0,1.6711528301239014,0,0,0.8408399820327759
1.004598053,0,0,1.6376339197158813,0,0,0.9172800183296204
1.005490376,0,0,1.5969325304031372,0,0,0.9937199950218201
1.006469845,0,0,1.5610195398330688,0,0,0.9172800183296204
1.00751124,0,0,1.678335428237915,0,0,0.8408399820327759
1.008445858,0,0,1.7836803197860718,0,0,0.8408399820327759
1.009433865,0,0,1.7860745191574097,0,0,0.9937199950218201
1.010462556,0,0,1.7836803197860718,0,0,0.9172800183296204
1.011440952,0,0,1.7693150043487549,0,0,0.9172800183296204
1.012470013,0,0,1.8171991109848022,0,0,0.6879600286483765
1.013460353,0,0,1.843535304069519,0,0,0.9937199950218201
1.014444915,0,0,1.8986018896102905,0,0,0.7644000053405762
1.015946971,0,0,1.6496049165725708,0,0,0.9172800183296204
1.016450872,0,0,1.6615760326385498,0,0,0.9937199950218201
1.017423564,0,0,1.6280571222305298,0,0,0.8408399820327759
1.018439274,0,0,1.525106430053711,0,0,1.070159912109375
1.019426614,0,0,1.6160861253738403,0,0,0.9172800183296204
1.020427621,0,0,1.6496049165725708,0,0,0.611519992351532
1.021446608,0,0,1.7310078144073486,0,0,0.9172800183296204
1.022439652,0,0,1.7956513166427612,0,0,0.6879600286483765
1.023428992,0,0,1.7477672100067139,0,0,1.070159912109375
1.024415702,0,0,1.7262194156646729,0,0,1.223039984703064
1.025623243,0,0,1.6639702320098877,0,0,1.1466000080108643
1.026450751,0,0,1.5729905366897583,0,0,0.9172800183296204
1.027460665,0,0,1.656787633895874,0,0,0.9937199950218201
1.028434727,0,0,1.5514427423477173,0,0,1.070159912109375
1.029446789,0,0,1.5298948287963867,0,0,0.9937199950218201
1.030455147,0,0,1.5945383310317993,0,0,1.1466000080108643
1.031420747,0,0,1.5849615335464478,0,0,0.8408399820327759
1.032413938,0,0,1.6304513216018677,0,0,0.6879600286483765
1.033413222,0,0,1.723825216293335,0,0,0.8408399820327759
1.03443784,0,0,1.7477672100067139,0,0,0.8408399820327759
1.035433531,0,0,1.7357962131500244,0,0,0.7644000053405762
1.036414834,0,0,1.699883222579956,0,0,0.9937199950218201
1.037409674,0,0,1.6400281190872192,0,0,0.9172800183296204
1.038429847,0,0,1.5682021379470825,0,0,0.7644000053405762
1.039418779,0,0,1.53707754611969,0,0,0.9172800183296204
1.04041399,0,0,1.5131354331970215,0,0,0.8408399820327759
1.041412885,0,0,1.5298948287963867,0,0,0.9172800183296204
1.042434909,0,0,1.5873557329177856,0,0,0.8408399820327759
1.043573896,0,0,1.6400281190872192,0,0,1.070159912109375
1.044438107,0,0,1.6496049165725708,0,0,0.9172800183296204
1.045418373,0,0,1.723825216293335,0,0,0.9172800183296204
1.046416046,0,0,1.680729627609253,0,0,1.1466000080108643
1.047408849,0,0,1.6687586307525635,0,0,1.223039984703064
1.048410078,0,0,1.659181833267212,0,0,0.9172800183296204
1.049409325,0,0,1.678335428237915,0,0,0.9937199950218201
1.050421776,0,0,1.6759412288665771,0,0,0.9937199950218201
1.051415653,0,0,1.6041151285171509,0,0,0.9937199950218201
1.052414474,0,0,1.4891934394836426,0,0,0.9937199950218201
1.053414999,0,0,1.4652514457702637,0,0,0.9172800183296204
1.054415079,0,0,1.5634137392044067,0,0,0.8408399820327759
1.055409234,0,0,1.6496049165725708,0,0,0.9937199950218201
1.056407999,0,0,1.7190368175506592,0,0,1.070159912109375
1.057410858,0,0,1.7621324062347412,0,0,0.9172800183296204
1.058422345,0,0,1.7381904125213623,0,0,1.1466000080108643
1.059414241,0,0,1.7286136150360107,0,0,0.9172800183296204
1.060415229,0,0,1.6831238269805908,0,0,0.9937199950218201
1.061414272,0,0,1.5610195398330688,0,0,1.070159912109375
1.062413705,0,0,1.599326729774475,0,0,1.070159912109375
1.063409729,0,0,1.53707754611969,0,0,0.9172800183296204
1.064409162,0,0,1.601720929145813,0,0,1.070159912109375
1.065410483,0,0,1.699883222579956,0,0,0.9937199950218201
1.066423897,0,0,1.6879122257232666,0,0,0.9172800183296204
1.06741407,0,0,1.7597382068634033,0,0,0.9172800183296204
1.06841491,0,0,1.764526605606079,0,0,0.8408399820327759
1.069413953,0,0,1.766920804977417,0,0,0.9172800183296204
1.070416996,0,0,1.766920804977417,0,0,0.8408399820327759
1.071410336,0,0,1.7525556087493896,0,0,0.8408399820327759
1.072411139,0,0,1.623268723487854,0,0,1.070159912109375
1.073408868,0,0,1.5897499322891235,0,0,0.9937199950218201
1.0744188,0,0,1.6496049165725708,0,0,1.1466000080108643
1.075416454,0,0,1.5298948287963867,0,0,0.9172800183296204
1.076416665,0,0,1.5849615335464478,0,0,1.1466000080108643
1.077415875,0,0,1.5897499322891235,0,0,1.1466000080108643
1.07841527,0,0,1.6879122257232666,0,0,0.611519992351532
1.079601163,0,0,1.7573440074920654,0,0,0.9172800183296204
1.080472115,0,0,1.6831238269805908,0,0,0.8408399820327759
1.08143553,0,0,1.6974890232086182,0,0,0.9937199950218201
1.082440666,0,0,1.7310078144073486,0,0,1.2994799613952637
1.083434728,0,0,1.7717092037200928,0,0,0.8408399820327759
1.08442303,0,0,1.7286136150360107,0,0,0.9937199950218201
1.0854231109999999,0,0,1.6280571222305298,0,0,0.9937199950218201
1.086432358,0,0,1.6065093278884888,0,0,1.070159912109375
1.087439624,0,0,1.6376339197158813,0,0,1.1466000080108643
1.088433723,0,0,1.659181833267212,0,0,0.9937199950218201
1.089420211,0,0,1.5849615335464478,0,0,0.9172800183296204
1.090441217,0,0,1.6400281190872192,0,0,0.9172800183296204
1.091443445,0,0,1.6879122257232666,0,0,0.7644000053405762
1.092446489,0,0,1.7286136150360107,0,0,0.9172800183296204
1.093467069,0,0,1.745373010635376,0,0,0.7644000053405762
1.094440076,0,0,1.7381904125213623,0,0,1.070159912109375
1.095456804,0,0,1.659181833267212,0,0,0.9937199950218201
1.096442811,0,0,1.644816517829895,0,0,0.8408399820327759
1.097425558,0,0,1.659181833267212,0,0,0.9172800183296204
1.098440787,0,0,1.5634137392044067,0,0,1.1466000080108643
1.099420423,0,0,1.5083470344543457,0,0,1.070159912109375
1.100416633,0,0,1.6136919260025024,0,0,0.8408399820327759
1.101464917,0,0,1.7573440074920654,0,0,0.8408399820327759
1.102454719,0,0,1.7741034030914307,0,0,0.8408399820327759
1.103446985,0,0,1.8124107122421265,0,0,0.6879600286483765
1.104444121,0,0,1.8052281141281128,0,0,1.223039984703064
1.105441517,0,0,1.7262194156646729,0,0,0.9172800183296204
1.106444504,0,0,1.7621324062347412,0,0,0.8408399820327759
1.107441566,0,0,1.601720929145813,0,0,0.9937199950218201
1.108447962,0,0,1.5969325304031372,0,0,1.223039984703064
1.109256304,0,0,1.5179238319396973,0,0,0.9172800183296204
1.110250384,0,0,1.4987702369689941,0,0,0.9937199950218201
1.11124728,0,0,1.6184803247451782,0,0,0.6879600286483765
1.112241768,0,0,1.5705963373184204,0,0,0.9937199950218201
1.113263792,0,0,1.623268723487854,0,0,0.9172800183296204
1.114266354,0,0,1.723825216293335,0,0,0.7644000053405762
1.115263453,0,0,1.7357962131500244,0,0,0.611519992351532
1.116269589,0,0,1.766920804977417,0,0,1.070159912109375
1.117257948,0,0,1.7525556087493896,0,0,1.070159912109375
1.118226825,0,0,1.721431016921997,0,0,1.070159912109375
1.119224405,0,0,1.6543933153152466,0,0,1.070159912109375
1.120224041,0,0,1.5514427423477173,0,0,1.2994799613952637
1.121223455,0,0,1.5538369417190552,0,0,0.9172800183296204
1.122224906,0,0,1.5873557329177856,0,0,0.9172800183296204
1.123223857,0,0,1.6663644313812256,0,0,1.070159912109375
1.124223752,0,0,1.6711528301239014,0,0,0.8408399820327759
1.125223221,0,0,1.6711528301239014,0,0,0.8408399820327759
1.12622508,0,0,1.7262194156646729,0,0,0.8408399820327759
1.127223642,0,0,1.6831238269805908,0,0,0.8408399820327759
1.128223074,0,0,1.6519991159439087,0,0,0.9172800183296204
1.129223099,0,0,1.6711528301239014,0,0,0.9172800183296204
1.130225753,0,0,1.5682021379470825,0,0,0.8408399820327759
1.131224038,0,0,1.580173134803772,0,0,0.7644000053405762
1.132223951,0,0,1.6496049165725708,0,0,0.8408399820327759
1.133223736,0,0,1.5705963373184204,0,0,1.070159912109375
1.134224038,0,0,1.5873557329177856,0,0,1.1466000080108643
1.135223582,0,0,1.6759412288665771,0,0,0.9172800183296204
1.136223607,0,0,1.7477672100067139,0,0,1.070159912109375
1.137223483,0,0,1.7405846118927002,0,0,0.8408399820327759
1.138223768,0,0,1.8363527059555054,0,0,0.7644000053405762
1.13922357,0,0,1.8124107122421265,0,0,1.070159912109375
1.140223484,0,0,1.7573440074920654,0,0,0.8408399820327759
1.141223676,0,0,1.6663644313812256,0,0,0.9937199950218201
1.142228275,0,0,1.5729905366897583,0,0,0.9172800183296204
1.143224985,0,0,1.680729627609253,0,0,1.070159912109375
1.144223676,0,0,1.53707754611969,0,0,0.9172800183296204
1.14522372,0,0,1.6352397203445435,0,0,0.9937199950218201
1.146224411,0,0,1.647210717201233,0,0,0.9172800183296204
1.1472235849999999,0,0,1.6496049165725708,0,0,0.9172800183296204
1.148223665,0,0,1.7477672100067139,0,0,0.9172800183296204
1.149223857,0,0,1.6974890232086182,0,0,1.070159912109375
1.150223993,0,0,1.7262194156646729,0,0,0.8408399820327759
1.151223592,0,0,1.7405846118927002,0,0,1.223039984703064
1.15222358,0,0,1.7310078144073486,0,0,0.9172800183296204
1.153223253,0,0,1.6759412288665771,0,0,0.9172800183296204
1.154224185,0,0,1.678335428237915,0,0,1.1466000080108643
1.155223395,0,0,1.6304513216018677,0,0,1.070159912109375
1.156223605,0,0,1.534683346748352,0,0,0.6879600286483765
1.157223519,0,0,1.5897499322891235,0,0,1.070159912109375
1.158228044,0,0,1.5969325304031372,0,0,0.9172800183296204
1.159235161,0,0,1.7190368175506592,0,0,0.8408399820327759
1.160226816,0,0,1.7286136150360107,0,0,1.223039984703064
1.161226211,0,0,1.7525556087493896,0,0,0.8408399820327759
1.16222544,0,0,1.7621324062347412,0,0,0.9172800183296204
1.16322365,0,0,1.7142484188079834,0,0,0.9172800183296204
1.164223527,0,0,1.6519991159439087,0,0,1.070159912109375
1.165223792,0,0,1.599326729774475,0,0,0.9937199950218201
1.166226817,0,0,1.6112977266311646,0,0,0.9172800183296204
1.167226139,0,0,1.6184803247451782,0,0,0.9172800183296204
1.168225682,0,0,1.625662922859192,0,0,0.9172800183296204
1.169225892,0,0,1.656787633895874,0,0,0.9172800183296204
1.1702260469999999,0,0,1.7357962131500244,0,0,0.8408399820327759
1.171225923,0,0,1.7166426181793213,0,0,0.9172800183296204
1.172225448,0,0,1.7046716213226318,0,0,1.070159912109375
1.173225918,0,0,1.7812861204147339,0,0,0.9937199950218201
1.174227406,0,0,1.8052281141281128,0,0,0.9937199950218201
1.175226097,0,0,1.6927006244659424,0,0,0.9937199950218201
1.176226122,0,0,1.6663644313812256,0,0,0.9937199950218201
1.177226073,0,0,1.6879122257232666,0,0,0.6879600286483765
1.178227042,0,0,1.599326729774475,0,0,1.1466000080108643
1.179225827,0,0,1.577778935432434,0,0,0.9172800183296204
1.1802258509999999,0,0,1.6304513216018677,0,0,0.9937199950218201
1.181226006,0,0,1.7118542194366455,0,0,0.9937199950218201
1.18222692,0,0,1.7334020137786865,0,0,0.8408399820327759
1.183225889,0,0,1.8052281141281128,0,0,0.8408399820327759
1.1842259880000001,0,0,1.7190368175506592,0,0,0.8408399820327759
1.185225809,0,0,1.6950948238372803,0,0,0.9937199950218201
1.186226964,0,0,1.742978811264038,0,0,1.070159912109375
1.187225915,0,0,1.5945383310317993,0,0,0.8408399820327759
1.188225903,0,0,1.623268723487854,0,0,1.1466000080108643
1.189225668,0,0,1.5969325304031372,0,0,1.1466000080108643
1.190226527,0,0,1.5298948287963867,0,0,0.9172800183296204
1.191225903,0,0,1.4939818382263184,0,0,1.070159912109375
1.192226113,0,0,1.6112977266311646,0,0,1.070159912109375
1.193225435,0,0,1.702277421951294,0,0,0.9172800183296204
1.194226645,0,0,1.6711528301239014,0,0,0.9172800183296204
1.195228151,0,0,1.721431016921997,0,0,0.9172800183296204
1.196239787,0,0,1.721431016921997,0,0,0.9172800183296204
1.19722546,0,0,1.723825216293335,0,0,0.9172800183296204
1.198226504,0,0,1.6184803247451782,0,0,1.070159912109375
1.199226269,0,0,1.534683346748352,0,0,0.9937199950218201
1.200226591,0,0,1.5322890281677246,0,0,0.9172800183296204
1.201226356,0,0,1.5322890281677246,0,0,0.8408399820327759
1.202226622,0,0,1.5945383310317993,0,0,0.8408399820327759
1.203223869,0,0,1.5945383310317993,0,0,0.9172800183296204
1.2042236530000001,0,0,1.6519991159439087,0,0,0.8408399820327759
1.205223808,0,0,1.7046716213226318,0,0,0.9172800183296204
1.206228425,0,0,1.7405846118927002,0,0,0.8408399820327759
1.207226432,0,0,1.6328455209732056,0,0,0.9172800183296204
1.20822616,0,0,1.6376339197158813,0,0,0.8408399820327759
1.2092260559999999,0,0,1.6136919260025024,0,0,1.1466000080108643
1.210225229,0,0,1.6041151285171509,0,0,1.223039984703064
1.211223476,0,0,1.599326729774475,0,0,1.1466000080108643
1.212223501,0,0,1.623268723487854,0,0,1.070159912109375
1.213223507,0,0,1.5442601442337036,0,0,1.1466000080108643
1.214227069,0,0,1.5849615335464478,0,0,0.8408399820327759
1.215225427,0,0,1.6184803247451782,0,0,0.9172800183296204
1.216225823,0,0,1.6879122257232666,0,0,0.9937199950218201
1.217225811,0,0,1.702277421951294,0,0,0.9172800183296204
1.218227595,0,0,1.7190368175506592,0,0,0.9172800183296204
1.219225731,0,0,1.7717092037200928,0,0,0.9172800183296204
1.220225811,0,0,1.7477672100067139,0,0,0.9172800183296204
1.221225577,0,0,1.6950948238372803,0,0,0.9937199950218201
1.222227083,0,0,1.6352397203445435,0,0,0.9172800183296204
1.223226071,0,0,1.6496049165725708,0,0,1.452359914779663
1.224225781,0,0,1.6065093278884888,0,0,0.7644000053405762
1.225225973,0,0,1.5442601442337036,0,0,0.9172800183296204
1.226226998,0,0,1.6424223184585571,0,0,0.7644000053405762
1.227225893,0,0,1.6208745241165161,0,0,0.8408399820327759
1.2282259739999999,0,0,1.7357962131500244,0,0,1.070159912109375
1.2292257580000001,0,0,1.7501614093780518,0,0,0.8408399820327759
1.230226653,0,0,1.7094600200653076,0,0,1.1466000080108643
1.231225789,0,0,1.7573440074920654,0,0,0.8408399820327759
1.2322259070000001,0,0,1.8195933103561401,0,0,0.9172800183296204
1.233225283,0,0,1.6855180263519287,0,0,1.1466000080108643
1.234227031,0,0,1.5945383310317993,0,0,1.1466000080108643
1.235225926,0,0,1.5945383310317993,0,0,0.9937199950218201
1.236225469,0,0,1.5418659448623657,0,0,0.7644000053405762
1.23722555,0,0,1.6208745241165161,0,0,0.9172800183296204
1.238226908,0,0,1.6208745241165161,0,0,0.9172800183296204
1.239225618,0,0,1.7070658206939697,0,0,0.9937199950218201
1.240225865,0,0,1.7717092037200928,0,0,1.070159912109375
1.241226038,0,0,1.8267759084701538,0,0,1.070159912109375
1.24222686,0,0,1.8315643072128296,0,0,0.9172800183296204
1.24322557,0,0,1.6927006244659424,0,0,1.070159912109375
1.244225854,0,0,1.721431016921997,0,0,0.8408399820327759
1.245225823,0,0,1.6735470294952393,0,0,0.8408399820327759
1.246227033,0,0,1.601720929145813,0,0,0.9172800183296204
1.247225762,0,0,1.5682021379470825,0,0,1.1466000080108643
1.248225713,0,0,1.5538369417190552,0,0,1.2994799613952637
1.249225886,0,0,1.53707754611969,0,0,0.9172800183296204
1.250226652,0,0,1.577778935432434,0,0,0.9172800183296204
1.251225325,0,0,1.6304513216018677,0,0,0.9937199950218201
1.252225461,0,0,1.6759412288665771,0,0,0.8408399820327759
1.2532356519999999,0,0,1.7573440074920654,0,0,0.7644000053405762
1.254547322,0,0,1.7573440074920654,0,0,0.8408399820327759
1.255257165,0,0,1.6974890232086182,0,0,1.070159912109375
1.256227246,0,0,1.7860745191574097,0,0,0.9937199950218201
1.257225345,0,0,1.6089035272598267,0,0,1.070159912109375
1.258228981,0,0,1.5538369417190552,0,0,0.9937199950218201
1.259225061,0,0,1.6112977266311646,0,0,0.9172800183296204
1.260224753,0,0,1.4867992401123047,0,0,1.070159912109375
1.261224463,0,0,1.534683346748352,0,0,0.9937199950218201
1.262225784,0,0,1.5179238319396973,0,0,0.611519992351532
1.263224902,0,0,1.7190368175506592,0,0,1.070159912109375
1.2642246670000001,0,0,1.7286136150360107,0,0,0.7644000053405762
1.265224618,0,0,1.824381709098816,0,0,0.8408399820327759
1.266225587,0,0,1.7956513166427612,0,0,0.9172800183296204
1.267224594,0,0,1.6927006244659424,0,0,1.070159912109375
1.268224582,0,0,1.6136919260025024,0,0,0.9172800183296204
1.269224514,0,0,1.5921441316604614,0,0,0.8408399820327759
1.270225706,0,0,1.5945383310317993,0,0,1.070159912109375
1.271224434,0,0,1.4748282432556152,0,0,0.6879600286483765
1.272224589,0,0,1.4437036514282227,0,0,1.070159912109375
1.27322454,0,0,1.6280571222305298,0,0,0.6879600286483765
1.274225731,0,0,1.6615760326385498,0,0,0.6879600286483765
1.275224701,0,0,1.7381904125213623,0,0,0.9172800183296204
1.276224207,0,0,1.721431016921997,0,0,0.6879600286483765
1.277224713,0,0,1.745373010635376,0,0,0.7644000053405762
1.278225479,0,0,1.7262194156646729,0,0,0.9172800183296204
1.279224541,0,0,1.6496049165725708,0,0,1.2994799613952637
1.28022451,0,0,1.6160861253738403,0,0,0.9937199950218201
1.281224498,0,0,1.6424223184585571,0,0,1.070159912109375
1.282225671,0,0,1.6615760326385498,0,0,0.8408399820327759
1.28322453,0,0,1.5442601442337036,0,0,0.9172800183296204
1.284224666,0,0,1.6903064250946045,0,0,0.9937199950218201
1.285224505,0,0,1.6687586307525635,0,0,0.9172800183296204
1.2862254929999999,0,0,1.7381904125213623,0,0,0.9937199950218201
1.287224463,0,0,1.7094600200653076,0,0,1.1466000080108643
1.288224599,0,0,1.7741034030914307,0,0,0.9172800183296204
1.289224679,0,0,1.8555063009262085,0,0,1.1466000080108643
1.290225537,0,0,1.7549498081207275,0,0,1.070159912109375
1.291224525,0,0,1.745373010635376,0,0,0.9172800183296204
1.292224458,0,0,1.5849615335464478,0,0,0.9937199950218201
1.293224427,0,0,1.6687586307525635,0,0,0.9172800183296204
1.294225322,0,0,1.601720929145813,0,0,0.9172800183296204
1.295224625,0,0,1.5634137392044067,0,0,0.9172800183296204
1.29622478,0,0,1.5610195398330688,0,0,0.8408399820327759
1.297224193,0,0,1.6879122257232666,0,0,0.9172800183296204
1.298225404,0,0,1.6950948238372803,0,0,0.8408399820327759
1.299224873,0,0,1.7046716213226318,0,0,0.8408399820327759
1.300224546,0,0,1.7310078144073486,0,0,1.1466000080108643
1.301224497,0,0,1.7118542194366455,0,0,1.1466000080108643
1.3022336509999999,0,0,1.6974890232086182,0,0,0.9937199950218201
1.303225602,0,0,1.6328455209732056,0,0,1.070159912109375
1.3042247009999999,0,0,1.6711528301239014,0,0,1.223039984703064
1.305224522,0,0,1.7286136150360107,0,0,1.1466000080108643
1.3062258070000001,0,0,1.6759412288665771,0,0,0.8408399820327759
1.307224609,0,0,1.8052281141281128,0,0,0.9172800183296204
1.308224431,0,0,1.8411411046981812,0,0,0.9937199950218201
1.309224604,0,0,1.7884687185287476,0,0,0.9172800183296204
1.3102255170000001,0,0,1.7190368175506592,0,0,1.070159912109375
1.311224357,0,0,1.845929503440857,0,0,0.9172800183296204
1.312224567,0,0,1.7573440074920654,0,0,1.070159912109375
1.313224648,0,0,1.8124107122421265,0,0,0.9937199950218201
1.31422558,0,0,1.7142484188079834,0,0,1.070159912109375
1.315224457,0,0,1.6352397203445435,0,0,1.223039984703064
1.316224723,0,0,1.6735470294952393,0,0,0.9937199950218201
1.3172247289999999,0,0,1.601720929145813,0,0,1.1466000080108643
1.318225495,0,0,1.6687586307525635,0,0,0.8408399820327759
1.319224205,0,0,1.6328455209732056,0,0,0.8408399820327759
1.320224767,0,0,1.6927006244659424,0,0,1.1466000080108643
1.321224625,0,0,1.745373010635376,0,0,0.9172800183296204
1.322225983,0,0,1.8483237028121948,0,0,1.2994799613952637
1.323224786,0,0,1.8794482946395874,0,0,0.9937199950218201
1.324224459,0,0,1.7884687185287476,0,0,0.9937199950218201
1.325224632,0,0,1.8291701078414917,0,0,0.9172800183296204
1.3262256940000001,0,0,1.699883222579956,0,0,0.8408399820327759
1.327224626,0,0,1.6041151285171509,0,0,0.9937199950218201
1.328224429,0,0,1.6496049165725708,0,0,0.9937199950218201
1.329241769,0,0,1.6496049165725708,0,0,1.1466000080108643
1.330225942,0,0,1.656787633895874,0,0,1.070159912109375
1.331224782,0,0,1.6759412288665771,0,0,0.9937199950218201
1.332224547,0,0,1.7166426181793213,0,0,0.9937199950218201
1.333224665,0,0,1.778891921043396,0,0,0.9172800183296204
1.334226597,0,0,1.821987509727478,0,0,0.8408399820327759
1.335224455,0,0,1.7142484188079834,0,0,1.2994799613952637
1.3362247950000001,0,0,1.7262194156646729,0,0,0.9937199950218201
1.33722445,0,0,1.7094600200653076,0,0,1.2994799613952637
1.338225882,0,0,1.6041151285171509,0,0,0.6879600286483765
1.3392243879999999,0,0,1.6352397203445435,0,0,0.9172800183296204
1.340224524,0,0,1.5538369417190552,0,0,0.9172800183296204
1.341224049,0,0,1.534683346748352,0,0,0.8408399820327759
1.342225482,0,0,1.6424223184585571,0,0,0.9172800183296204
1.343234488,0,0,1.678335428237915,0,0,1.070159912109375
1.34422355,0,0,1.656787633895874,0,0,0.8408399820327759
1.345222205,0,0,1.6927006244659424,0,0,0.9172800183296204
1.346223063,0,0,1.647210717201233,0,0,1.070159912109375
1.347222551,0,0,1.6400281190872192,0,0,0.8408399820327759
1.348222316,0,0,1.659181833267212,0,0,0.8408399820327759
1.349222341,0,0,1.6280571222305298,0,0,0.9172800183296204
1.3502225700000001,0,0,1.680729627609253,0,0,1.223039984703064
1.351223428,0,0,1.6639702320098877,0,0,1.070159912109375
1.352222212,0,0,1.4724340438842773,0,0,0.8408399820327759
1.353221922,0,0,1.6184803247451782,0,0,0.9937199950218201
1.35422304,0,0,1.647210717201233,0,0,1.070159912109375
1.355222102,0,0,1.7501614093780518,0,0,0.8408399820327759
1.356222219,0,0,1.7764976024627686,0,0,0.9937199950218201
1.357222096,0,0,1.7573440074920654,0,0,0.8408399820327759
1.358225325,0,0,1.7597382068634033,0,0,1.070159912109375
1.359224368,0,0,1.7693150043487549,0,0,1.1466000080108643
1.360224578,0,0,1.623268723487854,0,0,0.9937199950218201
1.3612244740000001,0,0,1.6065093278884888,0,0,1.070159912109375
1.362225369,0,0,1.5825673341751099,0,0,0.9172800183296204
1.363224431,0,0,1.5131354331970215,0,0,0.9937199950218201
1.364224678,0,0,1.601720929145813,0,0,0.9937199950218201
1.365224722,0,0,1.6065093278884888,0,0,1.070159912109375
1.366225561,0,0,1.5753847360610962,0,0,0.611519992351532
1.367224475,0,0,1.644816517829895,0,0,0.9937199950218201
1.368224463,0,0,1.6663644313812256,0,0,0.9937199950218201
1.36922458,0,0,1.6903064250946045,0,0,0.9172800183296204
1.3702254759999999,0,0,1.7166426181793213,0,0,0.8408399820327759
1.371224741,0,0,1.7357962131500244,0,0,0.9937199950218201
1.3722248590000001,0,0,1.7381904125213623,0,0,0.9937199950218201
1.373224495,0,0,1.5969325304031372,0,0,0.9937199950218201
1.374225575,0,0,1.5849615335464478,0,0,1.1466000080108643
1.3752244519999999,0,0,1.5394717454910278,0,0,0.9172800183296204
1.376224273,0,0,1.5275006294250488,0,0,0.8408399820327759
1.377224613,0,0,1.580173134803772,0,0,0.7644000053405762
1.378225601,0,0,1.6496049165725708,0,0,0.8408399820327759
1.379315403,0,0,1.7525556087493896,0,0,1.223039984703064
1.380233429,0,0,1.7501614093780518,0,0,1.1466000080108643
1.381222565,0,0,1.7190368175506592,0,0,0.7644000053405762
1.3822234789999999,0,0,1.7717092037200928,0,0,1.1466000080108643
1.383222281,0,0,1.6376339197158813,0,0,0.9172800183296204
1.384221621,0,0,1.5610195398330688,0,0,1.1466000080108643
1.385222035,0,0,1.601720929145813,0,0,0.7644000053405762
1.3862228380000001,0,0,1.558625340461731,0,0,0.9172800183296204
1.387222418,0,0,1.5466543436050415,0,0,0.8408399820327759
1.388222036,0,0,1.6136919260025024,0,0,0.7644000053405762
1.38922219,0,0,1.702277421951294,0,0,1.070159912109375
1.390222567,0,0,1.6687586307525635,0,0,0.9172800183296204
1.391222258,0,0,1.7334020137786865,0,0,0.5350799560546875
1.392222191,0,0,1.802833914756775,0,0,0.7644000053405762
1.393222253,0,0,1.766920804977417,0,0,1.1466000080108643
1.3942255000000001,0,0,1.7405846118927002,0,0,0.9172800183296204
1.3952247660000001,0,0,1.5897499322891235,0,0,1.1466000080108643
1.396224531,0,0,1.6400281190872192,0,0,0.9172800183296204
1.397224741,0,0,1.6543933153152466,0,0,1.1466000080108643
1.398224581,0,0,1.53707754611969,0,0,1.070159912109375
1.39922468,0,0,1.656787633895874,0,0,0.7644000053405762
1.40022452,0,0,1.5897499322891235,0,0,0.9172800183296204
1.4012244520000001,0,0,1.7741034030914307,0,0,0.7644000053405762
1.40223494,0,0,1.723825216293335,0,0,0.9937199950218201
1.403225854,0,0,1.7142484188079834,0,0,1.070159912109375
1.404224471,0,0,1.7166426181793213,0,0,0.6879600286483765
1.405224385,0,0,1.7357962131500244,0,0,0.9937199950218201
1.40622541,0,0,1.6304513216018677,0,0,0.9937199950218201
1.407224768,0,0,1.6400281190872192,0,0,0.9937199950218201
1.408224645,0,0,1.644816517829895,0,0,1.070159912109375
1.409226096,0,0,1.5897499322891235,0,0,1.070159912109375
1.410226417,0,0,1.6304513216018677,0,0,1.1466000080108643
1.411224609,0,0,1.601720929145813,0,0,0.8408399820327759
1.412224708,0,0,1.6927006244659424,0,0,0.9937199950218201
1.413224603,0,0,1.7142484188079834,0,0,0.8408399820327759
1.414225646,0,0,1.6903064250946045,0,0,0.6879600286483765
1.415224616,0,0,1.745373010635376,0,0,1.070159912109375
1.416224567,0,0,1.721431016921997,0,0,1.070159912109375
1.417224536,0,0,1.7070658206939697,0,0,0.9172800183296204
1.418225431,0,0,1.5969325304031372,0,0,1.1466000080108643
1.419224697,0,0,1.5442601442337036,0,0,0.9937199950218201
1.420224444,0,0,1.5490485429763794,0,0,0.8408399820327759
1.421224247,0,0,1.4628572463989258,0,0,0.7644000053405762
1.422225142,0,0,1.6041151285171509,0,0,0.8408399820327759
1.423223982,0,0,1.6711528301239014,0,0,0.8408399820327759
1.424224025,0,0,1.7334020137786865,0,0,1.070159912109375
1.428041757,0,0,1.7334020137786865,0,0,0.9937199950218201
1.42822281,0,0,1.7334020137786865,0,0,1.452359914779663
1.428386142,0,0,1.7334020137786865,0,0,1.452359914779663
1.428548251,0,0,1.7812861204147339,0,0,0.9172800183296204
1.429230798,0,0,1.6974890232086182,0,0,0.8408399820327759
1.430225508,0,0,1.6184803247451782,0,0,0.9172800183296204
1.4312235150000001,0,0,1.5753847360610962,0,0,0.611519992351532
1.43222391,0,0,1.4748282432556152,0,0,1.070159912109375
1.433223713,0,0,1.556231141090393,0,0,0.9937199950218201
1.434224145,0,0,1.6041151285171509,0,0,0.8408399820327759
1.435223744,0,0,1.5729905366897583,0,0,0.8408399820327759
1.436223769,0,0,1.742978811264038,0,0,1.1466000080108643
1.437223572,0,0,1.8363527059555054,0,0,0.8408399820327759
1.438224133,0,0,1.7405846118927002,0,0,0.8408399820327759
1.439223603,0,0,1.6711528301239014,0,0,0.6879600286483765
1.440223665,0,0,1.6879122257232666,0,0,0.9937199950218201
1.441223597,0,0,1.5825673341751099,0,0,0.9172800183296204
1.442226844,0,0,1.6615760326385498,0,0,1.223039984703064
1.443226184,0,0,1.534683346748352,0,0,1.1466000080108643
1.444226005,0,0,1.5322890281677246,0,0,0.8408399820327759
1.445225789,0,0,1.5753847360610962,0,0,1.1466000080108643
1.446227074,0,0,1.678335428237915,0,0,0.8408399820327759
1.4472258390000001,0,0,1.702277421951294,0,0,0.9172800183296204
1.4482383269999999,0,0,1.7334020137786865,0,0,1.070159912109375
1.4492252589999999,0,0,1.8124107122421265,0,0,0.7644000053405762
1.450227284,0,0,1.7741034030914307,0,0,0.8408399820327759
1.451226494,0,0,1.7621324062347412,0,0,1.1466000080108643
1.452225575,0,0,1.7334020137786865,0,0,1.070159912109375
1.453225915,0,0,1.6927006244659424,0,0,1.223039984703064
1.454225273,0,0,1.6328455209732056,0,0,1.070159912109375
1.455223816,0,0,1.6376339197158813,0,0,0.9172800183296204
1.456223341,0,0,1.53707754611969,0,0,0.8408399820327759
1.457223459,0,0,1.6687586307525635,0,0,0.9172800183296204
1.4582273909999999,0,0,1.7525556087493896,0,0,0.9937199950218201
1.459225842,0,0,1.7310078144073486,0,0,0.9172800183296204
1.460242811,0,0,1.7094600200653076,0,0,0.9937199950218201
1.461226892,0,0,1.7405846118927002,0,0,0.9937199950218201
1.46222625,0,0,1.8148049116134644,0,0,1.1466000080108643
1.463225831,0,0,1.7525556087493896,0,0,1.2994799613952637
1.4642257810000001,0,0,1.6376339197158813,0,0,1.070159912109375
1.465225788,0,0,1.6041151285171509,0,0,1.1466000080108643
1.466226239,0,0,1.5897499322891235,0,0,1.070159912109375
1.467225949,0,0,1.556231141090393,0,0,0.9172800183296204
1.468225937,0,0,1.5897499322891235,0,0,1.1466000080108643
1.469225443,0,0,1.7070658206939697,0,0,0.9172800183296204
1.470227283,0,0,1.8626888990402222,0,0,1.1466000080108643
1.471225715,0,0,1.7908629179000854,0,0,0.9937199950218201
1.472225666,0,0,1.7693150043487549,0,0,1.070159912109375
1.473225802,0,0,1.7812861204147339,0,0,1.1466000080108643
1.474226531,0,0,1.7525556087493896,0,0,0.9937199950218201
1.475225722,0,0,1.7573440074920654,0,0,0.9937199950218201
1.476225858,0,0,1.6376339197158813,0,0,0.9172800183296204
1.477225791,0,0,1.5921441316604614,0,0,0.9172800183296204
1.478227186,0,0,1.5298948287963867,0,0,0.8408399820327759
1.4792255810000001,0,0,1.6041151285171509,0,0,0.9172800183296204
1.480225569,0,0,1.6663644313812256,0,0,0.7644000053405762
1.48122565,0,0,1.6687586307525635,0,0,0.8408399820327759
1.482227026,0,0,1.8124107122421265,0,0,0.6879600286483765
1.483225625,0,0,1.7860745191574097,0,0,0.9937199950218201
1.484225761,0,0,1.7525556087493896,0,0,1.1466000080108643
1.485225842,0,0,1.7573440074920654,0,0,0.8408399820327759
1.486226848,0,0,1.7094600200653076,0,0,0.9172800183296204
1.4872258729999999,0,0,1.5753847360610962,0,0,1.070159912109375
1.488225787,0,0,1.6615760326385498,0,0,0.9172800183296204
1.489225905,0,0,1.5298948287963867,0,0,0.9937199950218201
1.49022667,0,0,1.5059528350830078,0,0,0.9937199950218201
1.491225954,0,0,1.6519991159439087,0,0,0.9172800183296204
1.492225313,0,0,1.6950948238372803,0,0,0.6879600286483765
1.493225801,0,0,1.821987509727478,0,0,0.9937199950218201
1.4942266960000001,0,0,1.7956513166427612,0,0,0.9172800183296204
1.495225721,0,0,1.7693150043487549,0,0,0.9172800183296204
1.496225116,0,0,1.721431016921997,0,0,0.9172800183296204
1.497225474,0,0,1.764526605606079,0,0,0.9172800183296204
1.498226795,0,0,1.6352397203445435,0,0,0.9172800183296204
1.499225765,0,0,1.6089035272598267,0,0,0.8408399820327759
1.5002318080000001,0,0,1.5753847360610962,0,0,0.9172800183296204
1.501226352,0,0,1.6280571222305298,0,0,1.070159912109375
1.5022269320000001,0,0,1.6112977266311646,0,0,0.8408399820327759
1.503225235,0,0,1.580173134803772,0,0,0.8408399820327759
1.504225741,0,0,1.6328455209732056,0,0,0.7644000053405762
1.505225526,0,0,1.778891921043396,0,0,0.7644000053405762
1.506226976,0,0,1.7357962131500244,0,0,0.8408399820327759
1.50722552,0,0,1.721431016921997,0,0,0.7644000053405762
1.508225785,0,0,1.659181833267212,0,0,1.1466000080108643
1.509225625,0,0,1.6927006244659424,0,0,0.9172800183296204
1.510226909,0,0,1.623268723487854,0,0,0.9172800183296204
1.51122562,0,0,1.6615760326385498,0,0,0.8408399820327759
1.512225533,0,0,1.580173134803772,0,0,0.9172800183296204
1.513225484,0,0,1.5610195398330688,0,0,0.9937199950218201
1.514226268,0,0,1.558625340461731,0,0,1.1466000080108643
1.515225923,0,0,1.6615760326385498,0,0,0.9172800183296204
1.516225559,0,0,1.7262194156646729,0,0,1.2994799613952637
1.517225399,0,0,1.7166426181793213,0,0,1.2994799613952637
1.51822672,0,0,1.8124107122421265,0,0,0.7644000053405762
1.519225671,0,0,1.7357962131500244,0,0,0.9937199950218201
1.520225862,0,0,1.6950948238372803,0,0,1.070159912109375
1.521225572,0,0,1.702277421951294,0,0,0.9937199950218201
1.5222261160000001,0,0,1.625662922859192,0,0,0.9937199950218201
1.5232259,0,0,1.6615760326385498,0,0,0.9937199950218201
1.524232721,0,0,1.525106430053711,0,0,0.9172800183296204
1.5252264869999999,0,0,1.5298948287963867,0,0,0.9172800183296204
1.5262269750000002,0,0,1.678335428237915,0,0,0.8408399820327759
1.527225555,0,0,1.7286136150360107,0,0,0.8408399820327759
1.528225617,0,0,1.6831238269805908,0,0,0.7644000053405762
1.529225438,0,0,1.7717092037200928,0,0,0.7644000053405762
1.530227037,0,0,1.7142484188079834,0,0,0.9937199950218201
1.531225766,0,0,1.7405846118927002,0,0,1.070159912109375
1.532225569,0,0,1.7693150043487549,0,0,1.1466000080108643
1.53322589,0,0,1.6735470294952393,0,0,1.070159912109375
1.53422947,0,0,1.699883222579956,0,0,1.1466000080108643
1.535251143,0,0,1.50355863571167,0,0,0.8408399820327759
1.53622878,0,0,1.5275006294250488,0,0,1.1466000080108643
1.5372259160000001,0,0,1.522712230682373,0,0,0.9937199950218201
1.5382305330000001,0,0,1.5705963373184204,0,0,0.9937199950218201
1.539225225,0,0,1.7477672100067139,0,0,1.070159912109375
1.540225898,0,0,1.8387469053268433,0,0,0.8408399820327759
1.541225849,0,0,1.8507179021835327,0,0,0.9937199950218201
1.542226707,0,0,1.7836803197860718,0,0,1.070159912109375
1.54322951,0,0,1.7286136150360107,0,0,0.9172800183296204
1.5442252010000002,0,0,1.5897499322891235,0,0,1.1466000080108643
1.5452253740000002,0,0,1.5945383310317993,0,0,1.070159912109375
1.546226603,0,0,1.6543933153152466,0,0,0.9937199950218201
1.547226424,0,0,1.5753847360610962,0,0,0.8408399820327759
1.548226171,0,0,1.601720929145813,0,0,0.8408399820327759
1.549226215,0,0,1.6328455209732056,0,0,0.9937199950218201
1.5502251660000002,0,0,1.7286136150360107,0,0,0.9172800183296204
1.5512234679999999,0,0,1.6687586307525635,0,0,1.070159912109375
1.5522234560000001,0,0,1.800439715385437,0,0,1.070159912109375
1.553223629,0,0,1.7980455160140991,0,0,1.1466000080108643
1.554227969,0,0,1.7070658206939697,0,0,1.2994799613952637
1.555225716,0,0,1.678335428237915,0,0,0.9937199950218201
1.556225685,0,0,1.6112977266311646,0,0,0.9172800183296204
1.557225377,0,0,1.6136919260025024,0,0,1.452359914779663
1.558225995,0,0,1.5873557329177856,0,0,0.8408399820327759
1.5592256679999998,0,0,1.5059528350830078,0,0,0.8408399820327759
1.560225304,0,0,1.5682021379470825,0,0,1.070159912109375
1.561225403,0,0,1.6424223184585571,0,0,1.070159912109375
1.562227113,0,0,1.6663644313812256,0,0,0.9172800183296204
1.5632257489999999,0,0,1.6879122257232666,0,0,1.070159912109375
1.5642257000000002,0,0,1.7621324062347412,0,0,0.8408399820327759
1.565225817,0,0,1.7357962131500244,0,0,0.7644000053405762
1.566226675,0,0,1.7118542194366455,0,0,0.9937199950218201
1.567225608,0,0,1.623268723487854,0,0,0.6879600286483765
1.568225744,0,0,1.6280571222305298,0,0,0.8408399820327759
1.569225528,0,0,1.6352397203445435,0,0,0.9172800183296204
1.5702269229999999,0,0,1.5418659448623657,0,0,0.9172800183296204
1.571225874,0,0,1.6136919260025024,0,0,0.7644000053405762
1.5722258249999999,0,0,1.6160861253738403,0,0,0.6879600286483765
1.573225702,0,0,1.6663644313812256,0,0,0.8408399820327759
1.574226801,0,0,1.7118542194366455,0,0,0.9172800183296204
1.575225696,0,0,1.7405846118927002,0,0,0.5350799560546875
1.576225702,0,0,1.7477672100067139,0,0,0.8408399820327759
1.577225616,0,0,1.7190368175506592,0,0,1.070159912109375
1.578226752,0,0,1.7405846118927002,0,0,0.9172800183296204
1.579225777,0,0,1.6543933153152466,0,0,0.9172800183296204
1.5802256909999999,0,0,1.6112977266311646,0,0,0.9937199950218201
1.581225716,0,0,1.4652514457702637,0,0,0.9937199950218201
1.582226333,0,0,1.5658079385757446,0,0,0.8408399820327759
1.5832264139999999,0,0,1.601720929145813,0,0,0.611519992351532
1.5842258280000001,0,0,1.723825216293335,0,0,0.7644000053405762
1.5852257600000002,0,0,1.702277421951294,0,0,0.9172800183296204
1.58622697,0,0,1.7549498081207275,0,0,0.9172800183296204
1.58722568,0,0,1.7812861204147339,0,0,0.9172800183296204
1.588233538,0,0,1.7573440074920654,0,0,0.9172800183296204
1.589255563,0,0,1.7262194156646729,0,0,0.9172800183296204
1.590231199,0,0,1.6496049165725708,0,0,0.9172800183296204
1.5912298169999999,0,0,1.6711528301239014,0,0,0.9172800183296204
1.592231064,0,0,1.6519991159439087,0,0,0.8408399820327759
1.593226015,0,0,1.577778935432434,0,0,0.9172800183296204
1.5942272069999999,0,0,1.6496049165725708,0,0,0.9172800183296204
1.59522562,0,0,1.6352397203445435,0,0,0.9937199950218201
1.59622559,0,0,1.6759412288665771,0,0,0.6879600286483765
1.597225707,0,0,1.6496049165725708,0,0,0.9937199950218201
1.598226954,0,0,1.7956513166427612,0,0,0.7644000053405762
1.599225942,0,0,1.7884687185287476,0,0,0.9172800183296204
1.6002254489999999,0,0,1.7525556087493896,0,0,1.2994799613952637
1.601225992,0,0,1.5514427423477173,0,0,0.9937199950218201
1.6031027660000001,0,0,1.5514427423477173,0,0,1.070159912109375
1.6032661529999999,0,0,1.5442601442337036,0,0,1.070159912109375
1.6042267890000002,0,0,1.5897499322891235,0,0,0.7644000053405762
1.605224518,0,0,1.5298948287963867,0,0,0.8408399820327759
1.6062245609999999,0,0,1.6831238269805908,0,0,1.070159912109375
1.607223901,0,0,1.6831238269805908,0,0,0.9172800183296204
1.608223556,0,0,1.6974890232086182,0,0,0.9937199950218201
1.6092237470000001,0,0,1.6903064250946045,0,0,0.9172800183296204
1.610225254,0,0,1.699883222579956,0,0,0.8408399820327759
1.6112396119999999,0,0,1.656787633895874,0,0,1.1466000080108643
1.612224211,0,0,1.7262194156646729,0,0,0.9937199950218201
1.6132237539999998,0,0,1.6639702320098877,0,0,0.7644000053405762
1.614226798,0,0,1.6136919260025024,0,0,0.9172800183296204
1.615223804,0,0,1.5634137392044067,0,0,0.9172800183296204
1.6162234770000001,0,0,1.6184803247451782,0,0,0.9937199950218201
1.6172235019999999,0,0,1.625662922859192,0,0,0.9172800183296204
1.61822462,0,0,1.6879122257232666,0,0,1.070159912109375
1.6192236260000001,0,0,1.7405846118927002,0,0,1.070159912109375
1.620223706,0,0,1.7070658206939697,0,0,0.8408399820327759
1.621223546,0,0,1.7046716213226318,0,0,0.9172800183296204
1.622227293,0,0,1.7549498081207275,0,0,0.8408399820327759
1.623226096,0,0,1.6759412288665771,0,0,1.375920057296753
1.624226102,0,0,1.6879122257232666,0,0,0.6879600286483765
1.6252256269999998,0,0,1.5921441316604614,0,0,0.611519992351532
1.626226226,0,0,1.558625340461731,0,0,1.223039984703064
1.6272259359999999,0,0,1.5705963373184204,0,0,0.8408399820327759
1.628225924,0,0,1.6280571222305298,0,0,0.9172800183296204
1.6292259119999999,0,0,1.721431016921997,0,0,0.8408399820327759
1.630227252,0,0,1.6328455209732056,0,0,0.9172800183296204
1.63122587,0,0,1.6903064250946045,0,0,0.9937199950218201
1.632225839,0,0,1.7405846118927002,0,0,0.9172800183296204
1.633226197,0,0,1.7884687185287476,0,0,0.8408399820327759
1.634227166,0,0,1.8100165128707886,0,0,1.223039984703064
1.6352258769999999,0,0,1.802833914756775,0,0,1.223039984703064
1.636225976,0,0,1.6280571222305298,0,0,0.9172800183296204
1.6372257970000001,0,0,1.6974890232086182,0,0,0.9937199950218201
1.638227044,0,0,1.6615760326385498,0,0,0.6879600286483765
1.639225828,0,0,1.4987702369689941,0,0,0.9937199950218201
1.640225779,0,0,1.5514427423477173,0,0,0.9172800183296204
1.641225878,0,0,1.6112977266311646,0,0,0.7644000053405762
1.6422270509999999,0,0,1.6711528301239014,0,0,0.7644000053405762
1.643225539,0,0,1.6903064250946045,0,0,0.7644000053405762
1.644225842,0,0,1.6974890232086182,0,0,0.8408399820327759
1.6452257000000001,0,0,1.7190368175506592,0,0,0.9172800183296204
1.64622691,0,0,1.6687586307525635,0,0,1.1466000080108643
1.647225453,0,0,1.721431016921997,0,0,1.2994799613952637
1.648226052,0,0,1.5849615335464478,0,0,1.223039984703064
1.649225966,0,0,1.623268723487854,0,0,0.9937199950218201
1.6502269539999999,0,0,1.6304513216018677,0,0,0.9172800183296204
1.6512259980000001,0,0,1.6711528301239014,0,0,1.070159912109375
1.652235745,0,0,1.6065093278884888,0,0,1.070159912109375
1.653226733,0,0,1.7310078144073486,0,0,0.7644000053405762
1.654227017,0,0,1.7357962131500244,0,0,0.9172800183296204
1.655225801,0,0,1.7717092037200928,0,0,0.9172800183296204
1.6562261409999999,0,0,1.7166426181793213,0,0,0.9172800183296204
1.657225814,0,0,1.6615760326385498,0,0,0.9937199950218201
1.658227191,0,0,1.6879122257232666,0,0,1.070159912109375
1.6592260300000001,0,0,1.647210717201233,0,0,0.9172800183296204
1.660225703,0,0,1.5107412338256836,0,0,0.9937199950218201
1.661225728,0,0,1.5298948287963867,0,0,0.9937199950218201
1.662226901,0,0,1.4987702369689941,0,0,0.7644000053405762
1.663225797,0,0,1.5897499322891235,0,0,0.5350799560546875
1.664225988,0,0,1.6759412288665771,0,0,0.9937199950218201
1.6652256429999999,0,0,1.6974890232086182,0,0,1.1466000080108643
1.666227186,0,0,1.7501614093780518,0,0,0.8408399820327759
1.6672255630000001,0,0,1.7262194156646729,0,0,0.9937199950218201
1.668225347,0,0,1.6974890232086182,0,0,0.9937199950218201
1.6692254279999998,0,0,1.7166426181793213,0,0,1.223039984703064
1.6702273970000001,0,0,1.659181833267212,0,0,1.070159912109375
1.671231663,0,0,1.6280571222305298,0,0,1.223039984703064
1.672226651,0,0,1.6855180263519287,0,0,1.070159912109375
1.673225787,0,0,1.580173134803772,0,0,0.8408399820327759
1.6742269410000001,0,0,1.5275006294250488,0,0,0.9172800183296204
1.675225911,0,0,1.599326729774475,0,0,0.6879600286483765
1.6762258239999999,0,0,1.6663644313812256,0,0,0.9172800183296204
1.677225942,0,0,1.6519991159439087,0,0,0.7644000053405762
1.6782271149999999,0,0,1.7166426181793213,0,0,0.8408399820327759
1.679225732,0,0,1.7908629179000854,0,0,0.9172800183296204
1.6802259240000001,0,0,1.7501614093780518,0,0,0.9937199950218201
1.6812257640000001,0,0,1.800439715385437,0,0,0.9937199950218201
1.682226918,0,0,1.800439715385437,0,0,0.8408399820327759
1.683226054,0,0,1.6089035272598267,0,0,0.9937199950218201
1.6842260420000001,0,0,1.580173134803772,0,0,0.9937199950218201
1.685225845,0,0,1.5514427423477173,0,0,0.9937199950218201
1.686227074,0,0,1.5203180313110352,0,0,0.8408399820327759
1.687226006,0,0,1.647210717201233,0,0,0.6879600286483765
1.6882260489999998,0,0,1.5969325304031372,0,0,0.9172800183296204
1.689225889,0,0,1.7357962131500244,0,0,0.7644000053405762
1.690226414,0,0,1.778891921043396,0,0,1.070159912109375
1.691225865,0,0,1.6280571222305298,0,0,0.9172800183296204
1.692225834,0,0,1.6160861253738403,0,0,1.1466000080108643
1.693225933,0,0,1.745373010635376,0,0,0.8408399820327759
1.694227051,0,0,1.6639702320098877,0,0,0.8408399820327759
1.695226002,0,0,1.5849615335464478,0,0,0.9937199950218201
1.6962258970000001,0,0,1.6400281190872192,0,0,1.375920057296753
1.697225977,0,0,1.4891934394836426,0,0,1.070159912109375
1.698233261,0,0,1.5131354331970215,0,0,1.1466000080108643
1.6992302860000001,0,0,1.6496049165725708,0,0,0.8408399820327759
1.7002259039999998,0,0,1.6759412288665771,0,0,0.7644000053405762
1.701225781,0,0,1.702277421951294,0,0,1.070159912109375
1.702227435,0,0,1.6208745241165161,0,0,0.8408399820327759
1.703226238,0,0,1.723825216293335,0,0,0.8408399820327759
1.7042262259999998,0,0,1.7956513166427612,0,0,1.1466000080108643
1.705226232,0,0,1.7477672100067139,0,0,0.9172800183296204
1.706225183,0,0,1.6160861253738403,0,0,1.070159912109375
1.707223597,0,0,1.5825673341751099,0,0,1.1466000080108643
1.708223511,0,0,1.4963760375976563,0,0,1.070159912109375
1.709223462,0,0,1.5705963373184204,0,0,0.7644000053405762
1.710228209,0,0,1.577778935432434,0,0,0.9937199950218201
1.7112253819999999,0,0,1.6496049165725708,0,0,0.8408399820327759
1.71222561,0,0,1.6879122257232666,0,0,0.6879600286483765
1.713225709,0,0,1.6663644313812256,0,0,0.8408399820327759
1.714226271,0,0,1.7262194156646729,0,0,0.9172800183296204
1.7152260190000002,0,0,1.8076223134994507,0,0,1.070159912109375
1.716237192,0,0,1.6759412288665771,0,0,0.9172800183296204
1.717226568,0,0,1.599326729774475,0,0,0.9937199950218201
1.718227408,0,0,1.5418659448623657,0,0,0.8408399820327759
1.71922597,0,0,1.5753847360610962,0,0,0.9937199950218201
1.72022581,0,0,1.5083470344543457,0,0,1.1466000080108643
1.721226001,0,0,1.577778935432434,0,0,1.070159912109375
1.722227119,0,0,1.625662922859192,0,0,0.7644000053405762
1.7232257359999998,0,0,1.6400281190872192,0,0,0.9937199950218201
1.7242262240000001,0,0,1.7334020137786865,0,0,0.9172800183296204
1.725252286,0,0,1.7741034030914307,0,0,0.8408399820327759
1.726256959,0,0,1.7884687185287476,0,0,1.1466000080108643
1.727258928,0,0,1.745373010635376,0,0,1.070159912109375
1.728299786,0,0,1.6974890232086182,0,0,0.7644000053405762
1.729302348,0,0,1.5658079385757446,0,0,0.9937199950218201
1.7302828730000002,0,0,1.659181833267212,0,0,0.9937199950218201
1.731283213,0,0,1.5705963373184204,0,0,0.9172800183296204
1.7322787929999999,0,0,1.5083470344543457,0,0,0.7644000053405762
1.733298263,0,0,1.7142484188079834,0,0,0.9172800183296204
1.735467662,0,0,1.7142484188079834,0,0,0.611519992351532
1.735642642,0,0,1.7142484188079834,0,0,0.9937199950218201
1.7363039850000002,0,0,1.702277421951294,0,0,1.070159912109375
1.737279659,0,0,1.6735470294952393,0,0,0.8408399820327759
1.738273313,0,0,1.723825216293335,0,0,1.1466000080108643
1.739295357,0,0,1.7693150043487549,0,0,1.1466000080108643
1.740293641,0,0,1.6496049165725708,0,0,0.8408399820327759
1.7412751100000001,0,0,1.5729905366897583,0,0,0.9937199950218201
1.7422527840000002,0,0,1.6112977266311646,0,0,0.9172800183296204
1.743246438,0,0,1.4772224426269531,0,0,0.9937199950218201
1.7442412969999999,0,0,1.482010841369629,0,0,1.070159912109375
1.7452265439999999,0,0,1.7477672100067139,0,0,0.9937199950218201
1.7462274020000002,0,0,1.742978811264038,0,0,0.8408399820327759
1.7472410200000001,0,0,1.6352397203445435,0,0,1.070159912109375
1.748227915,0,0,1.7262194156646729,0,0,0.8408399820327759
1.749286458,0,0,1.699883222579956,0,0,0.9172800183296204
1.7502569829999999,0,0,1.7357962131500244,0,0,0.9937199950218201
1.751251508,0,0,1.7908629179000854,0,0,1.070159912109375
1.752239459,0,0,1.6519991159439087,0,0,0.9937199950218201
1.753234873,0,0,1.6424223184585571,0,0,1.070159912109375
1.7542375460000001,0,0,1.5945383310317993,0,0,0.9172800183296204
1.755232201,0,0,1.4484920501708984,0,0,0.9172800183296204
1.756231837,0,0,1.5658079385757446,0,0,0.9937199950218201
1.757232287,0,0,1.6376339197158813,0,0,0.7644000053405762
1.75823909,0,0,1.7381904125213623,0,0,0.9937199950218201
1.759232393,0,0,1.7190368175506592,0,0,0.7644000053405762
1.760231436,0,0,1.7812861204147339,0,0,0.7644000053405762
1.7612305350000002,0,0,1.7693150043487549,0,0,0.9172800183296204
1.7622432080000001,0,0,1.821987509727478,0,0,0.9937199950218201
1.7632330299999999,0,0,1.7190368175506592,0,0,1.1466000080108643
1.7642303510000001,0,0,1.601720929145813,0,0,1.1466000080108643
1.765230931,0,0,1.702277421951294,0,0,0.7644000053405762
1.766244567,0,0,1.599326729774475,0,0,0.8408399820327759
1.767553792,0,0,1.7094600200653076,0,0,1.1466000080108643
1.7682511349999999,0,0,1.6974890232086182,0,0,0.9172800183296204
1.769234994,0,0,1.6136919260025024,0,0,0.9172800183296204
1.7702390559999999,0,0,1.6927006244659424,0,0,1.070159912109375
1.771248544,0,0,1.7932571172714233,0,0,0.8408399820327759
1.772244328,0,0,1.6711528301239014,0,0,0.9937199950218201
1.773240279,0,0,1.766920804977417,0,0,0.9937199950218201
1.774247804,0,0,1.7573440074920654,0,0,0.8408399820327759
1.775237625,0,0,1.6735470294952393,0,0,0.9937199950218201
1.776232335,0,0,1.680729627609253,0,0,0.9172800183296204
1.7772321930000001,0,0,1.5921441316604614,0,0,0.7644000053405762
1.778243681,0,0,1.601720929145813,0,0,0.9172800183296204
1.7792372250000001,0,0,1.5514427423477173,0,0,0.9937199950218201
1.780249009,0,0,1.5849615335464478,0,0,0.8408399820327759
1.7812412,0,0,1.6424223184585571,0,0,0.9937199950218201
1.782241577,0,0,1.8195933103561401,0,0,1.070159912109375
1.7832374720000002,0,0,1.7908629179000854,0,0,0.9937199950218201
1.7842377379999999,0,0,1.7908629179000854,0,0,0.7644000053405762
1.785234504,0,0,1.6376339197158813,0,0,0.8408399820327759
1.7862404920000001,0,0,1.601720929145813,0,0,1.1466000080108643
1.7872342940000001,0,0,1.5538369417190552,0,0,1.070159912109375
1.788234005,0,0,1.5059528350830078,0,0,0.9172800183296204
1.7892339179999999,0,0,1.5418659448623657,0,0,1.1466000080108643
1.790232314,0,0,1.53707754611969,0,0,1.070159912109375
1.791227987,0,0,1.6041151285171509,0,0,0.4586400091648102
1.792233178,0,0,1.702277421951294,0,0,1.070159912109375
1.7932409809999998,0,0,1.745373010635376,0,0,0.9172800183296204
1.7942903019999998,0,0,1.778891921043396,0,0,0.9937199950218201
1.7952959929999999,0,0,1.723825216293335,0,0,1.070159912109375
1.796301388,0,0,1.7381904125213623,0,0,0.611519992351532
1.7972589509999999,0,0,1.7190368175506592,0,0,1.223039984703064
1.798289568,0,0,1.625662922859192,0,0,1.070159912109375
1.799370221,0,0,1.6065093278884888,0,0,0.8408399820327759
1.800314099,0,0,1.4939818382263184,0,0,1.070159912109375
1.801300124,0,0,1.577778935432434,0,0,1.070159912109375
1.8023049819999999,0,0,1.656787633895874,0,0,0.8408399820327759
1.8032753590000001,0,0,1.6735470294952393,0,0,1.223039984703064
1.8042937540000001,0,0,1.7812861204147339,0,0,0.9172800183296204
1.805296427,0,0,1.778891921043396,0,0,0.9937199950218201
1.8062786929999999,0,0,1.699883222579956,0,0,0.6879600286483765
1.8072747740000001,0,0,1.7310078144073486,0,0,0.7644000053405762
1.808240521,0,0,1.766920804977417,0,0,0.7644000053405762
1.809249361,0,0,1.6543933153152466,0,0,0.9172800183296204
1.810253849,0,0,1.5753847360610962,0,0,1.070159912109375
1.81141865,0,0,1.6639702320098877,0,0,0.9172800183296204
1.812260732,0,0,1.5921441316604614,0,0,0.9172800183296204
1.813230868,0,0,1.5394717454910278,0,0,0.9172800183296204
1.814237689,0,0,1.5705963373184204,0,0,0.8408399820327759
1.81523064,0,0,1.656787633895874,0,0,0.9172800183296204
1.8162292020000002,0,0,1.742978811264038,0,0,0.9937199950218201
1.817230394,0,0,1.824381709098816,0,0,0.8408399820327759
1.818229882,0,0,1.845929503440857,0,0,0.8408399820327759
1.819227092,0,0,1.7741034030914307,0,0,0.9172800183296204
1.820227117,0,0,1.644816517829895,0,0,0.8408399820327759
1.821227179,0,0,1.5705963373184204,0,0,1.070159912109375
1.822238759,0,0,1.5179238319396973,0,0,1.070159912109375
1.823229618,0,0,1.5298948287963867,0,0,0.9937199950218201
1.82422942,0,0,1.525106430053711,0,0,0.9937199950218201
1.825230167,0,0,1.6639702320098877,0,0,0.8408399820327759
1.826232803,0,0,1.723825216293335,0,0,0.7644000053405762
1.8272289210000001,0,0,1.7190368175506592,0,0,0.9172800183296204
1.828226464,0,0,1.7764976024627686,0,0,0.9172800183296204
1.829228415,0,0,1.7573440074920654,0,0,1.070159912109375
1.8302375880000001,0,0,1.8148049116134644,0,0,1.070159912109375
1.8312296319999999,0,0,1.7525556087493896,0,0,1.1466000080108643
1.832232416,0,0,1.53707754611969,0,0,0.8408399820327759
1.833229608,0,0,1.6376339197158813,0,0,0.9172800183296204
1.834235392,0,0,1.601720929145813,0,0,0.8408399820327759
1.835237324,0,0,1.5538369417190552,0,0,1.1466000080108643
1.836235793,0,0,1.5753847360610962,0,0,0.9937199950218201
1.837442834,0,0,1.6160861253738403,0,0,0.8408399820327759
1.838286935,0,0,1.647210717201233,0,0,0.7644000053405762
1.839253572,0,0,1.623268723487854,0,0,0.9937199950218201
1.840253374,0,0,1.6496049165725708,0,0,0.9172800183296204
1.841237899,0,0,1.6831238269805908,0,0,0.8408399820327759
1.842232647,0,0,1.6089035272598267,0,0,1.1466000080108643
1.8432262270000002,0,0,1.599326729774475,0,0,0.9172800183296204
1.844232178,0,0,1.644816517829895,0,0,0.8408399820327759
1.845226759,0,0,1.5969325304031372,0,0,0.7644000053405762
1.846225246,0,0,1.53707754611969,0,0,0.611519992351532
1.847223345,0,0,1.5322890281677246,0,0,0.9937199950218201
1.8482233890000002,0,0,1.6208745241165161,0,0,1.223039984703064
1.8492235799999999,0,0,1.7046716213226318,0,0,0.9172800183296204
1.850227624,0,0,1.7166426181793213,0,0,0.9937199950218201
1.851230667,0,0,1.7693150043487549,0,0,0.9937199950218201
1.852226044,0,0,1.802833914756775,0,0,0.7644000053405762
1.8532261989999999,0,0,1.7166426181793213,0,0,1.1466000080108643
1.854226298,0,0,1.7836803197860718,0,0,0.8408399820327759
1.8552238779999999,0,0,1.680729627609253,0,0,0.6879600286483765
1.856223885,0,0,1.5658079385757446,0,0,1.1466000080108643
1.8572235209999999,0,0,1.5753847360610962,0,0,0.6879600286483765
1.858228786,0,0,1.5634137392044067,0,0,1.070159912109375
1.8592260330000001,0,0,1.577778935432434,0,0,0.9937199950218201
1.8602260400000001,0,0,1.625662922859192,0,0,0.9937199950218201
1.861226083,0,0,1.7980455160140991,0,0,0.9172800183296204
1.8622249229999999,0,0,1.745373010635376,0,0,0.8408399820327759
1.863223318,0,0,1.7381904125213623,0,0,0.8408399820327759
1.864223547,0,0,1.7573440074920654,0,0,1.070159912109375
1.865223516,0,0,1.7573440074920654,0,0,0.7644000053405762
1.866227097,0,0,1.7908629179000854,0,0,0.9937199950218201
1.867226381,0,0,1.6112977266311646,0,0,0.9172800183296204
1.868226424,0,0,1.5969325304031372,0,0,1.223039984703064
1.869226412,0,0,1.53707754611969,0,0,0.9937199950218201
1.870225196,0,0,1.5729905366897583,0,0,0.9172800183296204
1.8712238879999998,0,0,1.5897499322891235,0,0,0.9172800183296204
1.872223876,0,0,1.6280571222305298,0,0,0.6879600286483765
1.873223679,0,0,1.7094600200653076,0,0,0.9172800183296204
1.874226666,0,0,1.7405846118927002,0,0,0.9172800183296204
1.875226506,0,0,1.7094600200653076,0,0,0.8408399820327759
1.8762258090000001,0,0,1.7262194156646729,0,0,1.1466000080108643
1.877225704,0,0,1.702277421951294,0,0,1.1466000080108643
1.878226562,0,0,1.558625340461731,0,0,1.070159912109375
1.879226476,0,0,1.6041151285171509,0,0,0.9172800183296204
1.880226297,0,0,1.6184803247451782,0,0,0.8408399820327759
1.8812265259999998,0,0,1.5275006294250488,0,0,0.9172800183296204
1.8822253469999999,0,0,1.5298948287963867,0,0,1.070159912109375
1.8832237429999998,0,0,1.680729627609253,0,0,0.9937199950218201
1.8842231379999999,0,0,1.7525556087493896,0,0,0.6879600286483765
1.885223755,0,0,1.800439715385437,0,0,0.9937199950218201
1.8862265950000001,0,0,1.7621324062347412,0,0,0.611519992351532
1.8872256570000001,0,0,1.7262194156646729,0,0,0.7644000053405762
1.888225978,0,0,1.7693150043487549,0,0,1.070159912109375
1.889225874,0,0,1.6615760326385498,0,0,0.7644000053405762
1.8902264359999998,0,0,1.5083470344543457,0,0,0.9172800183296204
1.891225849,0,0,1.6615760326385498,0,0,0.9172800183296204
1.892225874,0,0,1.678335428237915,0,0,0.8408399820327759
1.8932259359999999,0,0,1.5849615335464478,0,0,0.9172800183296204
1.894227406,0,0,1.5921441316604614,0,0,1.1466000080108643
1.895226171,0,0,1.625662922859192,0,0,0.9172800183296204
1.89622603,0,0,1.6376339197158813,0,0,0.9937199950218201
1.8972260730000001,0,0,1.702277421951294,0,0,0.8408399820327759
1.898226913,0,0,1.7693150043487549,0,0,0.6879600286483765
1.8992259009999999,0,0,1.699883222579956,0,0,1.1466000080108643
1.900225907,0,0,1.7190368175506592,0,0,0.8408399820327759
1.901225969,0,0,1.5921441316604614,0,0,1.070159912109375
1.902226401,0,0,1.5203180313110352,0,0,0.9172800183296204
1.9032258340000001,0,0,1.6711528301239014,0,0,1.070159912109375
1.904225599,0,0,1.580173134803772,0,0,0.6879600286483765
1.905226069,0,0,1.5873557329177856,0,0,1.070159912109375
1.9062268900000001,0,0,1.6496049165725708,0,0,0.9172800183296204
1.907225767,0,0,1.6735470294952393,0,0,0.8408399820327759
1.908236866,0,0,1.7118542194366455,0,0,1.070159912109375
1.909226854,0,0,1.7693150043487549,0,0,0.7644000053405762
1.9102272120000001,0,0,1.7501614093780518,0,0,0.9172800183296204
1.911225866,0,0,1.723825216293335,0,0,1.1466000080108643
1.912225651,0,0,1.6208745241165161,0,0,0.7644000053405762
1.9132258979999999,0,0,1.6041151285171509,0,0,0.9172800183296204
1.914226923,0,0,1.5921441316604614,0,0,1.223039984703064
1.9152259109999998,0,0,1.5322890281677246,0,0,0.9937199950218201
1.916225824,0,0,1.4867992401123047,0,0,1.070159912109375
1.9172257940000001,0,0,1.6352397203445435,0,0,0.5350799560546875
1.918226819,0,0,1.6639702320098877,0,0,0.5350799560546875
1.919225862,0,0,1.6879122257232666,0,0,1.1466000080108643
1.920225924,0,0,1.7836803197860718,0,0,0.9937199950218201
1.921225875,0,0,1.7621324062347412,0,0,1.070159912109375
1.9222270479999999,0,0,1.6759412288665771,0,0,1.223039984703064
1.923226036,0,0,1.6974890232086182,0,0,0.8408399820327759
1.924225579,0,0,1.6041151285171509,0,0,0.8408399820327759
1.925225771,0,0,1.522712230682373,0,0,0.9172800183296204
1.926227092,0,0,1.577778935432434,0,0,0.9172800183296204
1.9272254690000001,0,0,1.5322890281677246,0,0,0.7644000053405762
1.928225216,0,0,1.601720929145813,0,0,0.8408399820327759
1.929225963,0,0,1.6328455209732056,0,0,0.7644000053405762
1.9302265809999999,0,0,1.7142484188079834,0,0,0.9172800183296204
1.931225346,0,0,1.6687586307525635,0,0,0.9172800183296204
1.932225371,0,0,1.6735470294952393,0,0,0.8408399820327759
1.933225378,0,0,1.7549498081207275,0,0,1.223039984703064
1.93423918,0,0,1.7573440074920654,0,0,0.9172800183296204
1.9352275570000002,0,0,1.6496049165725708,0,0,0.6879600286483765
1.936226027,0,0,1.5682021379470825,0,0,0.8408399820327759
1.937225718,0,0,1.5969325304031372,0,0,0.6879600286483765
1.938226576,0,0,1.599326729774475,0,0,0.9937199950218201
1.939226175,0,0,1.5322890281677246,0,0,1.070159912109375
1.940225885,0,0,1.580173134803772,0,0,0.8408399820327759
1.941225984,0,0,1.644816517829895,0,0,0.9172800183296204
1.942227435,0,0,1.778891921043396,0,0,0.7644000053405762
1.943225794,0,0,1.7597382068634033,0,0,0.8408399820327759
1.944227948,0,0,1.8315643072128296,0,0,0.611519992351532
1.945225751,0,0,1.8148049116134644,0,0,0.9172800183296204
1.94622685,0,0,1.7573440074920654,0,0,1.070159912109375
1.9472265229999999,0,0,1.6974890232086182,0,0,0.9937199950218201
1.948226566,0,0,1.6136919260025024,0,0,1.070159912109375
1.9492304059999999,0,0,1.534683346748352,0,0,0.9172800183296204
1.950230394,0,0,1.53707754611969,0,0,1.1466000080108643
1.951223697,0,0,1.6041151285171509,0,0,0.9172800183296204
1.952223648,0,0,1.580173134803772,0,0,1.070159912109375
1.953223506,0,0,1.7549498081207275,0,0,0.7644000053405762
1.9542301050000002,0,0,1.7621324062347412,0,0,0.9172800183296204
1.955226778,0,0,1.702277421951294,0,0,0.8408399820327759
1.956226321,0,0,1.7501614093780518,0,0,1.1466000080108643
1.957226124,0,0,1.7908629179000854,0,0,0.9172800183296204
1.9582250559999999,0,0,1.721431016921997,0,0,0.9172800183296204
1.9592235630000001,0,0,1.6184803247451782,0,0,0.7644000053405762
1.96022344,0,0,1.623268723487854,0,0,1.1466000080108643
1.961223613,0,0,1.5466543436050415,0,0,1.070159912109375
1.9622270259999999,0,0,1.5729905366897583,0,0,0.7644000053405762
1.9632260700000002,0,0,1.6639702320098877,0,0,0.8408399820327759
1.964226224,0,0,1.7142484188079834,0,0,0.9937199950218201
1.9652258599999999,0,0,1.7190368175506592,0,0,1.070159912109375
1.966226126,0,0,1.721431016921997,0,0,1.070159912109375
1.967225558,0,0,1.8100165128707886,0,0,1.1466000080108643
1.968225787,0,0,1.7908629179000854,0,0,1.1466000080108643
1.969225738,0,0,1.7741034030914307,0,0,1.070159912109375
1.970235485,0,0,1.5203180313110352,0,0,1.070159912109375
1.974018217,0,0,1.5203180313110352,0,0,1.1466000080108643
1.974194752,0,0,1.5203180313110352,0,0,1.1466000080108643
1.974357694,0,0,1.5203180313110352,0,0,0.0764399990439415
1.974520711,0,0,1.5753847360610962,0,0,0.9172800183296204
1.97522998,0,0,1.6543933153152466,0,0,0.7644000053405762
1.976225246,0,0,1.7357962131500244,0,0,0.9172800183296204
1.977224919,0,0,1.8507179021835327,0,0,0.9172800183296204
1.978274128,0,0,1.7836803197860718,0,0,0.8408399820327759
1.9792569869999999,0,0,1.778891921043396,0,0,0.9937199950218201
1.98022916,0,0,1.7477672100067139,0,0,1.070159912109375
1.981225352,0,0,1.6280571222305298,0,0,0.8408399820327759
1.982226747,0,0,1.53707754611969,0,0,0.8408399820327759
1.983224142,0,0,1.599326729774475,0,0,1.070159912109375
1.9842237969999998,0,0,1.5466543436050415,0,0,0.7644000053405762
1.985223803,0,0,1.534683346748352,0,0,1.1466000080108643
1.986233161,0,0,1.647210717201233,0,0,1.1466000080108643
1.9872248529999998,0,0,1.6663644313812256,0,0,0.9172800183296204
1.988224267,0,0,1.7262194156646729,0,0,1.070159912109375
1.98922431,0,0,1.745373010635376,0,0,0.8408399820327759
1.990226928,0,0,1.7142484188079834,0,0,0.8408399820327759
1.9912243969999999,0,0,1.7286136150360107,0,0,1.223039984703064
1.992224293,0,0,1.6663644313812256,0,0,0.9172800183296204
1.993224077,0,0,1.5442601442337036,0,0,0.9937199950218201
1.9942293420000001,0,0,1.577778935432434,0,0,0.7644000053405762
1.99522483,0,0,1.5514427423477173,0,0,1.070159912109375
1.996224059,0,0,1.5658079385757446,0,0,0.7644000053405762
1.997224176,0,0,1.6831238269805908,0,0,0.7644000053405762
1.998226942,0,0,1.6687586307525635,0,0,0.9937199950218201
1.999223911,0,0,1.7405846118927002,0,0,0.9172800183296204
2.000224714,0,0,1.7405846118927002,0,0,0.9172800183296204
2.001224517,0,0,1.7597382068634033,0,0,0.9172800183296204
2.002232394,0,0,1.7070658206939697,0,0,0.8408399820327759
2.003227382,0,0,1.7190368175506592,0,0,0.9937199950218201
2.004227555,0,0,1.6974890232086182,0,0,1.1466000080108643
2.00522708,0,0,1.5969325304031372,0,0,0.9937199950218201
2.0062264929999998,0,0,1.6184803247451782,0,0,1.1466000080108643
2.007224278,0,0,1.577778935432434,0,0,0.9172800183296204
2.008224339,0,0,1.4844050407409668,0,0,1.1466000080108643
2.009239364,0,0,1.5418659448623657,0,0,0.7644000053405762
2.010285037,0,0,1.6950948238372803,0,0,0.9937199950218201
2.011359135,0,0,1.7046716213226318,0,0,0.9172800183296204
2.012281216,0,0,1.6879122257232666,0,0,1.1466000080108643
2.013268315,0,0,1.699883222579956,0,0,0.8408399820327759
2.014255007,0,0,1.7597382068634033,0,0,0.9172800183296204
2.015327624,0,0,1.7142484188079834,0,0,0.9172800183296204
2.016360574,0,0,1.601720929145813,0,0,0.9937199950218201
2.017282471,0,0,1.625662922859192,0,0,1.070159912109375
2.01828331,0,0,1.5969325304031372,0,0,0.9937199950218201
2.019257558,0,0,1.5729905366897583,0,0,1.070159912109375
2.020239324,0,0,1.6543933153152466,0,0,1.070159912109375
2.021233978,0,0,1.6519991159439087,0,0,0.7644000053405762
2.022274151,0,0,1.7621324062347412,0,0,1.070159912109375
2.023240546,0,0,1.7334020137786865,0,0,0.9172800183296204
2.024248201,0,0,1.7405846118927002,0,0,1.1466000080108643
2.025258837,0,0,1.821987509727478,0,0,0.8408399820327759
2.026248658,0,0,1.7573440074920654,0,0,1.070159912109375
2.02722685,0,0,1.6519991159439087,0,0,1.1466000080108643
2.028224171,0,0,1.5490485429763794,0,0,1.070159912109375
2.029223678,0,0,1.5682021379470825,0,0,0.8408399820327759
2.030225314,0,0,1.5610195398330688,0,0,0.9937199950218201
2.031223616,0,0,1.5873557329177856,0,0,0.9172800183296204
2.032223864,0,0,1.6615760326385498,0,0,0.9937199950218201
2.033223759,0,0,1.745373010635376,0,0,0.7644000053405762
2.034224673,0,0,1.6927006244659424,0,0,0.7644000053405762
2.035223605,0,0,1.778891921043396,0,0,0.8408399820327759
2.036232296,0,0,1.7310078144073486,0,0,0.9172800183296204
2.037223988,0,0,1.7477672100067139,0,0,0.9172800183296204
2.038227272,0,0,1.7118542194366455,0,0,1.070159912109375
2.039223945,0,0,1.6112977266311646,0,0,0.6879600286483765
2.040223878,0,0,1.6065093278884888,0,0,0.9937199950218201
2.04122318,0,0,1.558625340461731,0,0,0.7644000053405762
2.042224316,0,0,1.5083470344543457,0,0,1.223039984703064
2.043223934,0,0,1.5442601442337036,0,0,0.9937199950218201
2.044223496,0,0,1.5849615335464478,0,0,0.9172800183296204
2.045223669,0,0,1.680729627609253,0,0,0.7644000053405762
2.046223824,0,0,1.7621324062347412,0,0,0.9937199950218201
2.047223737,0,0,1.8315643072128296,0,0,0.5350799560546875
2.048223614,0,0,1.8100165128707886,0,0,0.8408399820327759
2.049339101,0,0,1.7166426181793213,0,0,0.9937199950218201
2.05022722,0,0,1.6615760326385498,0,0,0.9172800183296204
2.051224504,0,0,1.5634137392044067,0,0,0.6879600286483765
2.052223455,0,0,1.5729905366897583,0,0,0.8408399820327759
2.053223628,0,0,1.5705963373184204,0,0,0.9172800183296204
2.054223764,0,0,1.53707754611969,0,0,0.9172800183296204
2.055223566,0,0,1.6184803247451782,0,0,0.9937199950218201
2.056223777,0,0,1.6543933153152466,0,0,0.8408399820327759
2.057223561,0,0,1.6974890232086182,0,0,0.9937199950218201
2.05822503,0,0,1.778891921043396,0,0,1.1466000080108643
2.059223333,0,0,1.7262194156646729,0,0,0.5350799560546875
2.060223839,0,0,1.7046716213226318,0,0,0.9172800183296204
2.061223809,0,0,1.6759412288665771,0,0,0.9937199950218201
2.062223889,0,0,1.577778935432434,0,0,0.7644000053405762
2.06322371,0,0,1.6184803247451782,0,0,0.9937199950218201
