Time,AccelX1,AccelY1,AccelZ1,AccelX2,AccelY2,AccelZ2
0.000160943,0,0,1.3766659498214722,0,0,0.7644000053405762
0.001363894,0,0,1.3766659498214722,0,0,0.7644000053405762
0.002587123,0,0,1.460463047027588,0,0,0.5350799560546875
0.003854462,0,0,1.460463047027588,0,0,0.6879600286483765
0.005154079,0,0,1.460463047027588,0,0,0.8408399820327759
0.006348456,0,0,1.460463047027588,0,0,0.9172800183296204
0.007586851,0,0,1.460463047027588,0,0,0.9172800183296204
0.008841172,0,0,1.460463047027588,0,0,0.8408399820327759
0.010088622,0,0,1.460463047027588,0,0,0.8408399820327759
0.011337573,0,0,1.4676456451416016,0,0,0.8408399820327759
0.012586782,0,0,1.4676456451416016,0,0,0.8408399820327759
0.013836566,0,0,1.4676456451416016,0,0,0.5350799560546875
0.015086758,0,0,1.4676456451416016,0,0,0.8408399820327759
0.016336875,0,0,1.4676456451416016,0,0,0.7644000053405762
0.017586881,0,0,1.4676456451416016,0,0,0.9172800183296204
0.018836646,0,0,1.4676456451416016,0,0,0.5350799560546875
0.020086615,0,0,1.5418659448623657,0,0,0.7644000053405762
0.021337714,0,0,1.5418659448623657,0,0,0.5350799560546875
0.022589924,0,0,1.5418659448623657,0,0,0.4586400091648102
0.023836634,0,0,1.5418659448623657,0,0,1.1466000080108643
0.025086658,0,0,1.5418659448623657,0,0,0.6879600286483765
0.026336609,0,0,1.5418659448623657,0,0,0.9172800183296204
0.02758643,0,0,1.5418659448623657,0,0,0.7644000053405762
0.028836621,0,0,1.580173134803772,0,0,1.070159912109375
0.030086386,0,0,1.580173134803772,0,0,0.8408399820327759
0.031336355,0,0,1.580173134803772,0,0,0.611519992351532
0.032586695,0,0,1.580173134803772,0,0,0.8408399820327759
0.033837775,0,0,1.580173134803772,0,0,0.5350799560546875
0.035086688,0,0,1.580173134803772,0,0,0.9172800183296204
0.036336324,0,0,1.580173134803772,0,0,0.9172800183296204
0.037586423,0,0,1.580173134803772,0,0,0.9937199950218201
0.038841114,0,0,1.5682021379470825,0,0,0.9172800183296204
0.04010225,0,0,1.5682021379470825,0,0,0.9172800183296204
0.041357496,0,0,1.5682021379470825,0,0,0.7644000053405762
0.04258741,0,0,1.5682021379470825,0,0,0.6879600286483765
0.043836231,0,0,1.5682021379470825,0,0,0.7644000053405762
0.045086107,0,0,1.5682021379470825,0,0,0.8408399820327759
0.046335947,0,0,1.5682021379470825,0,0,0.2293200045824051
0.047585712,0,0,1.6519991159439087,0,0,0.611519992351532
0.048835848,0,0,1.6519991159439087,0,0,0.7644000053405762
0.050086002,0,0,1.6519991159439087,0,0,0.9172800183296204
0.051335842,0,0,1.6519991159439087,0,0,0.9937199950218201
0.052585959,0,0,1.6519991159439087,0,0,0.8408399820327759
0.053837669,0,0,1.6519991159439087,0,0,0.9172800183296204
0.055086212,0,0,1.6519991159439087,0,0,0.611519992351532
0.056336125,0,0,1.479616641998291,0,0,0.8408399820327759
0.057585872,0,0,1.479616641998291,0,0,0.6879600286483765
0.058835841,0,0,1.479616641998291,0,0,0.8408399820327759
0.060085977,0,0,1.479616641998291,0,0,0.8408399820327759
0.061335946,0,0,1.479616641998291,0,0,0.8408399820327759
0.06258573,0,0,1.479616641998291,0,0,0.6879600286483765
0.063836847,0,0,1.479616641998291,0,0,0.5350799560546875
0.065113575,0,0,1.3527239561080933,0,0,0.611519992351532
0.066356914,0,0,1.3527239561080933,0,0,0.5350799560546875
0.067588736,0,0,1.3527239561080933,0,0,0.9172800183296204
0.068836316,0,0,1.3527239561080933,0,0,0.4586400091648102
0.07008597,0,0,1.3527239561080933,0,0,0.8408399820327759
0.071336069,0,0,1.3527239561080933,0,0,0.9172800183296204
0.072585871,0,0,1.3527239561080933,0,0,1.070159912109375
0.073837025,0,0,1.3694833517074585,0,0,0.9172800183296204
0.075086031,0,0,1.3694833517074585,0,0,0.611519992351532
0.076336056,0,0,1.3694833517074585,0,0,0.8408399820327759
0.077590321,0,0,1.3694833517074585,0,0,0.8408399820327759
0.078836068,0,0,1.3694833517074585,0,0,1.070159912109375
0.080085778,0,0,1.3694833517074585,0,0,0.8408399820327759
0.081348062,0,0,1.3694833517074585,0,0,0.9172800183296204
0.082587086,0,0,1.2832920551300049,0,0,0.7644000053405762
0.083836055,0,0,1.2832920551300049,0,0,1.1466000080108643
0.085085969,0,0,1.2832920551300049,0,0,0.8408399820327759
0.086336068,0,0,1.2832920551300049,0,0,0.611519992351532
0.087585611,0,0,1.2832920551300049,0,0,0.611519992351532
0.088835691,0,0,1.2832920551300049,0,0,0.8408399820327759
0.09008579,0,0,1.2832920551300049,0,0,0.611519992351532
0.091335814,0,0,1.2832920551300049,0,0,0.9937199950218201
0.092585857,0,0,1.37906014919281,0,0,0.611519992351532
0.093836419,0,0,1.37906014919281,0,0,0.5350799560546875
0.095085888,0,0,1.37906014919281,0,0,0.611519992351532
0.096335746,0,0,1.37906014919281,0,0,0.5350799560546875
0.097585771,0,0,1.37906014919281,0,0,0.8408399820327759
0.098835721,0,0,1.37906014919281,0,0,0.7644000053405762
0.100085912,0,0,1.37906014919281,0,0,0.6879600286483765
0.101335752,0,0,1.3934253454208374,0,0,0.7644000053405762
0.102585888,0,0,1.3934253454208374,0,0,0.7644000053405762
0.103835727,0,0,1.3934253454208374,0,0,0.9172800183296204
0.105107696,0,0,1.3934253454208374,0,0,0.9172800183296204
0.10634898,0,0,1.3934253454208374,0,0,0.9172800183296204
0.107615541,0,0,1.3934253454208374,0,0,0.7644000053405762
0.108839196,0,0,1.3934253454208374,0,0,1.070159912109375
0.110086498,0,0,1.4891934394836426,0,0,0.3822000026702881
0.111336671,0,0,1.4891934394836426,0,0,0.5350799560546875
0.112669806,0,0,1.4891934394836426,0,0,0.7644000053405762
0.113850201,0,0,1.4891934394836426,0,0,0.6879600286483765
0.115107522,0,0,1.4891934394836426,0,0,0.9937199950218201
0.116348621,0,0,1.4891934394836426,0,0,0.9172800183296204
0.11759972,0,0,1.4891934394836426,0,0,0.6879600286483765
0.118843781,0,0,1.5418659448623657,0,0,0.7644000053405762
0.120121047,0,0,1.5418659448623657,0,0,0.6879600286483765
0.121363497,0,0,1.5418659448623657,0,0,0.611519992351532
0.122601151,0,0,1.5418659448623657,0,0,0.5350799560546875
0.123841602,0,0,1.5418659448623657,0,0,0.9172800183296204
0.12562301,0,0,1.5418659448623657,0,0,0.9172800183296204
0.126375947,0,0,1.5418659448623657,0,0,0.9937199950218201
0.127604305,0,0,1.5418659448623657,0,0,0.9172800183296204
0.128839589,0,0,1.6184803247451782,0,0,0.611519992351532
0.13008717,0,0,1.6184803247451782,0,0,0.9172800183296204
0.131337361,0,0,1.6184803247451782,0,0,0.4586400091648102
0.132587126,0,0,1.6184803247451782,0,0,1.070159912109375
0.133843114,0,0,1.6184803247451782,0,0,0.305759996175766
0.135087842,0,0,1.6184803247451782,0,0,0.7644000053405762
0.136337385,0,0,1.6184803247451782,0,0,1.070159912109375
0.137587354,0,0,1.4867992401123047,0,0,1.1466000080108643
0.138837268,0,0,1.4867992401123047,0,0,0.8408399820327759
0.140087163,0,0,1.4867992401123047,0,0,0.7644000053405762
0.141337243,0,0,1.4867992401123047,0,0,0.6879600286483765
0.142587249,0,0,1.4867992401123047,0,0,0.6879600286483765
0.143837385,0,0,1.4867992401123047,0,0,1.223039984703064
0.145104391,0,0,1.4867992401123047,0,0,0.6879600286483765
0.146340915,0,0,1.6400281190872192,0,0,1.1466000080108643
0.147587644,0,0,1.6400281190872192,0,0,0.9172800183296204
0.148837668,0,0,1.6400281190872192,0,0,0.7644000053405762
0.150087341,0,0,1.6400281190872192,0,0,1.1466000080108643
0.151337292,0,0,1.6400281190872192,0,0,0.6879600286483765
0.152587076,0,0,1.6400281190872192,0,0,0.611519992351532
0.153836341,0,0,1.6400281190872192,0,0,0.3822000026702881
0.15509118,0,0,1.436521053314209,0,0,0.8408399820327759
0.156336149,0,0,1.436521053314209,0,0,0.9172800183296204
0.157602933,0,0,1.436521053314209,0,0,0.9172800183296204
0.158870069,0,0,1.436521053314209,0,0,0.611519992351532
0.160115945,0,0,1.436521053314209,0,0,0.7644000053405762
0.161380321,0,0,1.436521053314209,0,0,0.7644000053405762
0.16262792,0,0,1.436521053314209,0,0,0.7644000053405762
0.164684863,0,0,1.4413094520568848,0,0,1.070159912109375
0.165108895,0,0,1.4413094520568848,0,0,0.5350799560546875
0.16638192,0,0,1.4413094520568848,0,0,0.0764399990439415
0.167716018,0,0,1.4413094520568848,0,0,0.9172800183296204
0.168879432,0,0,1.4413094520568848,0,0,0.7644000053405762
0.170146512,0,0,1.4413094520568848,0,0,1.070159912109375
0.17138437,0,0,1.4413094520568848,0,0,0.6879600286483765
0.172716153,0,0,1.4413094520568848,0,0,0.4586400091648102
0.173886327,0,0,1.460463047027588,0,0,0.611519992351532
0.17516387,0,0,1.460463047027588,0,0,0.5350799560546875
0.176394339,0,0,1.460463047027588,0,0,1.2994799613952637
0.177652863,0,0,1.460463047027588,0,0,1.070159912109375
0.178896018,0,0,1.460463047027588,0,0,0.9172800183296204
0.180151246,0,0,1.460463047027588,0,0,0.9172800183296204
0.181404696,0,0,1.460463047027588,0,0,0.9172800183296204
0.182645758,0,0,1.3479355573654175,0,0,0.8408399820327759
0.183898635,0,0,1.3479355573654175,0,0,0.6879600286483765
0.185137215,0,0,1.3479355573654175,0,0,0.8408399820327759
0.186371091,0,0,1.3479355573654175,0,0,0.7644000053405762
0.187631783,0,0,1.3479355573654175,0,0,0.611519992351532
0.188849382,0,0,1.3479355573654175,0,0,0.9937199950218201
0.19009811,0,0,1.3479355573654175,0,0,1.1466000080108643
0.191337172,0,0,1.314416766166687,0,0,0.9937199950218201
0.192586233,0,0,1.314416766166687,0,0,0.611519992351532
0.193842813,0,0,1.314416766166687,0,0,0.6879600286483765
0.195086283,0,0,1.314416766166687,0,0,0.611519992351532
0.196336011,0,0,1.314416766166687,0,0,0.7644000053405762
0.19758611,0,0,1.314416766166687,0,0,0.8408399820327759
0.198835801,0,0,1.3694833517074585,0,0,0.3822000026702881
0.20008564,0,0,1.3694833517074585,0,0,0.8408399820327759
0.20133598,0,0,1.3694833517074585,0,0,0.611519992351532
0.202585819,0,0,1.3694833517074585,0,0,0.8408399820327759
0.203835659,0,0,1.3694833517074585,0,0,0.6879600286483765
0.205086757,0,0,1.3694833517074585,0,0,0.6879600286483765
0.206335967,0,0,1.3694833517074585,0,0,0.6879600286483765
0.207586214,0,0,1.3694833517074585,0,0,0.6879600286483765
0.208835998,0,0,1.5179238319396973,0,0,0.9172800183296204
0.210085856,0,0,1.5179238319396973,0,0,0.4586400091648102
0.211335973,0,0,1.5179238319396973,0,0,0.9172800183296204
0.212585831,0,0,1.5179238319396973,0,0,0.8408399820327759
0.213836078,0,0,1.5179238319396973,0,0,0.8408399820327759
0.215085806,0,0,1.5179238319396973,0,0,0.7644000053405762
0.216335886,0,0,1.5179238319396973,0,0,0.5350799560546875
0.217586003,0,0,1.5729905366897583,0,0,0.7644000053405762
0.218836287,0,0,1.5729905366897583,0,0,0.8408399820327759
0.220085738,0,0,1.5729905366897583,0,0,1.070159912109375
0.221337133,0,0,1.5729905366897583,0,0,0.9172800183296204
0.222586009,0,0,1.5729905366897583,0,0,0.8408399820327759
0.223835719,0,0,1.5729905366897583,0,0,0.8408399820327759
0.225087392,0,0,1.5729905366897583,0,0,0.8408399820327759
0.226337102,0,0,1.6089035272598267,0,0,0.8408399820327759
0.227587867,0,0,1.6089035272598267,0,0,0.8408399820327759
0.228838391,0,0,1.6089035272598267,0,0,0.5350799560546875
0.230087027,0,0,1.6089035272598267,0,0,0.8408399820327759
0.231345163,0,0,1.6089035272598267,0,0,0.7644000053405762
0.232611002,0,0,1.6089035272598267,0,0,0.8408399820327759
0.233838027,0,0,1.6089035272598267,0,0,0.8408399820327759
0.235087015,0,0,1.534683346748352,0,0,0.611519992351532
0.236336854,0,0,1.534683346748352,0,0,1.070159912109375
0.23758673,0,0,1.534683346748352,0,0,0.611519992351532
0.23883707,0,0,1.534683346748352,0,0,0.9937199950218201
0.240084928,0,0,1.534683346748352,0,0,0.7644000053405762
0.24133686,0,0,1.534683346748352,0,0,0.9172800183296204
0.24259007,0,0,1.534683346748352,0,0,0.0764399990439415
0.243836983,0,0,1.6208745241165161,0,0,0.7644000053405762
0.245087119,0,0,1.6208745241165161,0,0,0.6879600286483765
0.246337069,0,0,1.6208745241165161,0,0,0.6879600286483765
0.247587001,0,0,1.6208745241165161,0,0,0.7644000053405762
0.248837267,0,0,1.6208745241165161,0,0,0.6879600286483765
0.250086995,0,0,1.6208745241165161,0,0,0.6879600286483765
0.251336946,0,0,1.6208745241165161,0,0,0.4586400091648102
0.252586989,0,0,1.6208745241165161,0,0,1.070159912109375
0.25383781,0,0,1.4269442558288574,0,0,0.305759996175766
0.255087038,0,0,1.4269442558288574,0,0,1.1466000080108643
0.256336914,0,0,1.4269442558288574,0,0,0.8408399820327759
0.25758705,0,0,1.4269442558288574,0,0,0.9172800183296204
0.258840352,0,0,1.4269442558288574,0,0,0.8408399820327759
0.260094118,0,0,1.4269442558288574,0,0,0.7644000053405762
0.261337605,0,0,1.4269442558288574,0,0,0.9172800183296204
0.262587334,0,0,1.3263877630233765,0,0,0.5350799560546875
0.263850525,0,0,1.3263877630233765,0,0,0.9172800183296204
0.26508705,0,0,1.3263877630233765,0,0,1.1466000080108643
0.266336963,0,0,1.3263877630233765,0,0,0.5350799560546875
0.267586802,0,0,1.3263877630233765,0,0,0.9172800183296204
0.26883679,0,0,1.3263877630233765,0,0,0.9937199950218201
0.270087074,0,0,1.3263877630233765,0,0,0.8408399820327759
0.271340469,0,0,1.4269442558288574,0,0,0.6879600286483765
0.272586919,0,0,1.4269442558288574,0,0,0.7644000053405762
0.273836537,0,0,1.4269442558288574,0,0,0.6879600286483765
0.275087209,0,0,1.4269442558288574,0,0,0.2293200045824051
0.276336938,0,0,1.4269442558288574,0,0,0.611519992351532
0.277587036,0,0,1.4269442558288574,0,0,0.6879600286483765
0.278837191,0,0,1.4269442558288574,0,0,0.8408399820327759
0.280086752,0,0,1.3742717504501343,0,0,0.9172800183296204
0.28133711,0,0,1.3742717504501343,0,0,0.8408399820327759
0.282588005,0,0,1.3742717504501343,0,0,0.7644000053405762
0.283837437,0,0,1.3742717504501343,0,0,0.5350799560546875
0.285088554,0,0,1.3742717504501343,0,0,0.9937199950218201
0.286336635,0,0,1.3742717504501343,0,0,0.6879600286483765
0.28759103,0,0,1.3742717504501343,0,0,0.8408399820327759
0.288836906,0,0,1.335964560508728,0,0,0.7644000053405762
0.290086764,0,0,1.335964560508728,0,0,0.7644000053405762
0.29133664,0,0,1.335964560508728,0,0,0.7644000053405762
0.292586906,0,0,1.335964560508728,0,0,0.8408399820327759
0.293837245,0,0,1.335964560508728,0,0,0.7644000053405762
0.295086751,0,0,1.335964560508728,0,0,0.611519992351532
0.296336998,0,0,1.335964560508728,0,0,0.9172800183296204
0.2975868,0,0,1.335964560508728,0,0,0.6879600286483765
0.298836973,0,0,1.3982137441635132,0,0,1.070159912109375
0.30008659,0,0,1.3982137441635132,0,0,0.7644000053405762
0.301336948,0,0,1.3982137441635132,0,0,1.070159912109375
0.302586825,0,0,1.3982137441635132,0,0,0.611519992351532
0.303836794,0,0,1.3982137441635132,0,0,0.8408399820327759
0.305090485,0,0,1.3982137441635132,0,0,0.9172800183296204
0.306336695,0,0,1.3982137441635132,0,0,0.8408399820327759
0.307586775,0,0,1.4197616577148438,0,0,0.7644000053405762
0.3088368,0,0,1.4197616577148438,0,0,0.6879600286483765
0.310090472,0,0,1.4197616577148438,0,0,0.8408399820327759
0.311336886,0,0,1.4197616577148438,0,0,0.7644000053405762
0.312586818,0,0,1.4197616577148438,0,0,0.9937199950218201
0.313835824,0,0,1.4197616577148438,0,0,0.7644000053405762
0.31508696,0,0,1.4197616577148438,0,0,0.8408399820327759
0.316336966,0,0,1.599326729774475,0,0,0.7644000053405762
0.317586879,0,0,1.599326729774475,0,0,0.611519992351532
0.318836904,0,0,1.599326729774475,0,0,0.4586400091648102
0.320087095,0,0,1.599326729774475,0,0,0.4586400091648102
0.321359157,0,0,1.599326729774475,0,0,0.8408399820327759
0.322590515,0,0,1.599326729774475,0,0,0.7644000053405762
0.323837206,0,0,1.599326729774475,0,0,0.7644000053405762
0.325086638,0,0,1.599326729774475,0,0,0.9172800183296204
0.3263362,0,0,1.599326729774475,0,0,0.6879600286483765
0.327587113,0,0,1.599326729774475,0,0,0.5350799560546875
0.328837416,0,0,1.599326729774475,0,0,1.223039984703064
0.330086811,0,0,1.599326729774475,0,0,1.070159912109375
0.331336928,0,0,1.599326729774475,0,0,1.1466000080108643
0.332586693,0,0,1.599326729774475,0,0,0.611519992351532
0.333837162,0,0,1.599326729774475,0,0,1.070159912109375
0.335086798,0,0,1.5634137392044067,0,0,0.7644000053405762
0.336335749,0,0,1.5634137392044067,0,0,0.5350799560546875
0.337587051,0,0,1.5634137392044067,0,0,0.6879600286483765
0.33884065,0,0,1.5634137392044067,0,0,0.5350799560546875
0.340086878,0,0,1.5634137392044067,0,0,0.611519992351532
0.341336717,0,0,1.5634137392044067,0,0,0.8408399820327759
0.34258676,0,0,1.5634137392044067,0,0,0.8408399820327759
0.343836804,0,0,1.5155296325683594,0,0,0.8408399820327759
0.34508681,0,0,1.5155296325683594,0,0,0.9172800183296204
0.346336723,0,0,1.5155296325683594,0,0,1.070159912109375
0.347586674,0,0,1.5155296325683594,0,0,0.7644000053405762
0.348839624,0,0,1.5155296325683594,0,0,0.6879600286483765
0.35008576,0,0,1.5155296325683594,0,0,0.9937199950218201
0.351336859,0,0,1.5155296325683594,0,0,0.305759996175766
0.352586772,0,0,1.434126853942871,0,0,0.8408399820327759
0.353837056,0,0,1.434126853942871,0,0,0.8408399820327759
0.355086766,0,0,1.434126853942871,0,0,0.8408399820327759
0.356336809,0,0,1.434126853942871,0,0,0.9172800183296204
0.357586648,0,0,1.434126853942871,0,0,0.6879600286483765
0.358836784,0,0,1.434126853942871,0,0,0.5350799560546875
0.360086827,0,0,1.434126853942871,0,0,0.611519992351532
0.36133687,0,0,1.3910311460494995,0,0,1.070159912109375
0.36258858,0,0,1.3910311460494995,0,0,0.8408399820327759
0.36383579,0,0,1.3910311460494995,0,0,0.9937199950218201
0.365086907,0,0,1.3910311460494995,0,0,1.070159912109375
0.366336913,0,0,1.3910311460494995,0,0,0.9937199950218201
0.367586808,0,0,1.3910311460494995,0,0,0.8408399820327759
0.368836814,0,0,1.3910311460494995,0,0,0.8408399820327759
0.370086857,0,0,1.414973258972168,0,0,0.7644000053405762
0.371336863,0,0,1.414973258972168,0,0,0.7644000053405762
0.37258687,0,0,1.414973258972168,0,0,0.9937199950218201
0.373836968,0,0,1.414973258972168,0,0,0.8408399820327759
0.375085585,0,0,1.414973258972168,0,0,1.1466000080108643
0.376353351,0,0,1.414973258972168,0,0,0.7644000053405762
0.377624042,0,0,1.414973258972168,0,0,0.9937199950218201
0.378850585,0,0,1.3287819623947144,0,0,0.7644000053405762
0.380087462,0,0,1.3287819623947144,0,0,0.7644000053405762
0.38133932,0,0,1.3287819623947144,0,0,0.6879600286483765
0.382586992,0,0,1.3287819623947144,0,0,0.9172800183296204
0.383836906,0,0,1.3287819623947144,0,0,0.5350799560546875
0.385086838,0,0,1.3287819623947144,0,0,0.8408399820327759
0.386336899,0,0,1.3287819623947144,0,0,0.7644000053405762
0.387592072,0,0,1.3287819623947144,0,0,0.6879600286483765
0.388837041,0,0,1.4317326545715332,0,0,0.8408399820327759
0.390086714,0,0,1.4317326545715332,0,0,0.8408399820327759
0.391336813,0,0,1.4317326545715332,0,0,0.7644000053405762
0.39258756,0,0,1.4317326545715332,0,0,0.7644000053405762
0.393839954,0,0,1.4317326545715332,0,0,0.9172800183296204
0.395086331,0,0,1.4317326545715332,0,0,0.5350799560546875
0.396335911,0,0,1.4317326545715332,0,0,0.7644000053405762
0.397586214,0,0,1.4652514457702637,0,0,0.8408399820327759
0.398835775,0,0,1.4652514457702637,0,0,0.7644000053405762
0.400085855,0,0,1.4652514457702637,0,0,0.4586400091648102
0.40133601,0,0,1.4652514457702637,0,0,0.4586400091648102
0.402585979,0,0,1.4652514457702637,0,0,0.9937199950218201
0.403835911,0,0,1.4652514457702637,0,0,0.6879600286483765
0.40508675,0,0,1.4652514457702637,0,0,0.9172800183296204
0.406335682,0,0,1.4748282432556152,0,0,0.7644000053405762
0.407585688,0,0,1.4748282432556152,0,0,0.9937199950218201
0.408836139,0,0,1.4748282432556152,0,0,0.9937199950218201
0.410086256,0,0,1.4748282432556152,0,0,0.8408399820327759
0.411335781,0,0,1.4748282432556152,0,0,0.9172800183296204
0.412585676,0,0,1.4748282432556152,0,0,0.8408399820327759
0.413836237,0,0,1.4748282432556152,0,0,1.070159912109375
0.415085928,0,0,1.5466543436050415,0,0,0.611519992351532
0.416335657,0,0,1.5466543436050415,0,0,0.4586400091648102
0.417586033,0,0,1.5466543436050415,0,0,0.7644000053405762
0.418835687,0,0,1.5466543436050415,0,0,0.9172800183296204
0.420085712,0,0,1.5466543436050415,0,0,0.611519992351532
0.421335959,0,0,1.5466543436050415,0,0,0.9172800183296204
0.422585946,0,0,1.5466543436050415,0,0,1.1466000080108643
0.423835897,0,0,1.5083470344543457,0,0,0.8408399820327759
0.425087051,0,0,1.5083470344543457,0,0,0.611519992351532
0.426339317,0,0,1.5083470344543457,0,0,0.9172800183296204
0.427586952,0,0,1.5083470344543457,0,0,0.4586400091648102
0.428837273,0,0,1.5083470344543457,0,0,0.9172800183296204
0.430087705,0,0,1.5083470344543457,0,0,0.9172800183296204
0.431336822,0,0,1.5083470344543457,0,0,0.8408399820327759
0.432586847,0,0,1.5083470344543457,0,0,0.7644000053405762
0.433837946,0,0,1.5107412338256836,0,0,0.9937199950218201
0.435086767,0,0,1.5107412338256836,0,0,0.8408399820327759
0.436336143,0,0,1.5107412338256836,0,0,0.7644000053405762
0.437591482,0,0,1.5107412338256836,0,0,1.223039984703064
0.438877766,0,0,1.5107412338256836,0,0,0.7644000053405762
0.440107902,0,0,1.5107412338256836,0,0,0.7644000053405762
0.441339612,0,0,1.5107412338256836,0,0,0.9172800183296204
0.442587229,0,0,1.599326729774475,0,0,1.070159912109375
0.443837105,0,0,1.599326729774475,0,0,0.8408399820327759
0.445087426,0,0,1.599326729774475,0,0,0.611519992351532
0.446336803,0,0,1.599326729774475,0,0,0.5350799560546875
0.447586957,0,0,1.599326729774475,0,0,0.611519992351532
0.448837074,0,0,1.599326729774475,0,0,0.9937199950218201
0.45008684,0,0,1.599326729774475,0,0,0.8408399820327759
0.451336827,0,0,1.460463047027588,0,0,0.9172800183296204
0.452587185,0,0,1.460463047027588,0,0,0.9937199950218201
0.453836599,0,0,1.460463047027588,0,0,0.9172800183296204
0.455087086,0,0,1.460463047027588,0,0,0.5350799560546875
0.456336889,0,0,1.460463047027588,0,0,0.9937199950218201
0.457587043,0,0,1.460463047027588,0,0,0.9172800183296204
0.458836919,0,0,1.460463047027588,0,0,0.8408399820327759
0.46008674,0,0,1.4389152526855469,0,0,0.2293200045824051
0.461336931,0,0,1.4389152526855469,0,0,0.7644000053405762
0.462588178,0,0,1.4389152526855469,0,0,0.8408399820327759
0.463845425,0,0,1.4389152526855469,0,0,0.611519992351532
0.465091616,0,0,1.4389152526855469,0,0,0.9172800183296204
0.46633666,0,0,1.4389152526855469,0,0,0.6879600286483765
0.467587443,0,0,1.4389152526855469,0,0,0.9172800183296204
0.468836987,0,0,1.4484920501708984,0,0,0.8408399820327759
0.470086752,0,0,1.4484920501708984,0,0,1.2994799613952637
0.471336832,0,0,1.4484920501708984,0,0,0.5350799560546875
0.472586708,0,0,1.4484920501708984,0,0,0.9172800183296204
0.473836918,0,0,1.4484920501708984,0,0,0.6879600286483765
0.475086758,0,0,1.4484920501708984,0,0,0.8408399820327759
0.476336727,0,0,1.4484920501708984,0,0,0.9172800183296204
0.477586918,0,0,1.4484920501708984,0,0,0.611519992351532
0.478837183,0,0,1.314416766166687,0,0,0.6879600286483765
0.480086004,0,0,1.314416766166687,0,0,0.6879600286483765
0.481336677,0,0,1.314416766166687,0,0,1.1466000080108643
0.482587053,0,0,1.314416766166687,0,0,0.8408399820327759
0.483837078,0,0,1.314416766166687,0,0,1.070159912109375
0.485086825,0,0,1.314416766166687,0,0,0.7644000053405762
0.486336664,0,0,1.314416766166687,0,0,0.9937199950218201
0.487587004,0,0,1.314416766166687,0,0,0.9172800183296204
0.488836658,0,0,1.314416766166687,0,0,0.8408399820327759
0.490089386,0,0,1.314416766166687,0,0,0.6879600286483765
0.491337152,0,0,1.314416766166687,0,0,0.6879600286483765
0.492586047,0,0,1.314416766166687,0,0,0.6879600286483765
0.493837423,0,0,1.314416766166687,0,0,0.9172800183296204
0.495086855,0,0,1.314416766166687,0,0,0.8408399820327759
0.496337139,0,0,1.4437036514282227,0,0,0.7644000053405762
0.497586923,0,0,1.4437036514282227,0,0,0.6879600286483765
0.498836892,0,0,1.4437036514282227,0,0,0.7644000053405762
0.500086954,0,0,1.4437036514282227,0,0,0.5350799560546875
0.501336849,0,0,1.4437036514282227,0,0,0.6879600286483765
0.502586892,0,0,1.4437036514282227,0,0,0.8408399820327759
0.503839268,0,0,1.4437036514282227,0,0,0.3822000026702881
0.505088867,0,0,1.5275006294250488,0,0,1.070159912109375
0.506337243,0,0,1.5275006294250488,0,0,0.9172800183296204
0.507586805,0,0,1.5275006294250488,0,0,0.9172800183296204
0.508837126,0,0,1.5275006294250488,0,0,0.8408399820327759
0.510086799,0,0,1.5275006294250488,0,0,0.8408399820327759
0.511336786,0,0,1.5275006294250488,0,0,0.9172800183296204
0.512586774,0,0,1.5275006294250488,0,0,0.7644000053405762
0.513837558,0,0,1.5275006294250488,0,0,1.223039984703064
0.515086916,0,0,1.5658079385757446,0,0,0.8408399820327759
0.51633694,0,0,1.5658079385757446,0,0,0.6879600286483765
0.517585539,0,0,1.5658079385757446,0,0,0.7644000053405762
0.518835323,0,0,1.5658079385757446,0,0,0.9937199950218201
0.520087329,0,0,1.5658079385757446,0,0,0.611519992351532
0.521336946,0,0,1.5658079385757446,0,0,0.9172800183296204
0.522587063,0,0,1.5658079385757446,0,0,0.6879600286483765
0.523836754,0,0,1.5969325304031372,0,0,0.5350799560546875
0.525086946,0,0,1.5969325304031372,0,0,0.3822000026702881
0.526337378,0,0,1.5969325304031372,0,0,0.7644000053405762
0.527586865,0,0,1.5969325304031372,0,0,0.611519992351532
0.528836927,0,0,1.5969325304031372,0,0,0.7644000053405762
0.530086877,0,0,1.5969325304031372,0,0,0.5350799560546875
0.531335847,0,0,1.5969325304031372,0,0,0.7644000053405762
0.53258689,0,0,1.5729905366897583,0,0,0.9172800183296204
0.53383747,0,0,1.5729905366897583,0,0,0.9172800183296204
0.535086976,0,0,1.5729905366897583,0,0,0.9937199950218201
0.536337038,0,0,1.5729905366897583,0,0,0.305759996175766
0.53758697,0,0,1.5729905366897583,0,0,0.7644000053405762
0.538836772,0,0,1.5729905366897583,0,0,0.611519992351532
0.540087074,0,0,1.5729905366897583,0,0,0.611519992351532
0.541337117,0,0,1.6041151285171509,0,0,0.8408399820327759
0.542593475,0,0,1.6041151285171509,0,0,0.6879600286483765
0.543854944,0,0,1.6041151285171509,0,0,0.8408399820327759
0.545087358,0,0,1.6041151285171509,0,0,0.7644000053405762
0.546337049,0,0,1.6041151285171509,0,0,1.070159912109375
0.547587,0,0,1.6041151285171509,0,0,0.611519992351532
0.548837043,0,0,1.6041151285171509,0,0,1.1466000080108643
0.550086845,0,0,1.4077905416488647,0,0,0.7644000053405762
0.551336925,0,0,1.4077905416488647,0,0,0.611519992351532
0.552585654,0,0,1.4077905416488647,0,0,0.7644000053405762
0.553835623,0,0,1.4077905416488647,0,0,0.8408399820327759
0.555086981,0,0,1.4077905416488647,0,0,0.6879600286483765
0.556336968,0,0,1.4077905416488647,0,0,0.5350799560546875
0.557586789,0,0,1.4077905416488647,0,0,0.9937199950218201
0.558837166,0,0,1.4077905416488647,0,0,1.070159912109375
0.560086894,0,0,1.3551181554794312,0,0,1.070159912109375
0.561336974,0,0,1.3551181554794312,0,0,0.8408399820327759
0.562587147,0,0,1.3551181554794312,0,0,0.7644000053405762
0.563836968,0,0,1.3551181554794312,0,0,0.6879600286483765
0.565085918,0,0,1.3551181554794312,0,0,0.9937199950218201
0.566335369,0,0,1.3551181554794312,0,0,0.8408399820327759
0.567587005,0,0,1.3551181554794312,0,0,0.7644000053405762
0.568837159,0,0,1.4460978507995605,0,0,0.3822000026702881
0.570086906,0,0,1.4460978507995605,0,0,0.8408399820327759
0.571336967,0,0,1.4460978507995605,0,0,0.7644000053405762
0.572587066,0,0,1.4460978507995605,0,0,0.8408399820327759
0.573836979,0,0,1.4460978507995605,0,0,0.611519992351532
0.575087097,0,0,1.4460978507995605,0,0,0.7644000053405762
0.576337547,0,0,1.4460978507995605,0,0,0.9172800183296204
0.57758535,0,0,1.3646949529647827,0,0,0.6879600286483765
0.578837133,0,0,1.3646949529647827,0,0,1.070159912109375
0.580086825,0,0,1.3646949529647827,0,0,0.4586400091648102
0.581339294,0,0,1.3646949529647827,0,0,0.8408399820327759
0.582587059,0,0,1.3646949529647827,0,0,0.8408399820327759
0.583836936,0,0,1.3646949529647827,0,0,0.9937199950218201
0.585087145,0,0,1.3646949529647827,0,0,0.9172800183296204
0.586336892,0,0,1.37906014919281,0,0,0.7644000053405762
0.587587009,0,0,1.37906014919281,0,0,0.7644000053405762
0.588836071,0,0,1.37906014919281,0,0,0.4586400091648102
0.590085707,0,0,1.37906014919281,0,0,1.070159912109375
0.591337194,0,0,1.37906014919281,0,0,0.9172800183296204
0.592587145,0,0,1.37906014919281,0,0,1.070159912109375
0.593837151,0,0,1.37906014919281,0,0,0.9172800183296204
0.595086898,0,0,1.4963760375976563,0,0,0.9172800183296204
0.596336996,0,0,1.4963760375976563,0,0,0.7644000053405762
0.59758704,0,0,1.4963760375976563,0,0,0.6879600286483765
0.59883699,0,0,1.4963760375976563,0,0,0.5350799560546875
0.600086885,0,0,1.4963760375976563,0,0,0.7644000053405762
0.601336762,0,0,1.4963760375976563,0,0,0.5350799560546875
0.602587286,0,0,1.4963760375976563,0,0,0.9172800183296204
0.60383694,0,0,1.5729905366897583,0,0,0.7644000053405762
0.605086928,0,0,1.5729905366897583,0,0,0.611519992351532
0.606337008,0,0,1.5729905366897583,0,0,0.9172800183296204
0.607586811,0,0,1.5729905366897583,0,0,0.8408399820327759
0.608836891,0,0,1.5729905366897583,0,0,0.9937199950218201
0.610087008,0,0,1.5729905366897583,0,0,0.611519992351532
0.611336995,0,0,1.5729905366897583,0,0,1.223039984703064
0.612586816,0,0,1.5729905366897583,0,0,0.152879998087883
0.613836785,0,0,1.6041151285171509,0,0,1.070159912109375
0.615087199,0,0,1.6041151285171509,0,0,0.6879600286483765
0.616369316,0,0,1.6041151285171509,0,0,0.6879600286483765
0.617719969,0,0,1.6041151285171509,0,0,1.070159912109375
0.618984382,0,0,1.6041151285171509,0,0,0.611519992351532
0.620119278,0,0,1.6041151285171509,0,0,0.6879600286483765
0.621338711,0,0,1.6041151285171509,0,0,0.6879600286483765
0.622602865,0,0,1.5490485429763794,0,0,1.1466000080108643
0.623852982,0,0,1.5490485429763794,0,0,0.9172800183296204
0.625087414,0,0,1.5490485429763794,0,0,0.9937199950218201
0.626337124,0,0,1.5490485429763794,0,0,0.6879600286483765
0.627605815,0,0,1.5490485429763794,0,0,0.9172800183296204
0.628868266,0,0,1.5490485429763794,0,0,0.8408399820327759
0.630090235,0,0,1.5490485429763794,0,0,0.7644000053405762
0.631336963,0,0,1.5897499322891235,0,0,0.9937199950218201
0.632587006,0,0,1.5897499322891235,0,0,0.5350799560546875
0.633837716,0,0,1.5897499322891235,0,0,0.9172800183296204
0.635086796,0,0,1.5897499322891235,0,0,1.070159912109375
0.636336839,0,0,1.5897499322891235,0,0,1.1466000080108643
0.637606012,0,0,1.5897499322891235,0,0,0.8408399820327759
0.638840315,0,0,1.5897499322891235,0,0,0.8408399820327759
0.640087358,0,0,1.5083470344543457,0,0,0.9172800183296204
0.641366641,0,0,1.5083470344543457,0,0,0.6879600286483765
0.642588203,0,0,1.5083470344543457,0,0,0.7644000053405762
0.643837006,0,0,1.5083470344543457,0,0,0.8408399820327759
0.645087197,0,0,1.5083470344543457,0,0,0.611519992351532
0.646336851,0,0,1.5083470344543457,0,0,0.611519992351532
0.647586968,0,0,1.5083470344543457,0,0,0.7644000053405762
0.648836937,0,0,1.5083470344543457,0,0,0.7644000053405762
0.650086832,0,0,1.3431471586227417,0,0,0.8408399820327759
0.651337061,0,0,1.3431471586227417,0,0,0.7644000053405762
0.652586919,0,0,1.3431471586227417,0,0,0.611519992351532
0.65383698,0,0,1.3431471586227417,0,0,0.6879600286483765
0.655086838,0,0,1.3431471586227417,0,0,1.1466000080108643
0.656336789,0,0,1.3431471586227417,0,0,0.6879600286483765
0.657585813,0,0,1.3431471586227417,0,0,0.9172800183296204
0.658840319,0,0,1.3192051649093628,0,0,0.6879600286483765
0.660085844,0,0,1.3192051649093628,0,0,0.9172800183296204
0.661337276,0,0,1.3192051649093628,0,0,0.9172800183296204
0.662586838,0,0,1.3192051649093628,0,0,0.7644000053405762
0.663836881,0,0,1.3192051649093628,0,0,0.8408399820327759
0.665086813,0,0,1.3192051649093628,0,0,0.611519992351532
0.666336912,0,0,1.3192051649093628,0,0,0.8408399820327759
0.667586769,0,0,1.3862427473068237,0,0,0.8408399820327759
0.668836905,0,0,1.3862427473068237,0,0,1.070159912109375
0.670086708,0,0,1.3862427473068237,0,0,0.8408399820327759
0.671337065,0,0,1.3862427473068237,0,0,1.070159912109375
0.672586831,0,0,1.3862427473068237,0,0,0.8408399820327759
0.673837096,0,0,1.3862427473068237,0,0,0.8408399820327759
0.675086824,0,0,1.3862427473068237,0,0,0.6879600286483765
0.676337775,0,0,1.3192051649093628,0,0,0.6879600286483765
0.677586133,0,0,1.3192051649093628,0,0,0.8408399820327759
0.678835398,0,0,1.3192051649093628,0,0,0.9172800183296204
0.680086756,0,0,1.3192051649093628,0,0,0.7644000053405762
0.681342336,0,0,1.3192051649093628,0,0,0.8408399820327759
0.682587139,0,0,1.3192051649093628,0,0,0.9172800183296204
0.6838372,0,0,1.3192051649093628,0,0,0.9172800183296204
0.685091818,0,0,1.381454348564148,0,0,0.9172800183296204
0.686341768,0,0,1.381454348564148,0,0,0.9172800183296204
0.687591608,0,0,1.381454348564148,0,0,0.8408399820327759
0.688841836,0,0,1.381454348564148,0,0,0.2293200045824051
0.690086786,0,0,1.381454348564148,0,0,0.7644000053405762
0.691336867,0,0,1.381454348564148,0,0,0.9172800183296204
0.692586947,0,0,1.381454348564148,0,0,1.223039984703064
0.693836916,0,0,1.4724340438842773,0,0,0.7644000053405762
0.695086903,0,0,1.4724340438842773,0,0,0.9172800183296204
0.696336761,0,0,1.4724340438842773,0,0,0.7644000053405762
0.69758936,0,0,1.4724340438842773,0,0,0.6879600286483765
0.698839385,0,0,1.4724340438842773,0,0,1.1466000080108643
0.700087317,0,0,1.4724340438842773,0,0,0.9172800183296204
0.701336749,0,0,1.4724340438842773,0,0,1.070159912109375
0.702586792,0,0,1.4724340438842773,0,0,0.8408399820327759
0.703837039,0,0,1.5490485429763794,0,0,1.1466000080108643
0.705094248,0,0,1.5490485429763794,0,0,0.7644000053405762
0.706337903,0,0,1.5490485429763794,0,0,0.7644000053405762
0.707587075,0,0,1.5490485429763794,0,0,0.6879600286483765
0.708835933,0,0,1.5490485429763794,0,0,0.6879600286483765
0.710085847,0,0,1.5490485429763794,0,0,0.9172800183296204
0.711335742,0,0,1.5490485429763794,0,0,0.8408399820327759
0.712585711,0,0,1.5107412338256836,0,0,0.6879600286483765
0.713837402,0,0,1.5107412338256836,0,0,0.4586400091648102
0.715086908,0,0,1.5107412338256836,0,0,0.9937199950218201
0.716337322,0,0,1.5107412338256836,0,0,0.611519992351532
0.717586754,0,0,1.5107412338256836,0,0,0.9172800183296204
0.718837501,0,0,1.5107412338256836,0,0,0.5350799560546875
0.720086951,0,0,1.5107412338256836,0,0,0.9172800183296204
0.721336939,0,0,1.3958195447921753,0,0,0.4586400091648102
0.722586797,0,0,1.3958195447921753,0,0,0.9172800183296204
0.723837173,0,0,1.3958195447921753,0,0,0.8408399820327759
0.72508692,0,0,1.3958195447921753,0,0,0.8408399820327759
0.726344019,0,0,1.3958195447921753,0,0,0.8408399820327759
0.727587599,0,0,1.3958195447921753,0,0,0.6879600286483765
0.728836753,0,0,1.3958195447921753,0,0,0.611519992351532
0.730086852,0,0,1.4987702369689941,0,0,0.611519992351532
0.731336747,0,0,1.4987702369689941,0,0,1.2994799613952637
0.73258579,0,0,1.4987702369689941,0,0,0.3822000026702881
0.733837092,0,0,1.4987702369689941,0,0,0.8408399820327759
0.735086746,0,0,1.4987702369689941,0,0,0.8408399820327759
0.736341641,0,0,1.4987702369689941,0,0,1.070159912109375
0.737587055,0,0,1.4987702369689941,0,0,0.9172800183296204
0.73883682,0,0,1.5466543436050415,0,0,0.9172800183296204
0.740086882,0,0,1.5466543436050415,0,0,0.6879600286483765
0.741337036,0,0,1.5466543436050415,0,0,0.611519992351532
0.742587376,0,0,1.5466543436050415,0,0,1.070159912109375
0.743836993,0,0,1.5466543436050415,0,0,0.9172800183296204
0.745087091,0,0,1.5466543436050415,0,0,0.8408399820327759
0.746336968,0,0,1.5466543436050415,0,0,1.070159912109375
0.747586807,0,0,1.5466543436050415,0,0,0.9937199950218201
0.748837091,0,0,1.4508862495422363,0,0,0.611519992351532
0.750086708,0,0,1.4508862495422363,0,0,0.7644000053405762
0.7513369,0,0,1.4508862495422363,0,0,0.5350799560546875
0.752586758,0,0,1.4508862495422363,0,0,0.7644000053405762
0.753836967,0,0,1.4508862495422363,0,0,0.3822000026702881
0.755086899,0,0,1.4508862495422363,0,0,0.6879600286483765
0.756337035,0,0,1.4508862495422363,0,0,0.8408399820327759
0.757587245,0,0,1.4293384552001953,0,0,0.9172800183296204
0.758836695,0,0,1.4293384552001953,0,0,0.7644000053405762
0.760086794,0,0,1.4293384552001953,0,0,0.7644000053405762
0.761338263,0,0,1.4293384552001953,0,0,0.9172800183296204
0.762589177,0,0,1.4293384552001953,0,0,0.6879600286483765
0.763837646,0,0,1.4293384552001953,0,0,0.9172800183296204
0.765088633,0,0,1.4293384552001953,0,0,0.6879600286483765
0.766339028,0,0,1.3958195447921753,0,0,0.7644000053405762
0.76758759,0,0,1.3958195447921753,0,0,0.7644000053405762
0.768838911,0,0,1.3958195447921753,0,0,0.9172800183296204
0.770086898,0,0,1.3958195447921753,0,0,0.5350799560546875
0.771337164,0,0,1.3958195447921753,0,0,0.5350799560546875
0.772586892,0,0,1.3958195447921753,0,0,0.6879600286483765
0.773836935,0,0,1.3958195447921753,0,0,0.4586400091648102
0.775089312,0,0,1.3048399686813354,0,0,1.1466000080108643
0.776336929,0,0,1.3048399686813354,0,0,0.7644000053405762
0.777586824,0,0,1.3048399686813354,0,0,0.7644000053405762
0.778836793,0,0,1.3048399686813354,0,0,0.6879600286483765
0.78008678,0,0,1.3048399686813354,0,0,0.9172800183296204
0.781337342,0,0,1.3048399686813354,0,0,1.070159912109375
0.782586163,0,0,1.3048399686813354,0,0,0.9172800183296204
0.783835965,0,0,1.335964560508728,0,0,0.8408399820327759
0.785086508,0,0,1.335964560508728,0,0,0.5350799560546875
0.786341089,0,0,1.335964560508728,0,0,0.5350799560546875
0.787637576,0,0,1.335964560508728,0,0,0.9172800183296204
0.788875767,0,0,1.335964560508728,0,0,0.9172800183296204
0.790889599,0,0,1.335964560508728,0,0,0.8408399820327759
0.79134328,0,0,1.335964560508728,0,0,0.611519992351532
0.792587415,0,0,1.335964560508728,0,0,0.6879600286483765
0.793837681,0,0,1.501164436340332,0,0,0.7644000053405762
0.795087168,0,0,1.501164436340332,0,0,0.7644000053405762
0.796337063,0,0,1.501164436340332,0,0,0.8408399820327759
0.797587255,0,0,1.501164436340332,0,0,0.0764399990439415
0.798843946,0,0,1.501164436340332,0,0,0.5350799560546875
0.800087582,0,0,1.501164436340332,0,0,0.4586400091648102
0.801337199,0,0,1.501164436340332,0,0,0.8408399820327759
0.802587112,0,0,1.6328455209732056,0,0,0.6879600286483765
0.803845137,0,0,1.6328455209732056,0,0,0.8408399820327759
0.805088106,0,0,1.6328455209732056,0,0,0.6879600286483765
0.806337427,0,0,1.6328455209732056,0,0,0.4586400091648102
0.807606562,0,0,1.6328455209732056,0,0,1.070159912109375
0.808839457,0,0,1.6328455209732056,0,0,0.6879600286483765
0.810087056,0,0,1.6328455209732056,0,0,0.9937199950218201
0.811337525,0,0,1.5849615335464478,0,0,0.8408399820327759
0.812586994,0,0,1.5849615335464478,0,0,0.9172800183296204
0.813840463,0,0,1.5849615335464478,0,0,0.7644000053405762
0.815086562,0,0,1.5849615335464478,0,0,0.6879600286483765
0.816338253,0,0,1.5849615335464478,0,0,0.8408399820327759
0.817586148,0,0,1.5849615335464478,0,0,0.4586400091648102
0.818836043,0,0,1.5849615335464478,0,0,0.6879600286483765
0.820086142,0,0,1.53707754611969,0,0,0.6879600286483765
0.821337815,0,0,1.53707754611969,0,0,0.6879600286483765
0.822587117,0,0,1.53707754611969,0,0,0.5350799560546875
0.823837216,0,0,1.53707754611969,0,0,0.9937199950218201
0.825087314,0,0,1.53707754611969,0,0,0.9172800183296204
0.826337117,0,0,1.53707754611969,0,0,0.7644000053405762
0.82758703,0,0,1.53707754611969,0,0,0.611519992351532
0.828836925,0,0,1.680729627609253,0,0,0.611519992351532
0.830087154,0,0,1.680729627609253,0,0,0.2293200045824051
0.83133603,0,0,1.680729627609253,0,0,0.4586400091648102
0.832587092,0,0,1.680729627609253,0,0,1.1466000080108643
0.833839931,0,0,1.680729627609253,0,0,0.6879600286483765
0.835086382,0,0,1.680729627609253,0,0,0.7644000053405762
0.836336184,0,0,1.680729627609253,0,0,1.070159912109375
0.837587968,0,0,1.680729627609253,0,0,0.8408399820327759
0.83883703,0,0,1.5394717454910278,0,0,0.8408399820327759
0.840087073,0,0,1.5394717454910278,0,0,1.223039984703064
0.841336986,0,0,1.5394717454910278,0,0,0.8408399820327759
0.842598603,0,0,1.5394717454910278,0,0,0.8408399820327759
0.843837684,0,0,1.5394717454910278,0,0,0.6879600286483765
0.845086986,0,0,1.5394717454910278,0,0,0.6879600286483765
0.846337307,0,0,1.5394717454910278,0,0,1.070159912109375
0.84758722,0,0,1.3694833517074585,0,0,0.6879600286483765
0.848837115,0,0,1.3694833517074585,0,0,0.611519992351532
0.850086918,0,0,1.3694833517074585,0,0,0.611519992351532
0.851337127,0,0,1.3694833517074585,0,0,0.9172800183296204
0.852590041,0,0,1.3694833517074585,0,0,0.8408399820327759
0.853852621,0,0,1.3694833517074585,0,0,1.070159912109375
0.855087238,0,0,1.3694833517074585,0,0,0.4586400091648102
0.856337244,0,0,1.3623007535934448,0,0,0.9172800183296204
0.85758688,0,0,1.3623007535934448,0,0,0.7644000053405762
0.858836831,0,0,1.3623007535934448,0,0,0.7644000053405762
0.860087022,0,0,1.3623007535934448,0,0,0.611519992351532
0.861336435,0,0,1.3623007535934448,0,0,0.5350799560546875
0.862586367,0,0,1.3623007535934448,0,0,0.5350799560546875
0.863837244,0,0,1.3623007535934448,0,0,0.7644000053405762
0.865087269,0,0,1.3670891523361206,0,0,0.7644000053405762
0.866337034,0,0,1.3670891523361206,0,0,0.9172800183296204
0.867586966,0,0,1.3670891523361206,0,0,0.9172800183296204
0.868837102,0,0,1.3670891523361206,0,0,0.6879600286483765
0.870087015,0,0,1.3670891523361206,0,0,0.9937199950218201
0.871336984,0,0,1.3670891523361206,0,0,0.6879600286483765
0.872587083,0,0,1.3670891523361206,0,0,1.070159912109375
0.87383507,0,0,1.414973258972168,0,0,0.5350799560546875
0.875085743,0,0,1.414973258972168,0,0,1.1466000080108643
0.876337342,0,0,1.414973258972168,0,0,0.7644000053405762
0.878247841,0,0,1.414973258972168,0,0,0.9937199950218201
0.878864261,0,0,1.414973258972168,0,0,0.6879600286483765
0.880106804,0,0,1.414973258972168,0,0,0.8408399820327759
0.88133894,0,0,1.414973258972168,0,0,0.6879600286483765
0.882587798,0,0,1.414973258972168,0,0,0.9172800183296204
0.883836582,0,0,1.3982137441635132,0,0,0.8408399820327759
0.885087866,0,0,1.3982137441635132,0,0,0.6879600286483765
0.886337798,0,0,1.3982137441635132,0,0,0.8408399820327759
0.88758723,0,0,1.3982137441635132,0,0,0.8408399820327759
0.888836329,0,0,1.3982137441635132,0,0,0.9937199950218201
0.890085964,0,0,1.3982137441635132,0,0,0.6879600286483765
0.891341619,0,0,1.3982137441635132,0,0,0.7644000053405762
0.892586088,0,0,1.4915876388549805,0,0,0.6879600286483765
0.893836372,0,0,1.4915876388549805,0,0,0.7644000053405762
0.895086489,0,0,1.4915876388549805,0,0,0.6879600286483765
0.896336513,0,0,1.4915876388549805,0,0,0.7644000053405762
0.897586334,0,0,1.4915876388549805,0,0,0.9937199950218201
0.898835748,0,0,1.4915876388549805,0,0,0.7644000053405762
0.900085717,0,0,1.4915876388549805,0,0,0.7644000053405762
0.901336112,0,0,1.50355863571167,0,0,0.7644000053405762
0.902585988,0,0,1.50355863571167,0,0,1.070159912109375
0.903835994,0,0,1.50355863571167,0,0,0.8408399820327759
0.905089815,0,0,1.50355863571167,0,0,0.7644000053405762
0.90633584,0,0,1.50355863571167,0,0,0.4586400091648102
0.907585753,0,0,1.50355863571167,0,0,0.7644000053405762
0.908837908,0,0,1.50355863571167,0,0,0.7644000053405762
0.910087377,0,0,1.5466543436050415,0,0,0.6879600286483765
0.911338735,0,0,1.5466543436050415,0,0,0.8408399820327759
0.912586185,0,0,1.5466543436050415,0,0,0.611519992351532
0.913836154,0,0,1.5466543436050415,0,0,0.7644000053405762
0.915086216,0,0,1.5466543436050415,0,0,0.8408399820327759
0.916335833,0,0,1.5466543436050415,0,0,0.9172800183296204
0.917587746,0,0,1.5466543436050415,0,0,0.6879600286483765
0.918837327,0,0,1.5466543436050415,0,0,0.9937199950218201
0.920087018,0,0,1.5538369417190552,0,0,0.611519992351532
0.921337357,0,0,1.5538369417190552,0,0,0.9172800183296204
0.922594308,0,0,1.5538369417190552,0,0,0.8408399820327759
0.923836907,0,0,1.5538369417190552,0,0,0.9172800183296204
0.92508782,0,0,1.5538369417190552,0,0,0.8408399820327759
0.926337141,0,0,1.5538369417190552,0,0,0.4586400091648102
0.927586925,0,0,1.5538369417190552,0,0,0.611519992351532
0.928837098,0,0,1.647210717201233,0,0,0.8408399820327759
0.930091196,0,0,1.647210717201233,0,0,0.8408399820327759
0.931337165,0,0,1.647210717201233,0,0,0.611519992351532
0.932586912,0,0,1.647210717201233,0,0,0.9172800183296204
0.933841474,0,0,1.647210717201233,0,0,0.611519992351532
0.935087498,0,0,1.647210717201233,0,0,0.7644000053405762
0.936337153,0,0,1.647210717201233,0,0,0.8408399820327759
0.937587103,0,0,1.4939818382263184,0,0,0.7644000053405762
0.938837035,0,0,1.4939818382263184,0,0,0.611519992351532
0.9400868,0,0,1.4939818382263184,0,0,0.8408399820327759
0.941336973,0,0,1.4939818382263184,0,0,0.9172800183296204
0.942598035,0,0,1.4939818382263184,0,0,0.8408399820327759
0.943837097,0,0,1.4939818382263184,0,0,1.070159912109375
0.945086177,0,0,1.4939818382263184,0,0,0.6879600286483765
0.946337238,0,0,1.3479355573654175,0,0,0.611519992351532
0.947587133,0,0,1.3479355573654175,0,0,0.8408399820327759
0.948837306,0,0,1.3479355573654175,0,0,0.9937199950218201
0.95008709,0,0,1.3479355573654175,0,0,0.8408399820327759
0.951337022,0,0,1.3479355573654175,0,0,0.8408399820327759
0.952586917,0,0,1.3479355573654175,0,0,0.9937199950218201
0.953837423,0,0,1.3479355573654175,0,0,0.6879600286483765
0.955086818,0,0,1.4053963422775269,0,0,0.9937199950218201
0.956336676,0,0,1.4053963422775269,0,0,0.5350799560546875
0.957587108,0,0,1.4053963422775269,0,0,0.611519992351532
0.958836947,0,0,1.4053963422775269,0,0,0.5350799560546875
0.960086861,0,0,1.4053963422775269,0,0,1.070159912109375
0.961337126,0,0,1.4053963422775269,0,0,0.9172800183296204
0.962586892,0,0,1.4053963422775269,0,0,0.9937199950218201
0.963837009,0,0,1.4053963422775269,0,0,0.9937199950218201
0.965087182,0,0,1.3646949529647827,0,0,1.070159912109375
0.966337002,0,0,1.3646949529647827,0,0,0.7644000053405762
0.967588286,0,0,1.3646949529647827,0,0,0.9937199950218201
0.968838478,0,0,1.3646949529647827,0,0,0.8408399820327759
0.970087354,0,0,1.3646949529647827,0,0,0.9172800183296204
0.971336953,0,0,1.3646949529647827,0,0,1.070159912109375
0.972586922,0,0,1.3646949529647827,0,0,0.9172800183296204
0.973837039,0,0,1.3215993642807007,0,0,1.070159912109375
0.975087045,0,0,1.3215993642807007,0,0,0.6879600286483765
0.976337236,0,0,1.3215993642807007,0,0,0.8408399820327759
0.977587131,0,0,1.3215993642807007,0,0,0.7644000053405762
0.978837082,0,0,1.3215993642807007,0,0,0.8408399820327759
0.980086866,0,0,1.3215993642807007,0,0,0.5350799560546875
0.981335168,0,0,1.3215993642807007,0,0,0.7644000053405762
0.982587119,0,0,1.4317326545715332,0,0,0.305759996175766
0.983837106,0,0,1.4317326545715332,0,0,0.9172800183296204
0.985087001,0,0,1.4317326545715332,0,0,0.4586400091648102
0.986337322,0,0,1.4317326545715332,0,0,0.8408399820327759
0.987586699,0,0,1.4317326545715332,0,0,0.8408399820327759
0.98883726,0,0,1.4317326545715332,0,0,0.8408399820327759
0.99008734,0,0,1.4317326545715332,0,0,0.5350799560546875
0.991337087,0,0,1.5322890281677246,0,0,0.8408399820327759
0.992586982,0,0,1.5322890281677246,0,0,1.070159912109375
0.993837285,0,0,1.5322890281677246,0,0,0.611519992351532
0.995090883,0,0,1.5322890281677246,0,0,1.070159912109375
0.996337334,0,0,1.5322890281677246,0,0,0.9172800183296204
0.997586951,0,0,1.5322890281677246,0,0,0.9172800183296204
0.998837068,0,0,1.5322890281677246,0,0,0.6879600286483765
1.000086815,0,0,1.5203180313110352,0,0,0.7644000053405762
1.00133708,0,0,1.5203180313110352,0,0,0.9937199950218201
1.002586938,0,0,1.5203180313110352,0,0,0.6879600286483765
1.003836833,0,0,1.5203180313110352,0,0,0.9937199950218201
1.005087062,0,0,1.5203180313110352,0,0,0.9172800183296204
1.006336549,0,0,1.5203180313110352,0,0,0.7644000053405762
1.00758824,0,0,1.5203180313110352,0,0,0.6879600286483765
1.008837432,0,0,1.4891934394836426,0,0,0.6879600286483765
1.010087123,0,0,1.4891934394836426,0,0,0.9172800183296204
1.011336981,0,0,1.4891934394836426,0,0,0.8408399820327759
1.012587265,0,0,1.4891934394836426,0,0,0.3822000026702881
1.013837215,0,0,1.4891934394836426,0,0,0.7644000053405762
1.015087203,0,0,1.4891934394836426,0,0,0.2293200045824051
1.016336931,0,0,1.4891934394836426,0,0,0.7644000053405762
1.017593122,0,0,1.5394717454910278,0,0,0.8408399820327759
1.01883598,0,0,1.5394717454910278,0,0,0.5350799560546875
1.020086061,0,0,1.5394717454910278,0,0,0.7644000053405762
1.021337418,0,0,1.5394717454910278,0,0,0.611519992351532
1.02259261,0,0,1.5394717454910278,0,0,0.7644000053405762
1.023837079,0,0,1.5394717454910278,0,0,0.8408399820327759
1.025087122,0,0,1.5394717454910278,0,0,1.070159912109375
1.026336924,0,0,1.5394717454910278,0,0,0.3822000026702881
1.027586912,0,0,1.5897499322891235,0,0,0.9172800183296204
1.028836788,0,0,1.5897499322891235,0,0,0.6879600286483765
1.030086887,0,0,1.5897499322891235,0,0,1.070159912109375
1.031335782,0,0,1.5897499322891235,0,0,0.8408399820327759
1.032585214,0,0,1.5897499322891235,0,0,0.9172800183296204
1.033840053,0,0,1.5897499322891235,0,0,0.7644000053405762
1.035087374,0,0,1.5897499322891235,0,0,0.4586400091648102
1.0363354359999999,0,0,1.403002142906189,0,0,1.223039984703064
1.037587072,0,0,1.403002142906189,0,0,1.070159912109375
1.038837448,0,0,1.403002142906189,0,0,0.9937199950218201
1.040086843,0,0,1.403002142906189,0,0,0.8408399820327759
1.041336868,0,0,1.403002142906189,0,0,1.070159912109375
1.042586874,0,0,1.403002142906189,0,0,0.7644000053405762
1.043836973,0,0,1.403002142906189,0,0,0.7644000053405762
1.045087127,0,0,1.3886369466781616,0,0,0.9172800183296204
1.046339318,0,0,1.3886369466781616,0,0,0.611519992351532
1.04758838,0,0,1.3886369466781616,0,0,0.6879600286483765
1.048835923,0,0,1.3886369466781616,0,0,0.7644000053405762
1.050087077,0,0,1.3886369466781616,0,0,0.8408399820327759
1.051336935,0,0,1.3886369466781616,0,0,0.8408399820327759
1.052586978,0,0,1.3886369466781616,0,0,0.4586400091648102
1.053837132,0,0,1.4724340438842773,0,0,0.9172800183296204
1.055086953,0,0,1.4724340438842773,0,0,0.9172800183296204
1.056337052,0,0,1.4724340438842773,0,0,0.6879600286483765
1.05758691,0,0,1.4724340438842773,0,0,0.9172800183296204
1.058836953,0,0,1.4724340438842773,0,0,0.3822000026702881
1.060086959,0,0,1.4724340438842773,0,0,0.9172800183296204
1.06133541,0,0,1.4724340438842773,0,0,1.070159912109375
1.062587119,0,0,1.357512354850769,0,0,1.070159912109375
1.063837014,0,0,1.357512354850769,0,0,0.7644000053405762
1.065087132,0,0,1.357512354850769,0,0,0.6879600286483765
1.066336952,0,0,1.357512354850769,0,0,0.7644000053405762
1.067587014,0,0,1.357512354850769,0,0,0.9172800183296204
1.06883702,0,0,1.357512354850769,0,0,0.8408399820327759
1.070087008,0,0,1.357512354850769,0,0,0.8408399820327759
1.07133694,0,0,1.357512354850769,0,0,1.070159912109375
1.07258689,0,0,1.359906554222107,0,0,0.9937199950218201
1.073836563,0,0,1.4437036514282227,0,0,0.8408399820327759
1.075086995,0,0,1.4437036514282227,0,0,0.9172800183296204
1.076337149,0,0,1.4437036514282227,0,0,0.4586400091648102
1.077587304,0,0,1.4437036514282227,0,0,1.070159912109375
1.078836828,0,0,1.4437036514282227,0,0,0.611519992351532
1.08008689,0,0,1.4437036514282227,0,0,0.9172800183296204
1.0813371,0,0,1.4437036514282227,0,0,0.611519992351532
1.082586846,0,0,1.4724340438842773,0,0,1.223039984703064
1.083837056,0,0,1.4724340438842773,0,0,0.8408399820327759
1.085088118,0,0,1.4724340438842773,0,0,0.9172800183296204
1.086335143,0,0,1.4724340438842773,0,0,0.7644000053405762
1.08758713,0,0,1.4724340438842773,0,0,0.8408399820327759
1.088837081,0,0,1.4724340438842773,0,0,0.9172800183296204
1.090087309,0,0,1.4724340438842773,0,0,1.070159912109375
1.091337037,0,0,1.4891934394836426,0,0,0.3822000026702881
1.092587136,0,0,1.4891934394836426,0,0,0.7644000053405762
1.093837253,0,0,1.4891934394836426,0,0,0.7644000053405762
1.095086944,0,0,1.4891934394836426,0,0,0.8408399820327759
1.096337006,0,0,1.4891934394836426,0,0,1.070159912109375
1.097586012,0,0,1.4891934394836426,0,0,0.7644000053405762
1.098835574,0,0,1.4891934394836426,0,0,0.611519992351532
1.100087061,0,0,1.5849615335464478,0,0,0.6879600286483765
1.101336901,0,0,1.5849615335464478,0,0,0.9172800183296204
1.10260061,0,0,1.5849615335464478,0,0,0.611519992351532
1.1038372459999999,0,0,1.5849615335464478,0,0,0.9937199950218201
1.105087141,0,0,1.5849615335464478,0,0,0.7644000053405762
1.106338258,0,0,1.5849615335464478,0,0,1.070159912109375
1.107587061,0,0,1.558625340461731,0,0,0.9937199950218201
1.108836863,0,0,1.558625340461731,0,0,0.6879600286483765
1.110086351,0,0,1.558625340461731,0,0,0.9172800183296204
1.111337431,0,0,1.558625340461731,0,0,0.611519992351532
1.112587307,0,0,1.558625340461731,0,0,1.1466000080108643
1.113836295,0,0,1.558625340461731,0,0,0.9172800183296204
1.115085894,0,0,1.558625340461731,0,0,0.8408399820327759
1.116335696,0,0,1.3862427473068237,0,0,0.8408399820327759
1.117587517,0,0,1.3862427473068237,0,0,1.070159912109375
1.118837134,0,0,1.3862427473068237,0,0,0.9172800183296204
1.120087029,0,0,1.3862427473068237,0,0,0.7644000053405762
1.121337294,0,0,1.3862427473068237,0,0,1.070159912109375
1.122587004,0,0,1.3862427473068237,0,0,0.8408399820327759
1.123839325,0,0,1.3862427473068237,0,0,0.4586400091648102
1.12508872,0,0,1.3910311460494995,0,0,0.7644000053405762
1.126335856,0,0,1.3910311460494995,0,0,0.8408399820327759
1.127586955,0,0,1.3910311460494995,0,0,0.9937199950218201
1.129454714,0,0,1.3910311460494995,0,0,0.9937199950218201
1.130113522,0,0,1.3910311460494995,0,0,0.7644000053405762
1.131357195,0,0,1.3910311460494995,0,0,0.9937199950218201
1.132588109,0,0,1.3910311460494995,0,0,0.9172800183296204
1.133843596,0,0,1.3958195447921753,0,0,0.9172800183296204
1.13508738,0,0,1.3958195447921753,0,0,0.3822000026702881
1.136337442,0,0,1.3958195447921753,0,0,0.9937199950218201
1.137587151,0,0,1.3958195447921753,0,0,0.8408399820327759
1.138837176,0,0,1.3958195447921753,0,0,0.6879600286483765
1.140087256,0,0,1.3958195447921753,0,0,0.5350799560546875
1.141337077,0,0,1.3958195447921753,0,0,0.6879600286483765
1.142592324,0,0,1.338358759880066,0,0,0.8408399820327759
1.1438374040000001,0,0,1.338358759880066,0,0,0.7644000053405762
1.14508891,0,0,1.338358759880066,0,0,0.7644000053405762
1.146337176,0,0,1.338358759880066,0,0,0.6879600286483765
1.147587015,0,0,1.338358759880066,0,0,1.070159912109375
1.14883704,0,0,1.338358759880066,0,0,0.8408399820327759
1.150086953,0,0,1.338358759880066,0,0,0.9172800183296204
1.151336811,0,0,1.3958195447921753,0,0,0.9937199950218201
1.15258691,0,0,1.3958195447921753,0,0,0.7644000053405762
1.153837582,0,0,1.3958195447921753,0,0,0.6879600286483765
1.155086366,0,0,1.3958195447921753,0,0,0.611519992351532
1.156337021,0,0,1.3958195447921753,0,0,1.223039984703064
1.157587138,0,0,1.3958195447921753,0,0,0.9937199950218201
1.15883694,0,0,1.3958195447921753,0,0,0.6879600286483765
1.160087094,0,0,1.479616641998291,0,0,0.9937199950218201
1.161337063,0,0,1.479616641998291,0,0,0.7644000053405762
1.162591069,0,0,1.479616641998291,0,0,0.8408399820327759
1.163837261,0,0,1.479616641998291,0,0,0.8408399820327759
1.165088952,0,0,1.479616641998291,0,0,0.5350799560546875
1.166337088,0,0,1.479616641998291,0,0,0.8408399820327759
1.1675867420000001,0,0,1.479616641998291,0,0,0.5350799560546875
1.16883747,0,0,1.5490485429763794,0,0,0.9172800183296204
1.17008731,0,0,1.5490485429763794,0,0,1.070159912109375
1.171337371,0,0,1.5490485429763794,0,0,0.9937199950218201
1.17258684,0,0,1.5490485429763794,0,0,0.7644000053405762
1.173837495,0,0,1.5490485429763794,0,0,0.9172800183296204
1.175087334,0,0,1.5490485429763794,0,0,0.9172800183296204
1.176337062,0,0,1.5490485429763794,0,0,0.7644000053405762
1.177587087,0,0,1.6208745241165161,0,0,0.8408399820327759
1.178836926,0,0,1.6208745241165161,0,0,0.6879600286483765
1.180087099,0,0,1.6208745241165161,0,0,1.223039984703064
1.181336013,0,0,1.6208745241165161,0,0,0.9937199950218201
1.182599167,0,0,1.6208745241165161,0,0,0.9172800183296204
1.183837414,0,0,1.6208745241165161,0,0,0.8408399820327759
1.185087364,0,0,1.6208745241165161,0,0,0.611519992351532
1.186336981,0,0,1.5538369417190552,0,0,0.9172800183296204
1.187588062,0,0,1.5538369417190552,0,0,0.7644000053405762
1.188837012,0,0,1.5538369417190552,0,0,0.9172800183296204
1.1900870000000001,0,0,1.5538369417190552,0,0,1.070159912109375
1.191336765,0,0,1.5538369417190552,0,0,0.7644000053405762
1.1925859189999999,0,0,1.5538369417190552,0,0,0.7644000053405762
1.19383724,0,0,1.5538369417190552,0,0,0.7644000053405762
1.195086876,0,0,1.5059528350830078,0,0,0.6879600286483765
1.196336975,0,0,1.5059528350830078,0,0,0.6879600286483765
1.197586981,0,0,1.5059528350830078,0,0,0.611519992351532
1.198837135,0,0,1.5059528350830078,0,0,0.7644000053405762
1.200086956,0,0,1.5059528350830078,0,0,0.2293200045824051
1.201340869,0,0,1.5059528350830078,0,0,1.1466000080108643
1.202585098,0,0,1.5059528350830078,0,0,0.7644000053405762
1.203835585,0,0,1.5322890281677246,0,0,0.6879600286483765
1.205086906,0,0,1.5322890281677246,0,0,0.9937199950218201
1.206336968,0,0,1.5322890281677246,0,0,0.7644000053405762
1.207586918,0,0,1.5322890281677246,0,0,0.6879600286483765
1.208836758,0,0,1.5322890281677246,0,0,0.6879600286483765
1.210086968,0,0,1.5322890281677246,0,0,0.8408399820327759
1.211336825,0,0,1.5322890281677246,0,0,0.305759996175766
1.212586832,0,0,1.37906014919281,0,0,0.6879600286483765
1.213837264,0,0,1.37906014919281,0,0,0.7644000053405762
1.215086936,0,0,1.37906014919281,0,0,0.6879600286483765
1.216336405,0,0,1.37906014919281,0,0,0.9172800183296204
1.217587023,0,0,1.37906014919281,0,0,0.8408399820327759
1.218836899,0,0,1.37906014919281,0,0,0.7644000053405762
1.220086942,0,0,1.37906014919281,0,0,0.8408399820327759
1.221336763,0,0,1.37906014919281,0,0,0.7644000053405762
1.222590714,0,0,1.3742717504501343,0,0,0.611519992351532
1.223836738,0,0,1.3742717504501343,0,0,1.070159912109375
1.225087078,0,0,1.3742717504501343,0,0,0.7644000053405762
1.226336973,0,0,1.3742717504501343,0,0,1.070159912109375
1.227587034,0,0,1.3742717504501343,0,0,0.9172800183296204
1.228836948,0,0,1.3742717504501343,0,0,0.5350799560546875
1.230086954,0,0,1.3742717504501343,0,0,0.7644000053405762
1.231337034,0,0,1.3886369466781616,0,0,0.7644000053405762
1.232703909,0,0,1.3886369466781616,0,0,1.070159912109375
1.233844509,0,0,1.3886369466781616,0,0,0.8408399820327759
1.235087274,0,0,1.3886369466781616,0,0,0.8408399820327759
1.236337058,0,0,1.3886369466781616,0,0,0.7644000053405762
1.237587101,0,0,1.3886369466781616,0,0,1.070159912109375
1.238836996,0,0,1.3886369466781616,0,0,0.611519992351532
1.240091428,0,0,1.2713210582733154,0,0,0.8408399820327759
1.241337249,0,0,1.2713210582733154,0,0,0.4586400091648102
1.242586959,0,0,1.2713210582733154,0,0,0.7644000053405762
1.243836965,0,0,1.2713210582733154,0,0,0
1.245085749,0,0,1.2713210582733154,0,0,0.9172800183296204
1.246337255,0,0,1.2713210582733154,0,0,0.8408399820327759
1.247587187,0,0,1.2713210582733154,0,0,0.611519992351532
1.248837341,0,0,1.3958195447921753,0,0,0.5350799560546875
1.250087088,0,0,1.3958195447921753,0,0,0.7644000053405762
1.251337094,0,0,1.3958195447921753,0,0,0.9937199950218201
1.252586971,0,0,1.3958195447921753,0,0,0.611519992351532
1.253837144,0,0,1.3958195447921753,0,0,0.9172800183296204
1.255087502,0,0,1.3958195447921753,0,0,0.611519992351532
1.2563356190000001,0,0,1.3958195447921753,0,0,0.9937199950218201
1.257586829,0,0,1.3958195447921753,0,0,0.8408399820327759
1.258836872,0,0,1.3958195447921753,0,0,1.1466000080108643
1.260209025,0,0,1.3958195447921753,0,0,0.8408399820327759
1.261339476,0,0,1.3958195447921753,0,0,0.4586400091648102
1.262607279,0,0,1.3958195447921753,0,0,0.9172800183296204
1.263837489,0,0,1.3958195447921753,0,0,0.8408399820327759
1.265086828,0,0,1.3958195447921753,0,0,0.8408399820327759
1.266426537,0,0,1.5179238319396973,0,0,0.611519992351532
1.267590081,0,0,1.5179238319396973,0,0,0.9172800183296204
1.268837235,0,0,1.5179238319396973,0,0,0.8408399820327759
1.27009076,0,0,1.5179238319396973,0,0,0.9172800183296204
1.27133771,0,0,1.5179238319396973,0,0,1.070159912109375
1.272586735,0,0,1.5179238319396973,0,0,0.9172800183296204
1.273837704,0,0,1.5179238319396973,0,0,0.9172800183296204
1.275086821,0,0,1.5179238319396973,0,0,0.9172800183296204
1.276337401,0,0,1.4891934394836426,0,0,0.9937199950218201
1.277586944,0,0,1.4891934394836426,0,0,0.8408399820327759
1.278842006,0,0,1.4891934394836426,0,0,0.9172800183296204
1.280087364,0,0,1.4891934394836426,0,0,0.611519992351532
1.281398981,0,0,1.4891934394836426,0,0,0.8408399820327759
1.282589172,0,0,1.4891934394836426,0,0,0.611519992351532
1.283837253,0,0,1.4891934394836426,0,0,0.8408399820327759
1.2850891660000001,0,0,1.4484920501708984,0,0,0.9172800183296204
1.286335561,0,0,1.4484920501708984,0,0,0.9172800183296204
1.28758716,0,0,1.4484920501708984,0,0,0.305759996175766
1.288837518,0,0,1.4484920501708984,0,0,1.070159912109375
1.2900872460000001,0,0,1.4484920501708984,0,0,0.611519992351532
1.2913371040000001,0,0,1.4484920501708984,0,0,0.9172800183296204
1.29258698,0,0,1.5275006294250488,0,0,0.9937199950218201
1.293837524,0,0,1.5275006294250488,0,0,0.8408399820327759
1.2950872150000001,0,0,1.5275006294250488,0,0,0.8408399820327759
1.296336906,0,0,1.5275006294250488,0,0,0.7644000053405762
1.297586968,0,0,1.5275006294250488,0,0,1.070159912109375
1.2988359,0,0,1.5275006294250488,0,0,0.9172800183296204
1.300085517,0,0,1.5275006294250488,0,0,1.070159912109375
1.3013373750000001,0,0,1.5275006294250488,0,0,0.8408399820327759
1.302587455,0,0,1.5753847360610962,0,0,0.7644000053405762
1.303837017,0,0,1.5753847360610962,0,0,0.6879600286483765
1.305087023,0,0,1.5753847360610962,0,0,0.7644000053405762
1.306339936,0,0,1.5753847360610962,0,0,0.9172800183296204
1.307587424,0,0,1.5753847360610962,0,0,0.8408399820327759
1.308837097,0,0,1.5753847360610962,0,0,0.9172800183296204
1.310087714,0,0,1.5753847360610962,0,0,0.8408399820327759
1.3113382009999999,0,0,1.3742717504501343,0,0,0.9172800183296204
1.312587319,0,0,1.3742717504501343,0,0,0.8408399820327759
1.313835973,0,0,1.3742717504501343,0,0,0.9172800183296204
1.315085905,0,0,1.3742717504501343,0,0,0.7644000053405762
1.316336004,0,0,1.3742717504501343,0,0,0.9172800183296204
1.317590861,0,0,1.3742717504501343,0,0,0.7644000053405762
1.318837405,0,0,1.3742717504501343,0,0,0.9172800183296204
1.3200871699999999,0,0,1.3407529592514038,0,0,0.305759996175766
1.321335843,0,0,1.3407529592514038,0,0,0.9937199950218201
1.322587386,0,0,1.3407529592514038,0,0,0.611519992351532
1.323837096,0,0,1.3407529592514038,0,0,0.9172800183296204
1.325087565,0,0,1.3407529592514038,0,0,0.6879600286483765
1.326337145,0,0,1.3407529592514038,0,0,0.7644000053405762
1.327587151,0,0,1.3407529592514038,0,0,0.7644000053405762
1.328837102,0,0,1.316810965538025,0,0,0.3822000026702881
1.330086978,0,0,1.316810965538025,0,0,0.8408399820327759
1.33133728,0,0,1.316810965538025,0,0,0.305759996175766
1.332587046,0,0,1.316810965538025,0,0,0.9172800183296204
1.333841533,0,0,1.316810965538025,0,0,0.9172800183296204
1.3350876870000001,0,0,1.316810965538025,0,0,0.8408399820327759
1.336337064,0,0,1.316810965538025,0,0,0.6879600286483765
1.3375872549999999,0,0,1.2521674633026123,0,0,0.6879600286483765
1.338836928,0,0,1.2521674633026123,0,0,0.7644000053405762
1.340087175,0,0,1.2521674633026123,0,0,0.9172800183296204
1.341336885,0,0,1.2521674633026123,0,0,1.1466000080108643
1.342587039,0,0,1.2521674633026123,0,0,0.7644000053405762
1.343837063,0,0,1.2521674633026123,0,0,0.8408399820327759
1.34508594,0,0,1.2521674633026123,0,0,0.6879600286483765
1.346337039,0,0,1.3766659498214722,0,0,0.9172800183296204
1.3475869710000001,0,0,1.3766659498214722,0,0,0.6879600286483765
1.34883731,0,0,1.3766659498214722,0,0,0.6879600286483765
1.350086927,0,0,1.3766659498214722,0,0,0.5350799560546875
1.351337396,0,0,1.3766659498214722,0,0,0.8408399820327759
1.35258718,0,0,1.3766659498214722,0,0,0.6879600286483765
1.353836038,0,0,1.3766659498214722,0,0,0.9937199950218201
1.3550861,0,0,1.3766659498214722,0,0,0.9937199950218201
1.356339643,0,0,1.5107412338256836,0,0,0.7644000053405762
1.357587427,0,0,1.5107412338256836,0,0,0.8408399820327759
1.358837044,0,0,1.5107412338256836,0,0,0.9172800183296204
1.36008705,0,0,1.5107412338256836,0,0,0.9172800183296204
1.3613371490000001,0,0,1.5107412338256836,0,0,0.6879600286483765
1.36258671,0,0,1.5107412338256836,0,0,0.8408399820327759
1.363837272,0,0,1.5107412338256836,0,0,0.305759996175766
1.365086871,0,0,1.5945383310317993,0,0,0.9172800183296204
1.366336951,0,0,1.5945383310317993,0,0,0.611519992351532
1.367585401,0,0,1.5945383310317993,0,0,1.1466000080108643
1.368837074,0,0,1.5945383310317993,0,0,0.7644000053405762
1.370086914,0,0,1.5945383310317993,0,0,0.8408399820327759
1.371337031,0,0,1.5945383310317993,0,0,0.611519992351532
1.372587037,0,0,1.5945383310317993,0,0,0.7644000053405762
1.373837228,0,0,1.5394717454910278,0,0,1.070159912109375
1.375086734,0,0,1.5394717454910278,0,0,0.9172800183296204
1.37633674,0,0,1.5394717454910278,0,0,0.7644000053405762
1.377586783,0,0,1.5394717454910278,0,0,0.8408399820327759
1.378836789,0,0,1.5394717454910278,0,0,0.9172800183296204
1.380634068,0,0,1.5394717454910278,0,0,0.611519992351532
1.381360524,0,0,1.5394717454910278,0,0,0.611519992351532
1.382613956,0,0,1.522712230682373,0,0,0.6879600286483765
1.38383998,0,0,1.522712230682373,0,0,0.6879600286483765
1.385087079,0,0,1.522712230682373,0,0,0.8408399820327759
1.386336585,0,0,1.522712230682373,0,0,0.9937199950218201
1.387586147,0,0,1.522712230682373,0,0,0.9172800183296204
1.388836338,0,0,1.522712230682373,0,0,0.6879600286483765
1.390086178,0,0,1.522712230682373,0,0,0.6879600286483765
1.391336387,0,0,1.5945383310317993,0,0,0.6879600286483765
1.3925859680000001,0,0,1.5945383310317993,0,0,0.9172800183296204
1.393836863,0,0,1.5945383310317993,0,0,0.6879600286483765
1.395090795,0,0,1.5945383310317993,0,0,0.7644000053405762
1.39633643,0,0,1.5945383310317993,0,0,0.305759996175766
1.397586103,0,0,1.5945383310317993,0,0,0.6879600286483765
1.3988361089999999,0,0,1.5945383310317993,0,0,0.5350799560546875
1.400086004,0,0,1.580173134803772,0,0,0.7644000053405762
1.40133601,0,0,1.580173134803772,0,0,0.9172800183296204
1.402585979,0,0,1.580173134803772,0,0,0.5350799560546875
1.403836208,0,0,1.580173134803772,0,0,0.6879600286483765
1.405086214,0,0,1.580173134803772,0,0,0.9172800183296204
1.406335812,0,0,1.580173134803772,0,0,0.9172800183296204
1.407585911,0,0,1.580173134803772,0,0,0.2293200045824051
1.408836213,0,0,1.434126853942871,0,0,1.070159912109375
1.410085979,0,0,1.434126853942871,0,0,0.7644000053405762
1.411336022,0,0,1.434126853942871,0,0,1.070159912109375
1.412585861,0,0,1.434126853942871,0,0,0.8408399820327759
1.413836534,0,0,1.434126853942871,0,0,0.4586400091648102
1.415086281,0,0,1.434126853942871,0,0,0.7644000053405762
1.416335954,0,0,1.434126853942871,0,0,0.611519992351532
1.417586182,0,0,1.3646949529647827,0,0,0.9172800183296204
1.4188359099999999,0,0,1.3646949529647827,0,0,0.9937199950218201
1.420085861,0,0,1.3646949529647827,0,0,0.9172800183296204
1.421336071,0,0,1.3646949529647827,0,0,0.7644000053405762
1.4225860209999999,0,0,1.3646949529647827,0,0,0.9172800183296204
1.42383586,0,0,1.3646949529647827,0,0,0.4586400091648102
1.42508833,0,0,1.3646949529647827,0,0,0.8408399820327759
1.426360224,0,0,1.4484920501708984,0,0,0.611519992351532
1.427589805,0,0,1.4484920501708984,0,0,0.7644000053405762
1.4288365330000001,0,0,1.4484920501708984,0,0,0.5350799560546875
1.430086687,0,0,1.4484920501708984,0,0,0.9172800183296204
1.43133649,0,0,1.4484920501708984,0,0,0.6879600286483765
1.432585699,0,0,1.4484920501708984,0,0,0.4586400091648102
1.433848502,0,0,1.4484920501708984,0,0,0.9172800183296204
1.435088545,0,0,1.3335703611373901,0,0,0.9172800183296204
1.436336421,0,0,1.3335703611373901,0,0,0.8408399820327759
1.437586446,0,0,1.3335703611373901,0,0,0.611519992351532
1.4388362670000001,0,0,1.3335703611373901,0,0,0.9172800183296204
1.440086366,0,0,1.3335703611373901,0,0,0.5350799560546875
1.441336261,0,0,1.3335703611373901,0,0,0.6879600286483765
1.442596989,0,0,1.3335703611373901,0,0,0.8408399820327759
1.443850161,0,0,1.479616641998291,0,0,0.7644000053405762
1.445087057,0,0,1.479616641998291,0,0,0.8408399820327759
1.446336581,0,0,1.479616641998291,0,0,0.5350799560546875
1.447586495,0,0,1.479616641998291,0,0,0.9172800183296204
1.448836316,0,0,1.479616641998291,0,0,0.6879600286483765
1.450086118,0,0,1.479616641998291,0,0,0.9172800183296204
1.451336346,0,0,1.479616641998291,0,0,0.5350799560546875
1.452586315,0,0,1.4891934394836426,0,0,0.6879600286483765
1.4538355809999999,0,0,1.4891934394836426,0,0,0.6879600286483765
1.4550851790000001,0,0,1.4891934394836426,0,0,1.223039984703064
1.456335111,0,0,1.4891934394836426,0,0,0.7644000053405762
1.45758671,0,0,1.4891934394836426,0,0,0.7644000053405762
1.458836031,0,0,1.4891934394836426,0,0,0.611519992351532
1.460085815,0,0,1.4891934394836426,0,0,0.7644000053405762
1.461336284,0,0,1.4891934394836426,0,0,0.9172800183296204
1.462585994,0,0,1.5418659448623657,0,0,1.070159912109375
1.463835944,0,0,1.5418659448623657,0,0,0.8408399820327759
1.46508608,0,0,1.5418659448623657,0,0,0.8408399820327759
1.466335975,0,0,1.5418659448623657,0,0,0.9937199950218201
1.467585925,0,0,1.5418659448623657,0,0,0.9937199950218201
1.468835932,0,0,1.5418659448623657,0,0,0.6879600286483765
1.470086067,0,0,1.5418659448623657,0,0,0.8408399820327759
1.471335944,0,0,1.5394717454910278,0,0,0.6879600286483765
1.472589487,0,0,1.5394717454910278,0,0,0.9172800183296204
1.473848326,0,0,1.5394717454910278,0,0,0.8408399820327759
1.475086036,0,0,1.5394717454910278,0,0,0.8408399820327759
1.4763357639999999,0,0,1.5394717454910278,0,0,0.8408399820327759
1.477585844,0,0,1.5394717454910278,0,0,0.7644000053405762
1.478835943,0,0,1.644816517829895,0,0,0.9172800183296204
1.4800858749999999,0,0,1.644816517829895,0,0,0.9937199950218201
1.481335955,0,0,1.644816517829895,0,0,0.7644000053405762
1.482585887,0,0,1.644816517829895,0,0,0.9172800183296204
1.483835819,0,0,1.644816517829895,0,0,0.6879600286483765
1.485085937,0,0,1.644816517829895,0,0,1.1466000080108643
1.486335776,0,0,1.644816517829895,0,0,0.8408399820327759
1.487585782,0,0,1.644816517829895,0,0,0.7644000053405762
1.488836177,0,0,1.45806884765625,0,0,0.9172800183296204
1.4900857570000001,0,0,1.45806884765625,0,0,0.8408399820327759
1.491336097,0,0,1.45806884765625,0,0,0.8408399820327759
1.492585695,0,0,1.45806884765625,0,0,0.611519992351532
1.493836683,0,0,1.45806884765625,0,0,1.223039984703064
1.49510343,0,0,1.45806884765625,0,0,0.611519992351532
1.496364324,0,0,1.45806884765625,0,0,0.8408399820327759
1.497622293,0,0,1.381454348564148,0,0,0.9172800183296204
1.498882318,0,0,1.381454348564148,0,0,0.9937199950218201
1.5001334910000002,0,0,1.381454348564148,0,0,0.8408399820327759
1.501361145,0,0,1.381454348564148,0,0,0.9172800183296204
1.502625836,0,0,1.381454348564148,0,0,0.8408399820327759
1.5038763419999999,0,0,1.381454348564148,0,0,0.7644000053405762
1.505153126,0,0,1.4221558570861816,0,0,0.6879600286483765
1.506387169,0,0,1.4221558570861816,0,0,0.6879600286483765
1.507661897,0,0,1.4221558570861816,0,0,1.223039984703064
1.5088814780000002,0,0,1.4221558570861816,0,0,0.8408399820327759
1.510109095,0,0,1.4221558570861816,0,0,0.9937199950218201
1.511377694,0,0,1.4221558570861816,0,0,0.9937199950218201
1.512685218,0,0,1.3646949529647827,0,0,0.611519992351532
1.513877039,0,0,1.3646949529647827,0,0,0.9937199950218201
1.5151359709999999,0,0,1.3646949529647827,0,0,0.9937199950218201
1.516380588,0,0,1.3527239561080933,0,0,0.5350799560546875
1.517622039,0,0,1.3527239561080933,0,0,0.9172800183296204
1.518876823,0,0,1.3527239561080933,0,0,0.8408399820327759
1.520134273,0,0,1.3527239561080933,0,0,0.9172800183296204
1.521380965,0,0,1.3527239561080933,0,0,0.9172800183296204
1.522639452,0,0,1.3527239561080933,0,0,0.9172800183296204
1.52389581,0,0,1.338358759880066,0,0,0.7644000053405762
1.525134557,0,0,1.338358759880066,0,0,0.611519992351532
1.526379841,0,0,1.338358759880066,0,0,0.6879600286483765
1.527625791,0,0,1.338358759880066,0,0,-9.172800064086914
1.5289671299999998,0,0,1.338358759880066,0,0,0.9172800183296204
1.5301891730000001,0,0,1.338358759880066,0,0,0.6879600286483765
1.531382624,0,0,1.338358759880066,0,0,0.9172800183296204
1.532685389,0,0,1.434126853942871,0,0,0.8408399820327759
1.533891396,0,0,1.434126853942871,0,0,0.5350799560546875
1.5353754739999999,0,0,1.434126853942871,0,0,0.8408399820327759
1.5363861669999999,0,0,1.434126853942871,0,0,0.9172800183296204
1.537626451,0,0,1.434126853942871,0,0,0.9172800183296204
1.538880365,0,0,1.434126853942871,0,0,0.6879600286483765
1.540128056,0,0,1.53707754611969,0,0,0.8408399820327759
1.5413836920000001,0,0,1.53707754611969,0,0,0.7644000053405762
1.5426133640000002,0,0,1.53707754611969,0,0,1.2994799613952637
1.543839593,0,0,1.53707754611969,0,0,0.9172800183296204
1.5450882099999999,0,0,1.53707754611969,0,0,0.9172800183296204
1.546354235,0,0,1.53707754611969,0,0,0.7644000053405762
1.5475895,0,0,1.5729905366897583,0,0,0.6879600286483765
1.548836599,0,0,1.5729905366897583,0,0,0.611519992351532
1.550148012,0,0,1.5729905366897583,0,0,0.7644000053405762
1.5513367219999998,0,0,1.5729905366897583,0,0,0.9172800183296204
1.552643302,0,0,1.5729905366897583,0,0,0.5350799560546875
1.5538588450000002,0,0,1.5729905366897583,0,0,0.9172800183296204
1.555087777,0,0,1.5729905366897583,0,0,0.8408399820327759
1.556336747,0,0,1.4676456451416016,0,0,0.6879600286483765
1.5575872899999998,0,0,1.4676456451416016,0,0,0.8408399820327759
1.558836814,0,0,1.4676456451416016,0,0,0.8408399820327759
1.560087394,0,0,1.4676456451416016,0,0,0.5350799560546875
1.561337567,0,0,1.4676456451416016,0,0,0.8408399820327759
1.562586888,0,0,1.4676456451416016,0,0,1.070159912109375
1.563836987,0,0,1.4676456451416016,0,0,0.611519992351532
1.565087197,0,0,1.5418659448623657,0,0,0.7644000053405762
1.566336814,0,0,1.5418659448623657,0,0,0.7644000053405762
1.567585598,0,0,1.5418659448623657,0,0,0.9937199950218201
1.5688371779999999,0,0,1.5418659448623657,0,0,0.6879600286483765
1.5700868510000001,0,0,1.5418659448623657,0,0,0.7644000053405762
1.571342486,0,0,1.5418659448623657,0,0,0.8408399820327759
1.572587474,0,0,1.5179238319396973,0,0,0.7644000053405762
1.5738376280000002,0,0,1.5179238319396973,0,0,0.9937199950218201
1.5750871709999998,0,0,1.5179238319396973,0,0,0.8408399820327759
1.576337307,0,0,1.5179238319396973,0,0,0.9937199950218201
1.577586294,0,0,1.5179238319396973,0,0,0.8408399820327759
1.5788363749999998,0,0,1.5179238319396973,0,0,0.611519992351532
1.580087714,0,0,1.3646949529647827,0,0,0.5350799560546875
1.581337368,0,0,1.3646949529647827,0,0,0.8408399820327759
1.582587356,0,0,1.3646949529647827,0,0,0.9172800183296204
1.583837325,0,0,1.3646949529647827,0,0,0.9172800183296204
1.5850877749999999,0,0,1.3646949529647827,0,0,0.8408399820327759
1.586337467,0,0,1.3646949529647827,0,0,0.8408399820327759
1.587587158,0,0,1.3646949529647827,0,0,0.6879600286483765
1.588841442,0,0,1.3646949529647827,0,0,0.9172800183296204
1.590086152,0,0,1.3646949529647827,0,0,0.5350799560546875
1.5913361209999999,0,0,1.3646949529647827,0,0,0.8408399820327759
1.592585793,0,0,1.3646949529647827,0,0,0.4586400091648102
1.593837337,0,0,1.3646949529647827,0,0,0.6879600286483765
1.595090583,0,0,1.3646949529647827,0,0,0.8408399820327759
1.596337089,0,0,1.3838485479354858,0,0,0.9937199950218201
1.5975857439999999,0,0,1.3838485479354858,0,0,0.6879600286483765
1.5988371940000001,0,0,1.3838485479354858,0,0,0.7644000053405762
1.6000874779999998,0,0,1.3838485479354858,0,0,0.9172800183296204
1.601337021,0,0,1.3838485479354858,0,0,0.6879600286483765
1.602586861,0,0,1.3838485479354858,0,0,0.9937199950218201
1.6038369220000002,0,0,1.460463047027588,0,0,0.2293200045824051
1.60508691,0,0,1.460463047027588,0,0,0.6879600286483765
1.606337101,0,0,1.460463047027588,0,0,0.7644000053405762
1.6075870330000002,0,0,1.460463047027588,0,0,0.6879600286483765
1.608836428,0,0,1.460463047027588,0,0,0.6879600286483765
1.610087231,0,0,1.460463047027588,0,0,0.5350799560546875
1.611337088,0,0,1.460463047027588,0,0,0.5350799560546875
1.612587354,0,0,1.4197616577148438,0,0,0.611519992351532
1.613837045,0,0,1.4197616577148438,0,0,1.070159912109375
1.615086977,0,0,1.4197616577148438,0,0,0.611519992351532
1.616336946,0,0,1.4197616577148438,0,0,0.6879600286483765
1.617586915,0,0,1.4197616577148438,0,0,0.9172800183296204
1.618837032,0,0,1.4197616577148438,0,0,0.6879600286483765
1.6200869089999999,0,0,1.4676456451416016,0,0,0.9937199950218201
1.6213359889999999,0,0,1.4676456451416016,0,0,0.7644000053405762
1.622586014,0,0,1.4676456451416016,0,0,0.9172800183296204
1.6238371310000002,0,0,1.4676456451416016,0,0,0.4586400091648102
1.6250872109999999,0,0,1.4676456451416016,0,0,0.8408399820327759
1.626337162,0,0,1.4676456451416016,0,0,0.9172800183296204
1.6275900939999999,0,0,1.4676456451416016,0,0,0.9172800183296204
1.628837377,0,0,1.5442601442337036,0,0,0.8408399820327759
1.6300869759999999,0,0,1.5442601442337036,0,0,0.7644000053405762
1.631349038,0,0,1.5442601442337036,0,0,0.6879600286483765
1.6326435799999999,0,0,1.5442601442337036,0,0,0.6879600286483765
1.6338576790000001,0,0,1.5442601442337036,0,0,0.4586400091648102
1.6350883889999999,0,0,1.5442601442337036,0,0,0.611519992351532
1.636337192,0,0,1.5442601442337036,0,0,0.5350799560546875
1.63758692,0,0,1.5442601442337036,0,0,0.6879600286483765
1.638837074,0,0,1.5179238319396973,0,0,0.7644000053405762
1.640087006,0,0,1.5179238319396973,0,0,0.7644000053405762
1.641359623,0,0,1.5179238319396973,0,0,0.8408399820327759
1.642588537,0,0,1.5179238319396973,0,0,0.611519992351532
1.643837043,0,0,1.5179238319396973,0,0,0.5350799560546875
1.645087142,0,0,1.5179238319396973,0,0,0.7644000053405762
1.646336796,0,0,1.5179238319396973,0,0,0.6879600286483765
1.647587117,0,0,1.53707754611969,0,0,0.7644000053405762
1.6488357900000001,0,0,1.53707754611969,0,0,0.6879600286483765
1.650087111,0,0,1.53707754611969,0,0,0.8408399820327759
1.651337468,0,0,1.53707754611969,0,0,0.9172800183296204
1.6525869,0,0,1.53707754611969,0,0,0.611519992351532
1.65383711,0,0,1.53707754611969,0,0,0.8408399820327759
1.655087153,0,0,1.5945383310317993,0,0,0.611519992351532
1.656350048,0,0,1.5945383310317993,0,0,0.6879600286483765
1.6575869060000001,0,0,1.5945383310317993,0,0,0.6879600286483765
1.658837246,0,0,1.5945383310317993,0,0,0.9172800183296204
1.660087085,0,0,1.5945383310317993,0,0,0.9172800183296204
1.661336313,0,0,1.5945383310317993,0,0,0.7644000053405762
1.6625870790000001,0,0,1.5945383310317993,0,0,0.8408399820327759
1.6638367889999999,0,0,1.5945383310317993,0,0,0.8408399820327759
1.6650869799999999,0,0,1.4245500564575195,0,0,0.8408399820327759
1.666341616,0,0,1.4245500564575195,0,0,0.8408399820327759
1.667587122,0,0,1.4245500564575195,0,0,0.6879600286483765
1.6688372390000001,0,0,1.4245500564575195,0,0,0.3822000026702881
1.6700869489999999,0,0,1.4245500564575195,0,0,0.4586400091648102
1.671336881,0,0,1.4245500564575195,0,0,0.9937199950218201
1.6725869979999999,0,0,1.4245500564575195,0,0,0.5350799560546875
1.673840782,0,0,1.3886369466781616,0,0,0.8408399820327759
1.6750873990000001,0,0,1.3886369466781616,0,0,0.7644000053405762
1.6763369240000001,0,0,1.3886369466781616,0,0,0.8408399820327759
1.6775873190000001,0,0,1.3886369466781616,0,0,0.611519992351532
1.678836899,0,0,1.3886369466781616,0,0,1.070159912109375
1.68008709,0,0,1.3886369466781616,0,0,0.5350799560546875
1.6813370220000001,0,0,1.3886369466781616,0,0,0.7644000053405762
1.682586917,0,0,1.3958195447921753,0,0,0.5350799560546875
1.6838370710000001,0,0,1.3958195447921753,0,0,0.9172800183296204
1.6850860220000001,0,0,1.3958195447921753,0,0,0.8408399820327759
1.686335769,0,0,1.3958195447921753,0,0,0.6879600286483765
1.687587108,0,0,1.3958195447921753,0,0,0.7644000053405762
1.688837188,0,0,1.3958195447921753,0,0,0.8408399820327759
1.6900870829999999,0,0,1.3958195447921753,0,0,0.8408399820327759
1.691337015,0,0,1.3623007535934448,0,0,0.4586400091648102
1.692586929,0,0,1.3623007535934448,0,0,1.1466000080108643
1.693837064,0,0,1.3623007535934448,0,0,0.6879600286483765
1.695086959,0,0,1.3623007535934448,0,0,0.6879600286483765
1.69633578,0,0,1.3623007535934448,0,0,0.9172800183296204
1.697585601,0,0,1.3623007535934448,0,0,0.611519992351532
1.698837033,0,0,1.3623007535934448,0,0,0.6879600286483765
1.700086836,0,0,1.434126853942871,0,0,0.7644000053405762
1.701336971,0,0,1.434126853942871,0,0,1.1466000080108643
1.702586885,0,0,1.434126853942871,0,0,0.7644000053405762
1.70383678,0,0,1.434126853942871,0,0,0.8408399820327759
1.705089619,0,0,1.434126853942871,0,0,0.6879600286483765
1.706336792,0,0,1.434126853942871,0,0,0.7644000053405762
1.7075966679999999,0,0,1.434126853942871,0,0,1.070159912109375
1.708836841,0,0,1.501164436340332,0,0,0.9172800183296204
1.7100859210000001,0,0,1.501164436340332,0,0,1.070159912109375
1.71134252,0,0,1.501164436340332,0,0,0.9937199950218201
1.712587452,0,0,1.501164436340332,0,0,0.611519992351532
1.7138360879999999,0,0,1.501164436340332,0,0,0.9172800183296204
1.7150857419999999,0,0,1.501164436340332,0,0,0.9172800183296204
1.716335859,0,0,1.501164436340332,0,0,0.6879600286483765
1.717586384,0,0,1.501164436340332,0,0,0.9172800183296204
1.718835742,0,0,1.4389152526855469,0,0,0.9172800183296204
1.720085748,0,0,1.4389152526855469,0,0,0.7644000053405762
1.721337624,0,0,1.4389152526855469,0,0,0.6879600286483765
1.722587538,0,0,1.4389152526855469,0,0,0.7644000053405762
1.723835692,0,0,1.4389152526855469,0,0,0.305759996175766
1.725086105,0,0,1.4389152526855469,0,0,0.7644000053405762
1.726337537,0,0,1.4389152526855469,0,0,0.8408399820327759
1.727587914,0,0,1.4293384552001953,0,0,0.9172800183296204
1.728837198,0,0,1.4293384552001953,0,0,0.8408399820327759
1.730087296,0,0,1.4293384552001953,0,0,0.7644000053405762
1.731337247,0,0,1.4293384552001953,0,0,0.9172800183296204
1.732587272,0,0,1.4293384552001953,0,0,0.4586400091648102
1.73383987,0,0,1.4293384552001953,0,0,1.2994799613952637
1.7350887099999999,0,0,1.4293384552001953,0,0,0.9172800183296204
1.7363360490000002,0,0,1.5131354331970215,0,0,0.9937199950218201
1.737587574,0,0,1.5131354331970215,0,0,0.7644000053405762
1.738837228,0,0,1.5131354331970215,0,0,0.9172800183296204
1.74008729,0,0,1.5131354331970215,0,0,0.9172800183296204
1.741337203,0,0,1.5131354331970215,0,0,0.8408399820327759
1.742589487,0,0,1.5131354331970215,0,0,0.6879600286483765
1.7438419,0,0,1.5131354331970215,0,0,0.6879600286483765
1.7450872579999999,0,0,1.534683346748352,0,0,0.305759996175766
1.7463371159999999,0,0,1.534683346748352,0,0,1.070159912109375
1.7475879189999999,0,0,1.534683346748352,0,0,0.9172800183296204
1.748835314,0,0,1.534683346748352,0,0,0.7644000053405762
1.750087394,0,0,1.534683346748352,0,0,0.6879600286483765
1.7513388810000001,0,0,1.534683346748352,0,0,0.8408399820327759
1.752587239,0,0,1.534683346748352,0,0,0.7644000053405762
1.753837357,0,0,1.5634137392044067,0,0,0.611519992351532
1.7550881029999998,0,0,1.5634137392044067,0,0,0.611519992351532
1.756335998,0,0,1.5634137392044067,0,0,0.5350799560546875
1.757587375,0,0,1.5634137392044067,0,0,0.9172800183296204
1.7588372140000001,0,0,1.5634137392044067,0,0,0.9937199950218201
1.760087368,0,0,1.5634137392044067,0,0,0.6879600286483765
1.761337097,0,0,1.5634137392044067,0,0,0.9172800183296204
1.76258651,0,0,1.5634137392044067,0,0,0.8408399820327759
1.7638357199999999,0,0,1.4772224426269531,0,0,0.9172800183296204
1.765087485,0,0,1.4772224426269531,0,0,0.611519992351532
1.766337214,0,0,1.4772224426269531,0,0,1.2994799613952637
1.767587331,0,0,1.4772224426269531,0,0,0.5350799560546875
1.768837244,0,0,1.4772224426269531,0,0,0.9937199950218201
1.7700871390000001,0,0,1.4772224426269531,0,0,0.611519992351532
1.771337183,0,0,1.4772224426269531,0,0,0.8408399820327759
1.772604911,0,0,1.4772224426269531,0,0,0.6879600286483765
1.773837991,0,0,1.4772224426269531,0,0,0.611519992351532
1.775087423,0,0,1.4772224426269531,0,0,0.7644000053405762
1.7763371700000001,0,0,1.4772224426269531,0,0,0.611519992351532
1.777587176,0,0,1.4772224426269531,0,0,0.9937199950218201
1.7788373119999998,0,0,1.4772224426269531,0,0,0.8408399820327759
1.780087151,0,0,1.4772224426269531,0,0,1.2994799613952637
1.781336194,0,0,1.3742717504501343,0,0,0.9172800183296204
1.782589385,0,0,1.3742717504501343,0,0,0.9172800183296204
1.783835984,0,0,1.3742717504501343,0,0,0.9172800183296204
1.7850864720000001,0,0,1.3742717504501343,0,0,0.6879600286483765
1.786335311,0,0,1.3742717504501343,0,0,0.5350799560546875
1.788759972,0,0,1.3742717504501343,0,0,0.5350799560546875
1.788783713,0,0,1.3742717504501343,0,0,0.2293200045824051
1.790112922,0,0,1.2449848651885986,0,0,0.5350799560546875
1.791374835,0,0,1.2449848651885986,0,0,0.611519992351532
1.79261173,0,0,1.2449848651885986,0,0,0.7644000053405762
1.793836866,0,0,1.2449848651885986,0,0,0.6879600286483765
1.795086502,0,0,1.2449848651885986,0,0,0.7644000053405762
1.7963358600000001,0,0,1.2449848651885986,0,0,0.9172800183296204
1.797586088,0,0,1.2449848651885986,0,0,0.9172800183296204
1.798835928,0,0,1.2449848651885986,0,0,1.070159912109375
1.800086211,0,0,1.3551181554794312,0,0,0.5350799560546875
1.801335903,0,0,1.3551181554794312,0,0,0.6879600286483765
1.802585927,0,0,1.3551181554794312,0,0,0.9172800183296204
1.803835915,0,0,1.3551181554794312,0,0,0.6879600286483765
1.805085958,0,0,1.3551181554794312,0,0,0.5350799560546875
1.8063359270000001,0,0,1.3551181554794312,0,0,0.7644000053405762
1.807587248,0,0,1.3551181554794312,0,0,0.6879600286483765
1.808854346,0,0,1.4700398445129395,0,0,0.6879600286483765
1.810087223,0,0,1.4700398445129395,0,0,1.223039984703064
1.811335914,0,0,1.4700398445129395,0,0,0.7644000053405762
1.81258592,0,0,1.4700398445129395,0,0,0.7644000053405762
1.813837186,0,0,1.4700398445129395,0,0,0.8408399820327759
1.815086062,0,0,1.4700398445129395,0,0,0.8408399820327759
1.816336013,0,0,1.4700398445129395,0,0,0.7644000053405762
1.817585889,0,0,1.4844050407409668,0,0,0.9172800183296204
1.818835988,0,0,1.4844050407409668,0,0,0.7644000053405762
1.8200859569999999,0,0,1.4844050407409668,0,0,0.5350799560546875
1.821341093,0,0,1.4844050407409668,0,0,0.8408399820327759
1.822617691,0,0,1.4844050407409668,0,0,0.7644000053405762
1.823838697,0,0,1.4844050407409668,0,0,0.9172800183296204
1.825086685,0,0,1.4844050407409668,0,0,0.611519992351532
1.826335969,0,0,1.5729905366897583,0,0,0.7644000053405762
1.827586068,0,0,1.5729905366897583,0,0,0.8408399820327759
1.8288361480000002,0,0,1.5729905366897583,0,0,0.8408399820327759
1.83008595,0,0,1.5729905366897583,0,0,0.7644000053405762
1.831335808,0,0,1.5729905366897583,0,0,0.5350799560546875
1.8325860550000002,0,0,1.5729905366897583,0,0,0.4586400091648102
1.8338443199999999,0,0,1.5729905366897583,0,0,0.6879600286483765
1.835087734,0,0,1.5849615335464478,0,0,1.070159912109375
1.836336147,0,0,1.5849615335464478,0,0,0.611519992351532
1.837586209,0,0,1.5849615335464478,0,0,0.9172800183296204
1.83883603,0,0,1.5849615335464478,0,0,0.9172800183296204
1.840085851,0,0,1.5849615335464478,0,0,0.6879600286483765
1.841343746,0,0,1.5849615335464478,0,0,0.611519992351532
1.842669473,0,0,1.5849615335464478,0,0,1.223039984703064
1.843842832,0,0,1.5849615335464478,0,0,0.7644000053405762
1.845087875,0,0,1.5298948287963867,0,0,0.9172800183296204
1.8463375659999999,0,0,1.5298948287963867,0,0,0.9172800183296204
1.847605739,0,0,1.5298948287963867,0,0,0.9172800183296204
1.8488389299999999,0,0,1.5298948287963867,0,0,0.9937199950218201
1.850086992,0,0,1.5298948287963867,0,0,0.9172800183296204
1.851337498,0,0,1.5298948287963867,0,0,0.8408399820327759
1.852587356,0,0,1.5298948287963867,0,0,0.8408399820327759
1.853837751,0,0,1.5658079385757446,0,0,0.611519992351532
1.855087331,0,0,1.5658079385757446,0,0,0.9937199950218201
1.8563371709999998,0,0,1.5658079385757446,0,0,0.9937199950218201
1.857587047,0,0,1.5658079385757446,0,0,0.6879600286483765
1.858837146,0,0,1.5658079385757446,0,0,0.9172800183296204
1.8600915040000001,0,0,1.5658079385757446,0,0,0.7644000053405762
1.861337454,0,0,1.5658079385757446,0,0,0.7644000053405762
1.862588701,0,0,1.3623007535934448,0,0,0.8408399820327759
1.863835596,0,0,1.3623007535934448,0,0,0.7644000053405762
1.865087343,0,0,1.3623007535934448,0,0,0.152879998087883
1.866337201,0,0,1.3623007535934448,0,0,0.9937199950218201
1.8675872070000001,0,0,1.3623007535934448,0,0,0.9172800183296204
1.86883712,0,0,1.3623007535934448,0,0,0.7644000053405762
1.870099867,0,0,1.3623007535934448,0,0,0.9172800183296204
1.871336873,0,0,1.3479355573654175,0,0,0.6879600286483765
1.8725861940000001,0,0,1.3479355573654175,0,0,0.9937199950218201
1.873837459,0,0,1.3479355573654175,0,0,0.5350799560546875
1.875087206,0,0,1.3479355573654175,0,0,0.611519992351532
1.8763369349999999,0,0,1.3479355573654175,0,0,0.3822000026702881
1.877587181,0,0,1.3479355573654175,0,0,1.070159912109375
1.878837262,0,0,1.3479355573654175,0,0,0.5350799560546875
1.880087157,0,0,1.4101848602294922,0,0,0.9172800183296204
1.881339163,0,0,1.4101848602294922,0,0,0.5350799560546875
1.882614706,0,0,1.4101848602294922,0,0,0.611519992351532
1.883861267,0,0,1.4101848602294922,0,0,0.7644000053405762
1.885114255,0,0,1.4101848602294922,0,0,0.4586400091648102
1.88637039,0,0,1.4101848602294922,0,0,0.8408399820327759
1.887590267,0,0,1.4101848602294922,0,0,0.5350799560546875
1.888846569,0,0,1.4101848602294922,0,0,0.7644000053405762
1.890087428,0,0,1.2880805730819702,0,0,0.5350799560546875
1.891335674,0,0,1.2880805730819702,0,0,0.9172800183296204
1.892585736,0,0,1.2880805730819702,0,0,0.7644000053405762
1.893837983,0,0,1.2880805730819702,0,0,0.8408399820327759
1.89508673,0,0,1.2880805730819702,0,0,0.7644000053405762
1.8963446990000001,0,0,1.2880805730819702,0,0,0.6879600286483765
1.897588223,0,0,1.2880805730819702,0,0,0.9937199950218201
1.89884184,0,0,1.455674648284912,0,0,0.9172800183296204
1.900087458,0,0,1.455674648284912,0,0,0.9172800183296204
1.90133726,0,0,1.455674648284912,0,0,0.6879600286483765
1.9026002850000001,0,0,1.455674648284912,0,0,0.7644000053405762
1.903837217,0,0,1.455674648284912,0,0,0.8408399820327759
1.905087204,0,0,1.455674648284912,0,0,0.9172800183296204
1.9063375439999999,0,0,1.455674648284912,0,0,0.8408399820327759
1.907587309,0,0,1.41257905960083,0,0,0.8408399820327759
1.9088375929999999,0,0,1.41257905960083,0,0,0.6879600286483765
1.9100872469999999,0,0,1.41257905960083,0,0,0.7644000053405762
1.911337753,0,0,1.41257905960083,0,0,0.6879600286483765
1.912587574,0,0,1.41257905960083,0,0,0.8408399820327759
1.913835932,0,0,1.41257905960083,0,0,0.8408399820327759
1.915085975,0,0,1.41257905960083,0,0,0.8408399820327759
1.916335685,0,0,1.534683346748352,0,0,0.6879600286483765
1.917587228,0,0,1.534683346748352,0,0,0.9172800183296204
1.9188359560000001,0,0,1.534683346748352,0,0,0.9937199950218201
1.920086185,0,0,1.534683346748352,0,0,0.9172800183296204
1.921335709,0,0,1.534683346748352,0,0,0.7644000053405762
1.9225857899999999,0,0,1.534683346748352,0,0,0.8408399820327759
1.92383561,0,0,1.534683346748352,0,0,1.070159912109375
1.9250863200000001,0,0,1.5203180313110352,0,0,0.8408399820327759
1.926335789,0,0,1.5203180313110352,0,0,0.611519992351532
1.927585721,0,0,1.5203180313110352,0,0,0.6879600286483765
1.928836005,0,0,1.5203180313110352,0,0,0.611519992351532
1.930085845,0,0,1.5203180313110352,0,0,0.8408399820327759
1.931335703,0,0,1.5203180313110352,0,0,0.6879600286483765
1.932585838,0,0,1.5203180313110352,0,0,0.9172800183296204
1.933836122,0,0,1.5203180313110352,0,0,0.6879600286483765
1.935085776,0,0,1.5275006294250488,0,0,0.9172800183296204
1.936336116,0,0,1.5275006294250488,0,0,0.6879600286483765
1.9375893629999998,0,0,1.5275006294250488,0,0,0.611519992351532
1.938835906,0,0,1.5275006294250488,0,0,0.7644000053405762
1.940085819,0,0,1.5275006294250488,0,0,0.611519992351532
1.9413362699999999,0,0,1.5275006294250488,0,0,0.611519992351532
1.942585942,0,0,1.5275006294250488,0,0,0.7644000053405762
1.943835634,0,0,1.6184803247451782,0,0,0.8408399820327759
1.945089788,0,0,1.6184803247451782,0,0,0.5350799560546875
1.946335776,0,0,1.6184803247451782,0,0,0.7644000053405762
1.947587059,0,0,1.6184803247451782,0,0,0.9172800183296204
1.9488394169999999,0,0,1.6184803247451782,0,0,0.8408399820327759
1.9500875899999999,0,0,1.6184803247451782,0,0,0.5350799560546875
1.951337467,0,0,1.6184803247451782,0,0,0.611519992351532
1.952586787,0,0,1.5179238319396973,0,0,0.4586400091648102
1.9538358310000001,0,0,1.5179238319396973,0,0,0.6879600286483765
1.955085855,0,0,1.5179238319396973,0,0,0.8408399820327759
1.956337139,0,0,1.5179238319396973,0,0,0.7644000053405762
1.957586904,0,0,1.5179238319396973,0,0,0.6879600286483765
1.958836966,0,0,1.5179238319396973,0,0,0.8408399820327759
1.960086917,0,0,1.5179238319396973,0,0,0.8408399820327759
1.9613368119999999,0,0,1.436521053314209,0,0,0.7644000053405762
1.962586892,0,0,1.436521053314209,0,0,0.6879600286483765
1.9638368609999999,0,0,1.436521053314209,0,0,0.6879600286483765
1.965086904,0,0,1.436521053314209,0,0,0.7644000053405762
1.966336743,0,0,1.436521053314209,0,0,0.5350799560546875
1.967586935,0,0,1.436521053314209,0,0,0.9172800183296204
1.968835589,0,0,1.436521053314209,0,0,0.7644000053405762
1.970087095,0,0,1.4508862495422363,0,0,0.7644000053405762
1.971337064,0,0,1.4508862495422363,0,0,0.6879600286483765
1.972586848,0,0,1.4508862495422363,0,0,0.611519992351532
1.973837058,0,0,1.4508862495422363,0,0,0.7644000053405762
1.975086953,0,0,1.4508862495422363,0,0,0.8408399820327759
1.9763401250000001,0,0,1.4508862495422363,0,0,0.8408399820327759
1.9775868540000001,0,0,1.4508862495422363,0,0,0.6879600286483765
1.978836878,0,0,1.4293384552001953,0,0,0.9937199950218201
1.980086958,0,0,1.4293384552001953,0,0,1.070159912109375
1.9813360759999998,0,0,1.4293384552001953,0,0,0.9172800183296204
1.9826055999999999,0,0,1.4293384552001953,0,0,0.9937199950218201
1.983837662,0,0,1.4293384552001953,0,0,0.7644000053405762
1.985086964,0,0,1.4293384552001953,0,0,0.6879600286483765
1.98633697,0,0,1.4293384552001953,0,0,0.9937199950218201
1.9875869210000001,0,0,1.4293384552001953,0,0,0.6879600286483765
1.988836316,0,0,1.3192051649093628,0,0,0.7644000053405762
1.990085415,0,0,1.3192051649093628,0,0,0.6879600286483765
1.9913727909999999,0,0,1.3192051649093628,0,0,0.9172800183296204
1.992587834,0,0,1.3192051649093628,0,0,0.6879600286483765
1.9938376180000001,0,0,1.3192051649093628,0,0,0.6879600286483765
1.995087402,0,0,1.3192051649093628,0,0,0.9172800183296204
1.996337167,0,0,1.3192051649093628,0,0,0.5350799560546875
1.997587284,0,0,1.381454348564148,0,0,0.9937199950218201
1.998837198,0,0,1.381454348564148,0,0,0.611519992351532
2.000085889,0,0,1.381454348564148,0,0,0.8408399820327759
2.00133721,0,0,1.381454348564148,0,0,0.5350799560546875
2.002587216,0,0,1.381454348564148,0,0,0.611519992351532
2.00383713,0,0,1.381454348564148,0,0,0.9172800183296204
2.00508708,0,0,1.381454348564148,0,0,0.9172800183296204
2.006337105,0,0,1.3527239561080933,0,0,0.9172800183296204
2.007587,0,0,1.3527239561080933,0,0,0.5350799560546875
2.008835969,0,0,1.3527239561080933,0,0,0.611519992351532
2.01008566,0,0,1.3527239561080933,0,0,0.8408399820327759
2.011335814,0,0,1.3527239561080933,0,0,1.070159912109375
2.012585746,0,0,1.3527239561080933,0,0,0.8408399820327759
2.013903844,0,0,1.3527239561080933,0,0,0.8408399820327759
2.015090981,0,0,1.3982137441635132,0,0,0.9172800183296204
2.016337857,0,0,1.3982137441635132,0,0,0.8408399820327759
2.017585604,0,0,1.3982137441635132,0,0,0.7644000053405762
2.018836943,0,0,1.3982137441635132,0,0,0.7644000053405762
2.02008682,0,0,1.3982137441635132,0,0,1.223039984703064
2.021336919,0,0,1.3982137441635132,0,0,0.9172800183296204
2.022586832,0,0,1.3982137441635132,0,0,0.8408399820327759
2.023836875,0,0,1.501164436340332,0,0,0.7644000053405762
2.025087011,0,0,1.501164436340332,0,0,0.9172800183296204
2.026336776,0,0,1.501164436340332,0,0,0.6879600286483765
2.027586949,0,0,1.501164436340332,0,0,0.6879600286483765
2.028836881,0,0,1.501164436340332,0,0,0.611519992351532
2.030090054,0,0,1.501164436340332,0,0,0.6879600286483765
2.03133693,0,0,1.501164436340332,0,0,1.070159912109375
2.032586714,0,0,1.455674648284912,0,0,0.611519992351532
2.033843961,0,0,1.455674648284912,0,0,0.6879600286483765
2.035087189,0,0,1.455674648284912,0,0,0.9937199950218201
2.036336844,0,0,1.455674648284912,0,0,0.6879600286483765
2.037587016,0,0,1.455674648284912,0,0,0.5350799560546875
2.03883693,0,0,1.455674648284912,0,0,0.7644000053405762
2.040086917,0,0,1.455674648284912,0,0,0.7644000053405762
2.041336183,0,0,1.5610195398330688,0,0,0.9172800183296204
2.042588948,0,0,1.5610195398330688,0,0,0.9937199950218201
2.043836769,0,0,1.5610195398330688,0,0,0.7644000053405762
2.045087312,0,0,1.5610195398330688,0,0,0.9172800183296204
2.046336855,0,0,1.5610195398330688,0,0,0.8408399820327759
2.047586861,0,0,1.5610195398330688,0,0,0.6879600286483765
2.048837127,0,0,1.5610195398330688,0,0,0.7644000053405762
2.050086892,0,0,1.5682021379470825,0,0,0.9937199950218201
2.05133688,0,0,1.5682021379470825,0,0,0.7644000053405762
2.052588812,0,0,1.5682021379470825,0,0,1.070159912109375
2.053853799,0,0,1.5682021379470825,0,0,0.8408399820327759
2.05508725,0,0,1.5682021379470825,0,0,0.9937199950218201
2.056337052,0,0,1.5682021379470825,0,0,0.8408399820327759
2.057586651,0,0,1.5682021379470825,0,0,0.5350799560546875
2.05883662,0,0,1.359906554222107,0,0,0.611519992351532
2.060086941,0,0,1.359906554222107,0,0,0.6879600286483765
2.061336799,0,0,1.359906554222107,0,0,0.6879600286483765
2.0625976010000002,0,0,1.359906554222107,0,0,0.7644000053405762
2.063836959,0,0,1.359906554222107,0,0,0.9172800183296204
2.06508678,0,0,1.359906554222107,0,0,0.5350799560546875
2.066338471,0,0,1.359906554222107,0,0,0.9172800183296204
2.067585533,0,0,1.359906554222107,0,0,0.9172800183296204
2.068837854,0,0,1.3239935636520386,0,0,0.7644000053405762
2.070086934,0,0,1.3239935636520386,0,0,0.6879600286483765
2.071336773,0,0,1.3239935636520386,0,0,0.8408399820327759
2.072587002,0,0,1.3239935636520386,0,0,0.611519992351532
2.073837082,0,0,1.3239935636520386,0,0,0.9172800183296204
2.075087329,0,0,1.3239935636520386,0,0,0.6879600286483765
2.076336594,0,0,1.3239935636520386,0,0,0.8408399820327759
2.077586896,0,0,1.3120225667953491,0,0,0.6879600286483765
2.078963494,0,0,1.3120225667953491,0,0,0.5350799560546875
2.080091908,0,0,1.3120225667953491,0,0,0.9172800183296204
2.0813371,0,0,1.3120225667953491,0,0,0.5350799560546875
2.0825869949999998,0,0,1.3120225667953491,0,0,0.8408399820327759
2.0838440560000002,0,0,1.3120225667953491,0,0,0.2293200045824051
2.085086914,0,0,1.3120225667953491,0,0,0.8408399820327759
2.086337087,0,0,1.2832920551300049,0,0,1.070159912109375
2.087586778,0,0,1.2832920551300049,0,0,0.9172800183296204
2.088836784,0,0,1.2832920551300049,0,0,0.8408399820327759
2.090086902,0,0,1.2832920551300049,0,0,0.8408399820327759
2.091335593,0,0,1.2832920551300049,0,0,0.6879600286483765
2.09258858,0,0,1.2832920551300049,0,0,0.9937199950218201
2.093837179,0,0,1.2832920551300049,0,0,0.9937199950218201
2.095086981,0,0,1.436521053314209,0,0,0.7644000053405762
2.096336839,0,0,1.436521053314209,0,0,0.9172800183296204
2.097586771,0,0,1.436521053314209,0,0,0.8408399820327759
2.098837,0,0,1.436521053314209,0,0,0.9937199950218201
2.100086969,0,0,1.436521053314209,0,0,0.9172800183296204
2.101337123,0,0,1.436521053314209,0,0,0.8408399820327759
2.102587222,0,0,1.436521053314209,0,0,0.7644000053405762
2.10383532,0,0,1.5203180313110352,0,0,0.8408399820327759
2.105087012,0,0,1.5203180313110352,0,0,0.8408399820327759
2.106336944,0,0,1.5203180313110352,0,0,0.7644000053405762
2.107591394,0,0,1.5203180313110352,0,0,0.6879600286483765
2.108837604,0,0,1.5203180313110352,0,0,0.6879600286483765
2.110087277,0,0,1.5203180313110352,0,0,0.9172800183296204
2.111337079,0,0,1.5203180313110352,0,0,0.611519992351532
2.112585882,0,0,1.5394717454910278,0,0,0.6879600286483765
2.113836091,0,0,1.5394717454910278,0,0,0.611519992351532
2.115086079,0,0,1.5394717454910278,0,0,0.7644000053405762
2.116336085,0,0,1.5394717454910278,0,0,0.5350799560546875
2.117587147,0,0,1.5394717454910278,0,0,0.9172800183296204
2.118836968,0,0,1.5394717454910278,0,0,0.8408399820327759
2.120086714,0,0,1.5394717454910278,0,0,0.9937199950218201
2.121336924,0,0,1.6041151285171509,0,0,0.9172800183296204
2.122588615,0,0,1.6041151285171509,0,0,0.4586400091648102
2.123836844,0,0,1.6041151285171509,0,0,0.9172800183296204
2.125086924,0,0,1.6041151285171509,0,0,0.9172800183296204
2.126337023,0,0,1.6041151285171509,0,0,1.1466000080108643
2.127586158,0,0,1.6041151285171509,0,0,0.9172800183296204
2.128836831,0,0,1.6041151285171509,0,0,0.9937199950218201
2.130087004,0,0,1.4676456451416016,0,0,0.9172800183296204
2.131340084,0,0,1.4676456451416016,0,0,1.2994799613952637
2.132610275,0,0,1.4676456451416016,0,0,1.1466000080108643
2.133866651,0,0,1.4676456451416016,0,0,0.9172800183296204
2.135110046,0,0,1.4676456451416016,0,0,0.9172800183296204
2.136338293,0,0,1.4676456451416016,0,0,0.6879600286483765
2.137587151,0,0,1.4676456451416016,0,0,0.9172800183296204
2.138837028,0,0,1.5514427423477173,0,0,0.611519992351532
2.140086923,0,0,1.5514427423477173,0,0,0.7644000053405762
2.141336799,0,0,1.5514427423477173,0,0,0.7644000053405762
2.142604046,0,0,1.5514427423477173,0,0,0.9937199950218201
2.143837108,0,0,1.5514427423477173,0,0,0.9172800183296204
2.145086892,0,0,1.5514427423477173,0,0,0.9172800183296204
2.146336787,0,0,1.5514427423477173,0,0,0.7644000053405762
2.147591552,0,0,1.5514427423477173,0,0,0.7644000053405762
2.148837151,0,0,1.5155296325683594,0,0,0.4586400091648102
2.150086842,0,0,1.5155296325683594,0,0,0.9937199950218201
2.151336922,0,0,1.5155296325683594,0,0,0.9172800183296204
2.152586799,0,0,1.5155296325683594,0,0,0.7644000053405762
2.153837138,0,0,1.5155296325683594,0,0,0.9937199950218201
2.155086663,0,0,1.5155296325683594,0,0,0.7644000053405762
2.156336854,0,0,1.5155296325683594,0,0,0.8408399820327759
2.1575867300000002,0,0,1.3886369466781616,0,0,0.611519992351532
2.158836625,0,0,1.3886369466781616,0,0,0.6879600286483765
2.160086057,0,0,1.3886369466781616,0,0,0.5350799560546875
2.161336934,0,0,1.3886369466781616,0,0,0.8408399820327759
2.1625869030000002,0,0,1.3886369466781616,0,0,0.5350799560546875
2.163836816,0,0,1.3886369466781616,0,0,1.1466000080108643
2.165086822,0,0,1.3886369466781616,0,0,0.7644000053405762
2.166336921,0,0,1.4053963422775269,0,0,0.7644000053405762
2.167586853,0,0,1.4053963422775269,0,0,0.5350799560546875
2.168837081,0,0,1.4053963422775269,0,0,1.1466000080108643
2.170091791,0,0,1.4053963422775269,0,0,0.9937199950218201
2.171337001,0,0,1.4053963422775269,0,0,0.7644000053405762
2.172586711,0,0,1.4053963422775269,0,0,0.9937199950218201
2.1738357170000002,0,0,1.4053963422775269,0,0,0.7644000053405762
2.175086964,0,0,1.3431471586227417,0,0,1.070159912109375
2.176336822,0,0,1.3431471586227417,0,0,0.6879600286483765
2.17758692,0,0,1.3431471586227417,0,0,0.8408399820327759
2.178836815,0,0,1.3431471586227417,0,0,0.8408399820327759
2.180086951,0,0,1.3431471586227417,0,0,0.5350799560546875
2.1813368459999998,0,0,1.3431471586227417,0,0,1.2994799613952637
2.182586834,0,0,1.3431471586227417,0,0,0.8408399820327759
2.183836766,0,0,1.3670891523361206,0,0,0.611519992351532
2.18508692,0,0,1.3670891523361206,0,0,0.7644000053405762
2.18634013,0,0,1.3670891523361206,0,0,0.7644000053405762
2.187587191,0,0,1.3670891523361206,0,0,0.9172800183296204
2.188837142,0,0,1.3670891523361206,0,0,0.9937199950218201
2.190086981,0,0,1.3670891523361206,0,0,0.9937199950218201
2.191337265,0,0,1.3670891523361206,0,0,0.9937199950218201
2.192586938,0,0,1.4269442558288574,0,0,0.5350799560546875
2.193836999,0,0,1.4269442558288574,0,0,0.9172800183296204
2.195086969,0,0,1.4269442558288574,0,0,0.9172800183296204
2.196334975,0,0,1.4269442558288574,0,0,1.070159912109375
2.197585666,0,0,1.4269442558288574,0,0,0.7644000053405762
2.198837246,0,0,1.4269442558288574,0,0,0.8408399820327759
2.200086882,0,0,1.4269442558288574,0,0,1.070159912109375
2.201336851,0,0,1.4269442558288574,0,0,0.611519992351532
2.202586783,0,0,1.522712230682373,0,0,0.9172800183296204
2.203836789,0,0,1.522712230682373,0,0,0.4586400091648102
2.205087184,0,0,1.522712230682373,0,0,1.1466000080108643
2.206336746,0,0,1.522712230682373,0,0,0.5350799560546875
2.207586826,0,0,1.522712230682373,0,0,0.8408399820327759
2.208839665,0,0,1.522712230682373,0,0,0.8408399820327759
2.210085449,0,0,1.5682021379470825,0,0,0.6879600286483765
2.211336825,0,0,1.5682021379470825,0,0,0.7644000053405762
2.212586998,0,0,1.5682021379470825,0,0,0.7644000053405762
2.213837208,0,0,1.5682021379470825,0,0,0.7644000053405762
2.215086992,0,0,1.5682021379470825,0,0,0.9172800183296204
2.216336942,0,0,1.5682021379470825,0,0,0.8408399820327759
2.217586782,0,0,1.5682021379470825,0,0,0.9937199950218201
2.21883688,0,0,1.6400281190872192,0,0,1.070159912109375
2.220086683,0,0,1.6400281190872192,0,0,0.9172800183296204
2.221336226,0,0,1.6400281190872192,0,0,0.8408399820327759
2.222596991,0,0,1.6400281190872192,0,0,0.5350799560546875
2.223836923,0,0,1.6400281190872192,0,0,0.8408399820327759
2.225086837,0,0,1.6400281190872192,0,0,0.9937199950218201
2.22633738,0,0,1.6400281190872192,0,0,0.9937199950218201
2.227586942,0,0,1.556231141090393,0,0,0.8408399820327759
2.228836744,0,0,1.556231141090393,0,0,0.8408399820327759
2.230086028,0,0,1.556231141090393,0,0,0.9937199950218201
2.231335719,0,0,1.556231141090393,0,0,0.9172800183296204
2.23258704,0,0,1.556231141090393,0,0,0.8408399820327759
2.233843213,0,0,1.556231141090393,0,0,0.9172800183296204
2.235087367,0,0,1.556231141090393,0,0,1.070159912109375
2.236336799,0,0,1.556231141090393,0,0,0.6879600286483765
2.237587083,0,0,1.644816517829895,0,0,0.8408399820327759
2.238836867,0,0,1.644816517829895,0,0,0.9937199950218201
2.240086854,0,0,1.644816517829895,0,0,0.8408399820327759
2.241337175,0,0,1.644816517829895,0,0,0.8408399820327759
2.24258557,0,0,1.644816517829895,0,0,0.6879600286483765
2.243835743,0,0,1.644816517829895,0,0,0.611519992351532
2.245087119,0,0,1.644816517829895,0,0,0.611519992351532
2.246336903,0,0,1.5298948287963867,0,0,0.9172800183296204
2.247590409,0,0,1.5298948287963867,0,0,0.6879600286483765
2.248837119,0,0,1.5298948287963867,0,0,0.9172800183296204
2.250086847,0,0,1.5298948287963867,0,0,0.6879600286483765
2.2513396869999998,0,0,1.5298948287963867,0,0,0.9172800183296204
2.252587212,0,0,1.5298948287963867,0,0,0.7644000053405762
2.25384818,0,0,1.5298948287963867,0,0,0.8408399820327759
2.255088316,0,0,1.455674648284912,0,0,0.8408399820327759
2.256337063,0,0,1.455674648284912,0,0,0.5350799560546875
2.257587014,0,0,1.455674648284912,0,0,0.7644000053405762
2.258836742,0,0,1.455674648284912,0,0,0.9172800183296204
2.260090748,0,0,1.455674648284912,0,0,1.1466000080108643
2.2613423839999998,0,0,1.455674648284912,0,0,0.7644000053405762
2.262585279,0,0,1.455674648284912,0,0,0.8408399820327759
2.263836544,0,0,1.4915876388549805,0,0,0.7644000053405762
2.265088643,0,0,1.4915876388549805,0,0,0.9172800183296204
2.26633689,0,0,1.4915876388549805,0,0,0.7644000053405762
2.267586896,0,0,1.4915876388549805,0,0,0.8408399820327759
2.268835791,0,0,1.4915876388549805,0,0,0.7644000053405762
2.270087297,0,0,1.4915876388549805,0,0,0.7644000053405762
2.27134071,0,0,1.4915876388549805,0,0,0.8408399820327759
2.272586827,0,0,1.45806884765625,0,0,0.5350799560546875
2.273836926,0,0,1.45806884765625,0,0,0.8408399820327759
2.275086877,0,0,1.45806884765625,0,0,0.7644000053405762
2.276336827,0,0,1.45806884765625,0,0,0.9172800183296204
2.277587167,0,0,1.45806884765625,0,0,0.3822000026702881
2.278836728,0,0,1.45806884765625,0,0,0.6879600286483765
2.280086864,0,0,1.45806884765625,0,0,0.4586400091648102
2.28133637,0,0,1.4221558570861816,0,0,0.611519992351532
2.282585135,0,0,1.4221558570861816,0,0,0.6879600286483765
2.283837253,0,0,1.4221558570861816,0,0,0.611519992351532
2.285087185,0,0,1.4221558570861816,0,0,0.6879600286483765
2.286340617,0,0,1.4221558570861816,0,0,0.611519992351532
2.287587012,0,0,1.4221558570861816,0,0,0.9172800183296204
2.288837036,0,0,1.4221558570861816,0,0,0.611519992351532
2.290086968,0,0,1.4724340438842773,0,0,0.6879600286483765
2.291336808,0,0,1.4724340438842773,0,0,0.6879600286483765
2.29258661,0,0,1.4724340438842773,0,0,1.223039984703064
2.293837061,0,0,1.4724340438842773,0,0,0.9172800183296204
2.295086141,0,0,1.4724340438842773,0,0,0.9172800183296204
2.29634298,0,0,1.4724340438842773,0,0,0.7644000053405762
2.29758719,0,0,1.4724340438842773,0,0,0.6879600286483765
2.298836807,0,0,1.4077905416488647,0,0,0.6879600286483765
2.300086758,0,0,1.4077905416488647,0,0,0.5350799560546875
2.301336782,0,0,1.4077905416488647,0,0,1.2994799613952637
2.302592899,0,0,1.4077905416488647,0,0,0.9172800183296204
2.30383635,0,0,1.4077905416488647,0,0,0.9172800183296204
2.305085875,0,0,1.4077905416488647,0,0,0.7644000053405762
2.306336955,0,0,1.4077905416488647,0,0,0.8408399820327759
2.307588757,0,0,1.580173134803772,0,0,0.611519992351532
2.3088378929999998,0,0,1.580173134803772,0,0,0.6879600286483765
2.3100869729999998,0,0,1.580173134803772,0,0,0.5350799560546875
2.311337146,0,0,1.580173134803772,0,0,0.611519992351532
2.312587096,0,0,1.580173134803772,0,0,0.7644000053405762
2.313836139,0,0,1.580173134803772,0,0,0.6879600286483765
2.31508572,0,0,1.580173134803772,0,0,0.9172800183296204
2.316335744,0,0,1.580173134803772,0,0,0.7644000053405762
2.317587102,0,0,1.6328455209732056,0,0,0.7644000053405762
2.318837053,0,0,1.6328455209732056,0,0,0.611519992351532
2.3200869109999998,0,0,1.6328455209732056,0,0,0.8408399820327759
2.321336935,0,0,1.6328455209732056,0,0,0.5350799560546875
2.322587515,0,0,1.6328455209732056,0,0,0.7644000053405762
2.323837225,0,0,1.6328455209732056,0,0,0.2293200045824051
2.325089713,0,0,1.6328455209732056,0,0,0.9937199950218201
2.326337293,0,0,1.4628572463989258,0,0,0.8408399820327759
2.327586929,0,0,1.4628572463989258,0,0,0.7644000053405762
2.32883699,0,0,1.4628572463989258,0,0,0.8408399820327759
2.330086904,0,0,1.4628572463989258,0,0,0.611519992351532
2.331336817,0,0,1.4628572463989258,0,0,0.7644000053405762
2.332586842,0,0,1.4628572463989258,0,0,0.5350799560546875
2.333837033,0,0,1.4628572463989258,0,0,1.070159912109375
2.335086539,0,0,1.5203180313110352,0,0,0.6879600286483765
2.336337064,0,0,1.5203180313110352,0,0,0.8408399820327759
2.337586829,0,0,1.5203180313110352,0,0,0.7644000053405762
2.338837095,0,0,1.5203180313110352,0,0,1.1466000080108643
2.340086897,0,0,1.5203180313110352,0,0,0.9172800183296204
2.341336792,0,0,1.5203180313110352,0,0,0.7644000053405762
2.342598927,0,0,1.5203180313110352,0,0,0.611519992351532
2.343838452,0,0,1.4173674583435059,0,0,0.7644000053405762
2.345087032,0,0,1.4173674583435059,0,0,0.9937199950218201
2.346336853,0,0,1.4173674583435059,0,0,0.611519992351532
2.34758597,0,0,1.4173674583435059,0,0,1.070159912109375
2.348837088,0,0,1.4173674583435059,0,0,0.9937199950218201
2.350086723,0,0,1.4173674583435059,0,0,1.070159912109375
2.351336859,0,0,1.4173674583435059,0,0,0.9172800183296204
2.352586847,0,0,1.4508862495422363,0,0,0.9172800183296204
2.353836945,0,0,1.4508862495422363,0,0,0.8408399820327759
2.355086803,0,0,1.4508862495422363,0,0,0.6879600286483765
2.356336828,0,0,1.4508862495422363,0,0,0.6879600286483765
2.357586815,0,0,1.4508862495422363,0,0,0.8408399820327759
2.358836933,0,0,1.4508862495422363,0,0,0.611519992351532
2.360086939,0,0,1.4508862495422363,0,0,0.611519992351532
2.361335908,0,0,1.4652514457702637,0,0,0.8408399820327759
2.362587192,0,0,1.4652514457702637,0,0,0.7644000053405762
2.363840031,0,0,1.4652514457702637,0,0,0.9172800183296204
2.365087185,0,0,1.4652514457702637,0,0,0.7644000053405762
2.366336784,0,0,1.4652514457702637,0,0,0.8408399820327759
2.367586901,0,0,1.4652514457702637,0,0,0.5350799560546875
2.368836926,0,0,1.4652514457702637,0,0,0.8408399820327759
2.3700868760000002,0,0,1.4652514457702637,0,0,0.7644000053405762
2.371336901,0,0,1.3646949529647827,0,0,0.7644000053405762
2.372586796,0,0,1.3646949529647827,0,0,0.9172800183296204
2.373838376,0,0,1.3646949529647827,0,0,0.611519992351532
2.375085734,0,0,1.3646949529647827,0,0,0.7644000053405762
2.376337129,0,0,1.3646949529647827,0,0,0.6879600286483765
2.37758682,0,0,1.3646949529647827,0,0,1.070159912109375
2.378836771,0,0,1.3646949529647827,0,0,0.6879600286483765
2.380086555,0,0,1.3886369466781616,0,0,0.7644000053405762
2.381336931,0,0,1.3886369466781616,0,0,1.070159912109375
2.382593382,0,0,1.3886369466781616,0,0,0.9172800183296204
2.383843351,0,0,1.3886369466781616,0,0,0.7644000053405762
2.385121116,0,0,1.3886369466781616,0,0,0.8408399820327759
2.386360789,0,0,1.3886369466781616,0,0,0.6879600286483765
2.387588702,0,0,1.3886369466781616,0,0,0.8408399820327759
2.388836616,0,0,1.4245500564575195,0,0,0.9172800183296204
2.390087177,0,0,1.4245500564575195,0,0,1.070159912109375
2.391337017,0,0,1.4245500564575195,0,0,0.9172800183296204
2.392586856,0,0,1.4245500564575195,0,0,0.611519992351532
2.393837751,0,0,1.4245500564575195,0,0,0.9172800183296204
2.395087035,0,0,1.4245500564575195,0,0,0.9937199950218201
2.39633706,0,0,1.4245500564575195,0,0,0.9172800183296204
2.397586936,0,0,1.534683346748352,0,0,0.5350799560546875
2.39883672,0,0,1.534683346748352,0,0,0.7644000053405762
2.400086837,0,0,1.534683346748352,0,0,0.4586400091648102
2.401336454,0,0,1.534683346748352,0,0,0.9937199950218201
2.402591368,0,0,1.534683346748352,0,0,0.9172800183296204
2.403836948,0,0,1.534683346748352,0,0,0.6879600286483765
2.405087139,0,0,1.534683346748352,0,0,0.6879600286483765
2.406336868,0,0,1.6184803247451782,0,0,0.6879600286483765
2.407586818,0,0,1.6184803247451782,0,0,0.8408399820327759
2.408836732,0,0,1.6184803247451782,0,0,0.7644000053405762
2.410086793,0,0,1.6184803247451782,0,0,0.9937199950218201
2.411336874,0,0,1.6184803247451782,0,0,0.611519992351532
2.412586657,0,0,1.6184803247451782,0,0,0.7644000053405762
2.413835497,0,0,1.6184803247451782,0,0,0.8408399820327759
2.415086818,0,0,1.623268723487854,0,0,0.8408399820327759
2.416340546,0,0,1.623268723487854,0,0,0.6879600286483765
2.417586774,0,0,1.623268723487854,0,0,0.8408399820327759
2.41883678,0,0,1.623268723487854,0,0,0.9172800183296204
2.420086953,0,0,1.623268723487854,0,0,0.6879600286483765
2.4213370149999998,0,0,1.623268723487854,0,0,0.9172800183296204
2.422596373,0,0,1.623268723487854,0,0,0.8408399820327759
2.423837916,0,0,1.558625340461731,0,0,0.7644000053405762
2.425087218,0,0,1.558625340461731,0,0,0.8408399820327759
2.426380872,0,0,1.558625340461731,0,0,0.9172800183296204
2.427587193,0,0,1.558625340461731,0,0,0.7644000053405762
2.428869995,0,0,1.558625340461731,0,0,0.5350799560546875
2.430122613,0,0,1.558625340461731,0,0,1.1466000080108643
2.431372156,0,0,1.558625340461731,0,0,0.8408399820327759
2.432641643,0,0,1.7357962131500244,0,0,0.611519992351532
2.433872501,0,0,1.7357962131500244,0,0,0.6879600286483765
2.435118618,0,0,1.7357962131500244,0,0,0.9172800183296204
2.436372532,0,0,1.7357962131500244,0,0,0.8408399820327759
2.437622001,0,0,1.7357962131500244,0,0,0.9172800183296204
2.438872081,0,0,1.7357962131500244,0,0,0.9172800183296204
2.440121995,0,0,1.7357962131500244,0,0,0.9937199950218201
2.441380371,0,0,1.7357962131500244,0,0,0.7644000053405762
2.442622599,0,0,1.4987702369689941,0,0,0.9172800183296204
2.44387218,0,0,1.4987702369689941,0,0,0.6879600286483765
2.445121926,0,0,1.4987702369689941,0,0,0.9172800183296204
2.4463705620000002,0,0,1.4987702369689941,0,0,0.7644000053405762
2.447627364,0,0,1.4987702369689941,0,0,0.8408399820327759
2.4488732779999998,0,0,1.4987702369689941,0,0,0.7644000053405762
2.450122117,0,0,1.4987702369689941,0,0,0.9937199950218201
2.451372512,0,0,1.4197616577148438,0,0,0.8408399820327759
2.452641648,0,0,1.4197616577148438,0,0,0.7644000053405762
2.453877821,0,0,1.4197616577148438,0,0,0.9172800183296204
2.45512192,0,0,1.4197616577148438,0,0,0.7644000053405762
2.456371833,0,0,1.4197616577148438,0,0,0.5350799560546875
2.457622191,0,0,1.4197616577148438,0,0,0.9172800183296204
2.45887103,0,0,1.4197616577148438,0,0,0.8408399820327759
2.46012537,0,0,1.3670891523361206,0,0,0.6879600286483765
2.461372135,0,0,1.3670891523361206,0,0,0.6879600286483765
2.46264016,0,0,1.3670891523361206,0,0,0.9937199950218201
2.463872055,0,0,1.3670891523361206,0,0,0.5350799560546875
2.465120542,0,0,1.3670891523361206,0,0,0.9937199950218201
2.466375715,0,0,1.3670891523361206,0,0,0.8408399820327759
2.46762248,0,0,1.3670891523361206,0,0,0.7644000053405762
2.468872061,0,0,1.335964560508728,0,0,0.611519992351532
2.47012203,0,0,1.335964560508728,0,0,0.9172800183296204
2.4713751840000002,0,0,1.335964560508728,0,0,0.8408399820327759
2.472640301,0,0,1.335964560508728,0,0,1.223039984703064
2.473873048,0,0,1.335964560508728,0,0,0.8408399820327759
2.475122387,0,0,1.335964560508728,0,0,0.7644000053405762
2.47637206,0,0,1.335964560508728,0,0,1.070159912109375
2.477619807,0,0,1.4077905416488647,0,0,0.7644000053405762
2.478872665,0,0,1.4077905416488647,0,0,0.6879600286483765
2.480126875,0,0,1.4077905416488647,0,0,0.9937199950218201
2.48137227,0,0,1.4077905416488647,0,0,0.7644000053405762
2.482621961,0,0,1.4077905416488647,0,0,0.6879600286483765
2.483870393,0,0,1.4077905416488647,0,0,0.611519992351532
2.485123121,0,0,1.4077905416488647,0,0,0.8408399820327759
2.486371868,0,0,1.522712230682373,0,0,0.9172800183296204
2.48762193,0,0,1.522712230682373,0,0,0.152879998087883
2.488873639,0,0,1.522712230682373,0,0,1.070159912109375
2.490124294,0,0,1.522712230682373,0,0,0.9937199950218201
2.491372337,0,0,1.522712230682373,0,0,1.1466000080108643
2.492642676,0,0,1.522712230682373,0,0,0.8408399820327759
2.493872664,0,0,1.522712230682373,0,0,0.7644000053405762
2.495119948,0,0,1.5658079385757446,0,0,1.1466000080108643
2.496377213,0,0,1.5658079385757446,0,0,0.611519992351532
2.497623608,0,0,1.5658079385757446,0,0,1.1466000080108643
2.498872447,0,0,1.5658079385757446,0,0,0.9172800183296204
2.500119787,0,0,1.5658079385757446,0,0,0.7644000053405762
2.501372608,0,0,1.5658079385757446,0,0,0.9172800183296204
2.5026221140000002,0,0,1.5658079385757446,0,0,0.9937199950218201
2.503872157,0,0,1.5658079385757446,0,0,0.8408399820327759
2.505121904,0,0,1.601720929145813,0,0,0.7644000053405762
2.506373743,0,0,1.601720929145813,0,0,0.9172800183296204
2.507623379,0,0,1.601720929145813,0,0,0.6879600286483765
2.508874292,0,0,1.601720929145813,0,0,0.8408399820327759
2.5101227980000003,0,0,1.601720929145813,0,0,0.9937199950218201
2.511372638,0,0,1.601720929145813,0,0,0.9937199950218201
2.5126439769999998,0,0,1.601720929145813,0,0,0.8408399820327759
2.513869687,0,0,1.5969325304031372,0,0,0.9172800183296204
2.515118193,0,0,1.5969325304031372,0,0,0.9172800183296204
2.51636807,0,0,1.5969325304031372,0,0,0.611519992351532
2.517652224,0,0,1.5969325304031372,0,0,0.5350799560546875
2.518888211,0,0,1.5969325304031372,0,0,0.8408399820327759
2.520123495,0,0,1.5969325304031372,0,0,0.9172800183296204
2.521372835,0,0,1.4532804489135742,0,0,0.9172800183296204
2.5226226929999997,0,0,1.4532804489135742,0,0,0.8408399820327759
2.52387068,0,0,1.4532804489135742,0,0,0.8408399820327759
2.525123094,0,0,1.4532804489135742,0,0,0.9172800183296204
2.526372766,0,0,1.4532804489135742,0,0,1.070159912109375
2.527626513,0,0,1.4532804489135742,0,0,0.9172800183296204
2.528873742,0,0,1.4532804489135742,0,0,0.7644000053405762
2.53013597,0,0,1.4532804489135742,0,0,0.8408399820327759
2.531381772,0,0,1.558625340461731,0,0,0.3822000026702881
2.5328067020000002,0,0,1.558625340461731,0,0,0.6879600286483765
2.533884729,0,0,1.558625340461731,0,0,0.9172800183296204
2.535140346,0,0,1.558625340461731,0,0,0.9937199950218201
2.536380371,0,0,1.558625340461731,0,0,0.8408399820327759
2.537631395,0,0,1.558625340461731,0,0,0.611519992351532
2.538889827,0,0,1.558625340461731,0,0,0.9172800183296204
2.540130241,0,0,1.4652514457702637,0,0,0.6879600286483765
2.5413810249999997,0,0,1.4652514457702637,0,0,0.6879600286483765
2.542648364,0,0,1.4652514457702637,0,0,0.6879600286483765
2.543884889,0,0,1.4652514457702637,0,0,0.7644000053405762
2.545129635,0,0,1.4652514457702637,0,0,0.9172800183296204
2.546380771,0,0,1.4652514457702637,0,0,0.9937199950218201
2.547637351,0,0,1.4652514457702637,0,0,0.9937199950218201
2.548878135,0,0,1.335964560508728,0,0,0.7644000053405762
2.550131197,0,0,1.335964560508728,0,0,0.6879600286483765
2.551380944,0,0,1.335964560508728,0,0,0.6879600286483765
2.552658135,0,0,1.335964560508728,0,0,0.9172800183296204
2.5538774,0,0,1.335964560508728,0,0,1.223039984703064
2.555131962,0,0,1.335964560508728,0,0,1.1466000080108643
2.556380746,0,0,1.335964560508728,0,0,0.6879600286483765
2.557642104,0,0,1.3862427473068237,0,0,0.9937199950218201
2.5588784799999997,0,0,1.3862427473068237,0,0,0.6879600286483765
2.560131134,0,0,1.3862427473068237,0,0,0.5350799560546875
2.5615893979999997,0,0,1.3862427473068237,0,0,0.9172800183296204
2.562634573,0,0,1.3862427473068237,0,0,0.9172800183296204
2.563882542,0,0,1.3862427473068237,0,0,0.6879600286483765
2.565130474,0,0,1.3862427473068237,0,0,0.8408399820327759
2.566382091,0,0,1.2617442607879639,0,0,0.8408399820327759
2.567639041,0,0,1.2617442607879639,0,0,1.1466000080108643
2.568878844,0,0,1.2617442607879639,0,0,0.6879600286483765
2.570131313,0,0,1.2617442607879639,0,0,0.9172800183296204
2.571380726,0,0,1.2617442607879639,0,0,0.8408399820327759
2.572661065,0,0,1.2617442607879639,0,0,0.5350799560546875
2.573880831,0,0,1.2617442607879639,0,0,0.9172800183296204
2.57513667,0,0,1.37906014919281,0,0,0.5350799560546875
2.576379047,0,0,1.37906014919281,0,0,0.9172800183296204
2.577632016,0,0,1.37906014919281,0,0,0.8408399820327759
2.578881337,0,0,1.37906014919281,0,0,0.6879600286483765
2.580134213,0,0,1.37906014919281,0,0,0.611519992351532
2.581380182,0,0,1.37906014919281,0,0,0.8408399820327759
2.582631596,0,0,1.37906014919281,0,0,0.9937199950218201
2.58388725,0,0,1.37906014919281,0,0,0.6879600286483765
2.585139108,0,0,1.3263877630233765,0,0,0.9937199950218201
