Time,AccelX1,AccelY1,AccelZ1,AccelX2,AccelY2,AccelZ2
0.000155535,0,0,0,0,0,0.5350799560546875
0.000542235,0,0,0,0,0,0.8408399820327759
0.000689307,0,0,0,0,0,0.8408399820327759
0.000835176,0,0,0,0,0,0.3822000026702881
0.000980619,0,0,0,0,0,0.3822000026702881
0.00112758,0,0,0,0,0,0.9937199950218201
0.001272856,0,0,0,0,0,0.9937199950218201
0.001418614,0,0,0,0,0,0.9937199950218201
0.001563816,0,0,0,0,0,0.152879998087883
0.001709851,0,0,0,0,0,0.152879998087883
0.001854368,0,0,0,0,0,0
0.0019997,0,0,0,0,0,0
0.002144902,0,0,0,0,0,0.9172800183296204
0.002290882,0,0,0,0,0,0.9172800183296204
0.002436232,0,0,0,0,0,1.223039984703064
0.002581916,0,0,0,0,0,1.223039984703064
0.002726896,0,0,0,0,0,1.223039984703064
0.002872931,0,0,0,0,0,0.611519992351532
0.003017763,0,0,0,0,0,0.611519992351532
0.00316302,0,0,0,0,0,1.605239987373352
0.003308482,0,0,0,0,0,1.605239987373352
0.003453906,0,0,0,0,0,0.9172800183296204
0.003599571,0,0,0,0,0,0.9172800183296204
0.003744643,0,0,0,0,0,0.2293200045824051
0.00388992,0,0,0,0,0,0.2293200045824051
0.004035288,0,0,0,0,0,1.1466000080108643
0.004818317,0,0,1.3910311460494995,0,0,0.7644000053405762
0.004972074,0,0,1.3910311460494995,0,0,0.7644000053405762
0.005118628,0,0,1.3910311460494995,0,0,-0.7644000053405762
0.005264182,0,0,1.3910311460494995,0,0,-0.7644000053405762
0.00540981,0,0,1.3910311460494995,0,0,1.375920057296753
0.005573401,0,0,1.3910311460494995,0,0,1.375920057296753
0.00571614,0,0,1.5083470344543457,0,0,1.2994799613952637
0.006555593,0,0,1.5083470344543457,0,0,1.223039984703064
0.006997237,0,0,1.3742717504501343,0,0,0.611519992351532
0.007145216,0,0,1.3742717504501343,0,0,0.611519992351532
0.007291178,0,0,1.3742717504501343,0,0,0.152879998087883
0.007436806,0,0,1.3742717504501343,0,0,0.152879998087883
0.007582767,0,0,1.3455413579940796,0,0,0.152879998087883
0.007728488,0,0,1.3455413579940796,0,0,1.070159912109375
0.007875745,0,0,1.3455413579940796,0,0,1.070159912109375
0.008115928,0,0,1.3455413579940796,0,0,0.3822000026702881
0.00839448,0,0,1.3455413579940796,0,0,0.6879600286483765
0.008540627,0,0,1.3455413579940796,0,0,0.6879600286483765
0.008686477,0,0,1.3862427473068237,0,0,-0.611519992351532
0.00883242,0,0,1.3862427473068237,0,0,-0.611519992351532
0.008977474,0,0,1.3862427473068237,0,0,0.2293200045824051
0.009122991,0,0,1.3862427473068237,0,0,0.2293200045824051
0.009268637,0,0,1.3862427473068237,0,0,0.8408399820327759
0.009414265,0,0,1.3862427473068237,0,0,0.8408399820327759
0.009559523,0,0,1.3862427473068237,0,0,1.070159912109375
0.009705429,0,0,1.599326729774475,0,0,1.070159912109375
0.009850723,0,0,1.599326729774475,0,0,1.070159912109375
0.009996499,0,0,1.599326729774475,0,0,0.5350799560546875
0.010142498,0,0,1.599326729774475,0,0,0.5350799560546875
0.010287533,0,0,1.599326729774475,0,0,1.605239987373352
0.010432846,0,0,1.599326729774475,0,0,1.605239987373352
0.010578567,0,0,1.599326729774475,0,0,0.2293200045824051
0.010724362,0,0,1.6376339197158813,0,0,0.2293200045824051
0.010870119,0,0,1.6376339197158813,0,0,0.9937199950218201
0.011015469,0,0,1.6376339197158813,0,0,0.9937199950218201
0.011161005,0,0,1.6376339197158813,0,0,0.5350799560546875
0.011316207,0,0,1.6376339197158813,0,0,0.5350799560546875
0.01145789,0,0,1.6376339197158813,0,0,0.5350799560546875
0.011733221,0,0,1.699883222579956,0,0,1.452359914779663
0.011905756,0,0,1.699883222579956,0,0,0.152879998087883
0.012830597,0,0,1.5514427423477173,0,0,0.7644000053405762
0.012998188,0,0,1.5514427423477173,0,0,0.7644000053405762
0.01315576,0,0,1.5514427423477173,0,0,0.9937199950218201
0.013312703,0,0,1.5514427423477173,0,0,0.9937199950218201
0.01346559,0,0,1.5514427423477173,0,0,0.611519992351532
0.013611866,0,0,1.699883222579956,0,0,0.611519992351532
0.01375668,0,0,1.699883222579956,0,0,0.3822000026702881
0.01390103,0,0,1.699883222579956,0,0,0.3822000026702881
0.014045139,0,0,1.699883222579956,0,0,0.3822000026702881
0.01419086,0,0,1.699883222579956,0,0,0.9937199950218201
0.014425987,0,0,1.699883222579956,0,0,0.9172800183296204
0.014741891,0,0,1.534683346748352,0,0,0.8408399820327759
0.014802927,0,0,1.534683346748352,0,0,0.8408399820327759
0.014949314,0,0,1.534683346748352,0,0,0.8408399820327759
0.015093628,0,0,1.534683346748352,0,0,0.7644000053405762
0.015238607,0,0,1.534683346748352,0,0,0.7644000053405762
0.015382717,0,0,1.534683346748352,0,0,0.611519992351532
0.015526586,0,0,1.534683346748352,0,0,0.611519992351532
0.015670825,0,0,1.45806884765625,0,0,0.611519992351532
0.015815138,0,0,1.45806884765625,0,0,0.9172800183296204
0.015959192,0,0,1.45806884765625,0,0,0.9172800183296204
0.016103302,0,0,1.45806884765625,0,0,0
0.016271114,0,0,1.45806884765625,0,0,0
0.016415724,0,0,1.45806884765625,0,0,0.6879600286483765
0.016559259,0,0,1.45806884765625,0,0,0.6879600286483765
0.016702999,0,0,1.501164436340332,0,0,1.223039984703064
0.016847164,0,0,1.501164436340332,0,0,1.223039984703064
0.01700068,0,0,1.501164436340332,0,0,0.5350799560546875
0.017140957,0,0,1.501164436340332,0,0,0.5350799560546875
0.017285492,0,0,1.501164436340332,0,0,0.5350799560546875
0.01742975,0,0,1.501164436340332,0,0,0.8408399820327759
0.017574118,0,0,1.501164436340332,0,0,0.8408399820327759
0.017718228,0,0,1.2976573705673218,0,0,0
0.017862374,0,0,1.2976573705673218,0,0,0
0.018006447,0,0,1.2976573705673218,0,0,1.452359914779663
0.018150853,0,0,1.2976573705673218,0,0,1.452359914779663
0.018295055,0,0,1.2976573705673218,0,0,0.9937199950218201
0.018439368,0,0,1.2976573705673218,0,0,0.9937199950218201
0.018583552,0,0,1.2976573705673218,0,0,0.9172800183296204
0.018727587,0,0,1.403002142906189,0,0,0.9172800183296204
0.018871641,0,0,1.403002142906189,0,0,0.9172800183296204
0.019015862,0,0,1.403002142906189,0,0,1.5288000106811523
0.019159915,0,0,1.403002142906189,0,0,1.5288000106811523
0.019304303,0,0,1.403002142906189,0,0,0
0.019449264,0,0,1.403002142906189,0,0,0
0.019593411,0,0,1.403002142906189,0,0,0.9937199950218201
0.019737687,0,0,1.4508862495422363,0,0,0.9937199950218201
0.01988163,0,0,1.4508862495422363,0,0,0.6879600286483765
0.020025702,0,0,1.4508862495422363,0,0,0.6879600286483765
0.020169886,0,0,1.4508862495422363,0,0,0.6879600286483765
0.020315125,0,0,1.4508862495422363,0,0,-0.305759996175766
0.020468716,0,0,1.4508862495422363,0,0,-0.305759996175766
0.02062514,0,0,1.4724340438842773,0,0,1.8345600366592407
0.020778286,0,0,1.4724340438842773,0,0,1.8345600366592407
0.020932636,0,0,1.4724340438842773,0,0,0.611519992351532
0.021466686,0,0,1.4724340438842773,0,0,0.9172800183296204
0.021497315,0,0,1.4724340438842773,0,0,-0.3822000026702881
0.021519204,0,0,1.4724340438842773,0,0,-0.3822000026702881
0.021545167,0,0,1.4724340438842773,0,0,-0.3822000026702881
0.021656443,0,0,1.5466543436050415,0,0,-0.3822000026702881
0.021801201,0,0,1.5466543436050415,0,0,-0.3822000026702881
0.021945162,0,0,1.5466543436050415,0,0,1.5288000106811523
0.022089086,0,0,1.5466543436050415,0,0,1.5288000106811523
0.02225164,0,0,1.5466543436050415,0,0,0
0.022378342,0,0,1.5466543436050415,0,0,0
0.022696283,0,0,1.5466543436050415,0,0,1.5288000106811523
0.022727727,0,0,1.6065093278884888,0,0,1.5288000106811523
0.022821393,0,0,1.6065093278884888,0,0,0.152879998087883
0.022967873,0,0,1.6065093278884888,0,0,0.152879998087883
0.023111964,0,0,1.6065093278884888,0,0,0.5350799560546875
0.023256073,0,0,1.6065093278884888,0,0,0.5350799560546875
0.023400275,0,0,1.6065093278884888,0,0,0.5350799560546875
0.023545052,0,0,1.6065093278884888,0,0,0.9172800183296204
0.02368892,0,0,1.5490485429763794,0,0,0.9172800183296204
0.023833122,0,0,1.5490485429763794,0,0,0.4586400091648102
0.023977102,0,0,1.5490485429763794,0,0,0.4586400091648102
0.024121304,0,0,1.5490485429763794,0,0,1.223039984703064
0.024312691,0,0,1.5490485429763794,0,0,1.223039984703064
0.024457819,0,0,1.5490485429763794,0,0,0
0.024602281,0,0,1.5490485429763794,0,0,0
0.024746705,0,0,1.5969325304031372,0,0,0.9937199950218201
0.024890981,0,0,1.5969325304031372,0,0,0.9937199950218201
0.025034831,0,0,1.5969325304031372,0,0,0.9937199950218201
0.025178941,0,0,1.5969325304031372,0,0,1.5288000106811523
0.025323124,0,0,1.5969325304031372,0,0,1.5288000106811523
0.025467345,0,0,1.5969325304031372,0,0,0.305759996175766
0.025611936,0,0,1.5969325304031372,0,0,0.305759996175766
0.025756138,0,0,1.5155296325683594,0,0,1.605239987373352
0.025900618,0,0,1.5155296325683594,0,0,1.605239987373352
0.026051283,0,0,1.5155296325683594,0,0,0.3822000026702881
0.026192503,0,0,1.5155296325683594,0,0,0.3822000026702881
0.02633628,0,0,1.5155296325683594,0,0,0.3822000026702881
0.026480482,0,0,1.5155296325683594,0,0,0.4586400091648102
0.026624425,0,0,1.4724340438842773,0,0,0.4586400091648102
0.026768867,0,0,1.4724340438842773,0,0,1.375920057296753
0.026913014,0,0,1.4724340438842773,0,0,1.375920057296753
0.027057086,0,0,1.4724340438842773,0,0,0.305759996175766
0.027201214,0,0,1.4724340438842773,0,0,0.305759996175766
0.027345194,0,0,1.4724340438842773,0,0,1.223039984703064
0.02748947,0,0,1.4724340438842773,0,0,1.223039984703064
0.027633321,0,0,1.4508862495422363,0,0,1.223039984703064
0.027777856,0,0,1.4508862495422363,0,0,0.6879600286483765
0.027921817,0,0,1.4508862495422363,0,0,0.6879600286483765
0.028065908,0,0,1.4508862495422363,0,0,0
0.028209888,0,0,1.4508862495422363,0,0,0
0.02835559,0,0,1.4508862495422363,0,0,0.7644000053405762
0.028499385,0,0,1.4508862495422363,0,0,0.7644000053405762
0.028643272,0,0,1.3431471586227417,0,0,0.611519992351532
0.028787512,0,0,1.3431471586227417,0,0,0.611519992351532
0.028931825,0,0,1.3431471586227417,0,0,1.1466000080108643
0.029075805,0,0,1.3431471586227417,0,0,1.1466000080108643
0.029220747,0,0,1.3431471586227417,0,0,1.1466000080108643
0.029364598,0,0,1.3431471586227417,0,0,1.9874399900436401
0.029508503,0,0,1.3431471586227417,0,0,1.9874399900436401
0.029652539,0,0,1.37906014919281,0,0,0.2293200045824051
0.029796945,0,0,1.37906014919281,0,0,0.2293200045824051
0.029941036,0,0,1.37906014919281,0,0,0.9172800183296204
0.030085145,0,0,1.37906014919281,0,0,0.9172800183296204
0.030229014,0,0,1.37906014919281,0,0,0.6879600286483765
0.030373049,0,0,1.37906014919281,0,0,0.6879600286483765
0.030520677,0,0,1.37906014919281,0,0,0.6879600286483765
0.030663028,0,0,1.4532804489135742,0,0,0.2293200045824051
0.030807322,0,0,1.4532804489135742,0,0,0.2293200045824051
0.03095171,0,0,1.4532804489135742,0,0,0.7644000053405762
0.031095912,0,0,1.4532804489135742,0,0,0.7644000053405762
0.031240021,0,0,1.4532804489135742,0,0,0.305759996175766
0.031384131,0,0,1.4532804489135742,0,0,0.305759996175766
0.031528129,0,0,1.4532804489135742,0,0,1.070159912109375
0.031672424,0,0,1.5514427423477173,0,0,1.070159912109375
0.031816404,0,0,1.5514427423477173,0,0,1.070159912109375
0.031960865,0,0,1.5514427423477173,0,0,2.14031982421875
0.032104882,0,0,1.5514427423477173,0,0,2.14031982421875
0.032312787,0,0,1.5514427423477173,0,0,0.0764399990439415
0.032404841,0,0,1.6304513216018677,0,0,0.0764399990439415
0.03298939,0,0,1.6304513216018677,0,0,0.9172800183296204
0.033134185,0,0,1.6304513216018677,0,0,0.9172800183296204
0.033280128,0,0,1.6304513216018677,0,0,0.9172800183296204
0.033426015,0,0,1.6304513216018677,0,0,0.9172800183296204
0.033571791,0,0,1.6304513216018677,0,0,1.1466000080108643
0.033717753,0,0,1.6424223184585571,0,0,1.1466000080108643
0.033863677,0,0,1.6424223184585571,0,0,0.9172800183296204
0.034009601,0,0,1.6424223184585571,0,0,0.9172800183296204
0.034155248,0,0,1.6424223184585571,0,0,0.9172800183296204
0.034301024,0,0,1.6424223184585571,0,0,0.9172800183296204
0.03446217,0,0,1.6424223184585571,0,0,0.611519992351532
0.034592873,0,0,1.6424223184585571,0,0,0.611519992351532
0.034738463,0,0,1.525106430053711,0,0,0.611519992351532
0.034884295,0,0,1.525106430053711,0,0,1.605239987373352
0.035029942,0,0,1.525106430053711,0,0,1.605239987373352
0.03517581,0,0,1.525106430053711,0,0,1.2994799613952637
0.035321624,0,0,1.525106430053711,0,0,1.2994799613952637
0.035473474,0,0,1.525106430053711,0,0,0
0.035616731,0,0,1.525106430053711,0,0,0
0.035762434,0,0,1.5729905366897583,0,0,1.375920057296753
0.035908043,0,0,1.5729905366897583,0,0,1.375920057296753
0.036053671,0,0,1.5729905366897583,0,0,0.8408399820327759
0.036199855,0,0,1.5729905366897583,0,0,0.8408399820327759
0.036346353,0,0,1.5729905366897583,0,0,0.8408399820327759
0.036490462,0,0,1.5729905366897583,0,0,1.8345600366592407
0.036634516,0,0,1.5729905366897583,0,0,1.8345600366592407
0.036779033,0,0,1.3718775510787964,0,0,0.3822000026702881
0.036922995,0,0,1.3718775510787964,0,0,0.3822000026702881
0.037067234,0,0,1.3718775510787964,0,0,1.223039984703064
0.037211658,0,0,1.3718775510787964,0,0,1.223039984703064
0.03735536,0,0,1.3718775510787964,0,0,1.1466000080108643
0.037499747,0,0,1.3718775510787964,0,0,1.1466000080108643
0.03764382,0,0,1.3718775510787964,0,0,1.1466000080108643
0.037787985,0,0,1.3718775510787964,0,0,0.152879998087883
0.037932076,0,0,1.3718775510787964,0,0,0.152879998087883
0.038076278,0,0,1.3718775510787964,0,0,1.223039984703064
0.038220795,0,0,1.3718775510787964,0,0,1.223039984703064
0.038365238,0,0,1.3718775510787964,0,0,0.3822000026702881
0.038509236,0,0,1.3718775510787964,0,0,0.3822000026702881
0.03865342,0,0,1.4867992401123047,0,0,1.2994799613952637
0.0387979,0,0,1.4867992401123047,0,0,1.2994799613952637
0.038941898,0,0,1.4867992401123047,0,0,1.2994799613952637
0.039086063,0,0,1.4867992401123047,0,0,1.9109998941421509
0.039230598,0,0,1.4867992401123047,0,0,1.9109998941421509
0.039374967,0,0,1.4867992401123047,0,0,0.4586400091648102
0.039519188,0,0,1.4867992401123047,0,0,0.4586400091648102
0.03966339,0,0,1.3215993642807007,0,0,1.2994799613952637
0.039807518,0,0,1.3215993642807007,0,0,1.2994799613952637
0.039956368,0,0,1.3215993642807007,0,0,0.611519992351532
0.041852477,0,0,1.4269442558288574,0,0,0.7644000053405762
0.042001308,0,0,1.4269442558288574,0,0,0.9172800183296204
0.042147603,0,0,1.4269442558288574,0,0,0.9172800183296204
0.042293564,0,0,1.4269442558288574,0,0,1.605239987373352
0.042439711,0,0,1.4269442558288574,0,0,1.605239987373352
0.042585561,0,0,1.4269442558288574,0,0,0.8408399820327759
0.042731337,0,0,1.4915876388549805,0,0,0.8408399820327759
0.042877076,0,0,1.4915876388549805,0,0,1.1466000080108643
0.043053037,0,0,1.4915876388549805,0,0,1.1466000080108643
0.043170425,0,0,1.4915876388549805,0,0,1.070159912109375
0.043314442,0,0,1.4915876388549805,0,0,1.070159912109375
0.043460681,0,0,1.4915876388549805,0,0,1.070159912109375
0.043606401,0,0,1.4915876388549805,0,0,1.2994799613952637
0.043752455,0,0,1.6496049165725708,0,0,1.2994799613952637
0.043898343,0,0,1.6496049165725708,0,0,1.452359914779663
0.044044137,0,0,1.6496049165725708,0,0,1.452359914779663
0.044189747,0,0,1.6496049165725708,0,0,1.6816799640655518
0.044336338,0,0,1.6496049165725708,0,0,1.6816799640655518
0.044481725,0,0,1.6496049165725708,0,0,0.9937199950218201
0.04462752,0,0,1.6496049165725708,0,0,0.9937199950218201
0.044773166,0,0,1.5921441316604614,0,0,0.9937199950218201
0.044918831,0,0,1.5921441316604614,0,0,0.2293200045824051
0.045064755,0,0,1.5921441316604614,0,0,0.2293200045824051
0.045210513,0,0,1.5921441316604614,0,0,1.375920057296753
0.045356215,0,0,1.5921441316604614,0,0,1.375920057296753
0.045502121,0,0,1.5921441316604614,0,0,0.305759996175766
0.045648267,0,0,1.5921441316604614,0,0,0.305759996175766
0.045794081,0,0,1.558625340461731,0,0,0.9172800183296204
0.045939709,0,0,1.558625340461731,0,0,0.9172800183296204
0.046196965,0,0,1.558625340461731,0,0,0.4586400091648102
0.046352815,0,0,1.558625340461731,0,0,0.4586400091648102
0.046495462,0,0,1.558625340461731,0,0,0
0.046641553,0,0,1.558625340461731,0,0,0
0.046787514,0,0,1.5610195398330688,0,0,1.605239987373352
0.04693342,0,0,1.5610195398330688,0,0,1.605239987373352
0.047079307,0,0,1.5610195398330688,0,0,1.223039984703064
0.047224991,0,0,1.5610195398330688,0,0,1.223039984703064
0.047370619,0,0,1.5610195398330688,0,0,0.5350799560546875
0.047516413,0,0,1.5610195398330688,0,0,0.5350799560546875
0.047662245,0,0,1.5610195398330688,0,0,0.5350799560546875
0.047808206,0,0,1.37906014919281,0,0,2.6754000186920166
0.047953853,0,0,1.37906014919281,0,0,2.6754000186920166
0.048099629,0,0,1.37906014919281,0,0,1.070159912109375
0.048245831,0,0,1.37906014919281,0,0,1.070159912109375
0.048389755,0,0,1.37906014919281,0,0,0.4586400091648102
0.048533809,0,0,1.37906014919281,0,0,0.4586400091648102
0.048678289,0,0,1.3527239561080933,0,0,1.070159912109375
0.048822491,0,0,1.3527239561080933,0,0,1.070159912109375
0.048966916,0,0,1.3527239561080933,0,0,1.070159912109375
0.04911121,0,0,1.3527239561080933,0,0,0.8408399820327759
0.049255135,0,0,1.3527239561080933,0,0,0.8408399820327759
0.049399633,0,0,1.3527239561080933,0,0,0.2293200045824051
0.049543798,0,0,1.3527239561080933,0,0,0.2293200045824051
0.049688093,0,0,1.3958195447921753,0,0,1.375920057296753
0.04983285,0,0,1.3958195447921753,0,0,1.375920057296753
0.049976738,0,0,1.3958195447921753,0,0,0.5350799560546875
0.050120791,0,0,1.3958195447921753,0,0,0.5350799560546875
0.050264994,0,0,1.3958195447921753,0,0,0.5350799560546875
0.050409159,0,0,1.3958195447921753,0,0,1.223039984703064
0.050553416,0,0,1.3958195447921753,0,0,1.223039984703064
0.050697433,0,0,1.3048399686813354,0,0,1.452359914779663
0.050845913,0,0,1.3048399686813354,0,0,1.452359914779663
0.05098806,0,0,1.3048399686813354,0,0,1.758120059967041
0.051132151,0,0,1.3048399686813354,0,0,1.758120059967041
0.051276297,0,0,1.3048399686813354,0,0,0.5350799560546875
0.051420333,0,0,1.3048399686813354,0,0,0.5350799560546875
0.051564572,0,0,1.3048399686813354,0,0,0.5350799560546875
0.051708514,0,0,1.4891934394836426,0,0,1.070159912109375
0.051853161,0,0,1.4891934394836426,0,0,1.070159912109375
0.051997474,0,0,1.4891934394836426,0,0,0.152879998087883
0.052141676,0,0,1.4891934394836426,0,0,0.152879998087883
0.052289638,0,0,1.4891934394836426,0,0,1.375920057296753
0.052433062,0,0,1.4891934394836426,0,0,1.375920057296753
0.052577153,0,0,1.4891934394836426,0,0,1.070159912109375
0.052721225,0,0,1.5155296325683594,0,0,1.070159912109375
0.052865576,0,0,1.5155296325683594,0,0,0.5350799560546875
0.053010037,0,0,1.5155296325683594,0,0,0.5350799560546875
0.053154202,0,0,1.5155296325683594,0,0,0.5350799560546875
0.05329846,0,0,1.5155296325683594,0,0,-0.5350799560546875
0.053442495,0,0,1.5155296325683594,0,0,-0.5350799560546875
0.053586753,0,0,1.5155296325683594,0,0,1.452359914779663
0.05373101,0,0,1.601720929145813,0,0,1.452359914779663
0.053875138,0,0,1.601720929145813,0,0,0
0.054019822,0,0,1.601720929145813,0,0,0
0.054163894,0,0,1.601720929145813,0,0,0.9172800183296204
0.054308171,0,0,1.601720929145813,0,0,0.9172800183296204
0.054452243,0,0,1.601720929145813,0,0,0.9172800183296204
0.054596538,0,0,1.601720929145813,0,0,1.6816799640655518
0.054740777,0,0,1.599326729774475,0,0,1.6816799640655518
0.05488472,0,0,1.599326729774475,0,0,0.4586400091648102
0.055029292,0,0,1.599326729774475,0,0,0.4586400091648102
0.055173328,0,0,1.599326729774475,0,0,1.8345600366592407
0.055321567,0,0,1.599326729774475,0,0,1.8345600366592407
0.055463806,0,0,1.599326729774475,0,0,1.1466000080108643
0.055607952,0,0,1.599326729774475,0,0,1.1466000080108643
0.055752154,0,0,1.5298948287963867,0,0,1.1466000080108643
0.055896394,0,0,1.5298948287963867,0,0,-0.4586400091648102
0.056040966,0,0,1.5298948287963867,0,0,-0.4586400091648102
0.056185279,0,0,1.5298948287963867,0,0,1.070159912109375
0.056575164,0,0,1.5298948287963867,0,0,0.7644000053405762
0.056723199,0,0,1.6184803247451782,0,0,0.7644000053405762
0.056868846,0,0,1.6184803247451782,0,0,0.9172800183296204
0.057014659,0,0,1.6184803247451782,0,0,0.9172800183296204
0.057160768,0,0,1.6184803247451782,0,0,0.0764399990439415
0.057306952,0,0,1.6184803247451782,0,0,0.0764399990439415
0.057452191,0,0,1.6184803247451782,0,0,0.6879600286483765
0.057597375,0,0,1.6184803247451782,0,0,0.6879600286483765
0.05774291,0,0,1.522712230682373,0,0,0.9172800183296204
0.057888464,0,0,1.522712230682373,0,0,0.9172800183296204
0.058033981,0,0,1.522712230682373,0,0,1.070159912109375
0.058180035,0,0,1.522712230682373,0,0,1.070159912109375
0.058325496,0,0,1.522712230682373,0,0,1.070159912109375
0.058470994,0,0,1.522712230682373,0,0,1.2994799613952637
0.058658011,0,0,1.522712230682373,0,0,1.2994799613952637
0.058804565,0,0,1.4077905416488647,0,0,1.1466000080108643
0.058950267,0,0,1.4077905416488647,0,0,1.1466000080108643
0.059095654,0,0,1.4077905416488647,0,0,1.758120059967041
0.059241856,0,0,1.4077905416488647,0,0,1.758120059967041
0.059387188,0,0,1.4077905416488647,0,0,1.1466000080108643
0.059532649,0,0,1.4077905416488647,0,0,1.1466000080108643
0.059678148,0,0,1.4077905416488647,0,0,0.9172800183296204
0.05983472,0,0,1.3886369466781616,0,0,0.9172800183296204
0.059969311,0,0,1.3886369466781616,0,0,0.9172800183296204
0.060119754,0,0,1.3886369466781616,0,0,0.8408399820327759
0.060265252,0,0,1.3886369466781616,0,0,0.8408399820327759
0.060410602,0,0,1.3886369466781616,0,0,1.5288000106811523
0.060556064,0,0,1.3886369466781616,0,0,1.5288000106811523
0.060701784,0,0,1.455674648284912,0,0,1.375920057296753
0.060847209,0,0,1.455674648284912,0,0,1.375920057296753
0.060992781,0,0,1.455674648284912,0,0,0.9172800183296204
0.061138279,0,0,1.455674648284912,0,0,0.9172800183296204
0.061284093,0,0,1.455674648284912,0,0,0.611519992351532
0.061429591,0,0,1.455674648284912,0,0,0.611519992351532
0.061575163,0,0,1.455674648284912,0,0,0.611519992351532
0.061720588,0,0,1.3287819623947144,0,0,0.305759996175766
0.061866327,0,0,1.3287819623947144,0,0,0.305759996175766
0.062011881,0,0,1.3287819623947144,0,0,-0.152879998087883
0.062157157,0,0,1.3287819623947144,0,0,-0.152879998087883
0.062303192,0,0,1.3287819623947144,0,0,1.1466000080108643
0.06254593,0,0,1.3287819623947144,0,0,1.1466000080108643
0.062695892,0,0,1.3287819623947144,0,0,0.6879600286483765
0.06284339,0,0,1.3431471586227417,0,0,0.6879600286483765
0.062991296,0,0,1.3431471586227417,0,0,1.5288000106811523
0.063139961,0,0,1.3431471586227417,0,0,1.5288000106811523
0.063287052,0,0,1.3431471586227417,0,0,0.8408399820327759
0.063434624,0,0,1.3431471586227417,0,0,0.8408399820327759
0.063581974,0,0,1.3431471586227417,0,0,0.4586400091648102
0.063729399,0,0,1.4532804489135742,0,0,0.4586400091648102
0.064186968,0,0,1.4532804489135742,0,0,0.7644000053405762
0.06433791,0,0,1.4532804489135742,0,0,0.7644000053405762
0.064483464,0,0,1.4532804489135742,0,0,0.7644000053405762
0.06462837,0,0,1.4532804489135742,0,0,-0.611519992351532
0.064774239,0,0,1.5490485429763794,0,0,-0.611519992351532
0.064919737,0,0,1.5490485429763794,0,0,1.1466000080108643
0.065075717,0,0,1.5490485429763794,0,0,1.1466000080108643
0.065216789,0,0,1.5490485429763794,0,0,0.9172800183296204
0.065362436,0,0,1.5490485429763794,0,0,0.9172800183296204
0.065508138,0,0,1.5490485429763794,0,0,0.3822000026702881
0.065653673,0,0,1.5490485429763794,0,0,0.3822000026702881
0.065799301,0,0,1.6927006244659424,0,0,1.5288000106811523
0.065944855,0,0,1.6927006244659424,0,0,1.5288000106811523
0.066090391,0,0,1.6927006244659424,0,0,1.5288000106811523
0.066235963,0,0,1.6927006244659424,0,0,-0.5350799560546875
0.066381739,0,0,1.6927006244659424,0,0,-0.5350799560546875
0.066527423,0,0,1.6927006244659424,0,0,-0.305759996175766
0.06667294,0,0,1.6927006244659424,0,0,-0.305759996175766
0.066818383,0,0,1.580173134803772,0,0,0.7644000053405762
0.066963992,0,0,1.580173134803772,0,0,0.7644000053405762
0.06710962,0,0,1.580173134803772,0,0,1.223039984703064
0.067255285,0,0,1.580173134803772,0,0,1.223039984703064
0.067400969,0,0,1.580173134803772,0,0,1.223039984703064
0.067546745,0,0,1.580173134803772,0,0,0.6879600286483765
0.067692428,0,0,1.580173134803772,0,0,0.6879600286483765
0.067837982,0,0,1.6376339197158813,0,0,1.9109998941421509
0.06798337,0,0,1.6376339197158813,0,0,1.9109998941421509
0.068128849,0,0,1.6376339197158813,0,0,0.305759996175766
0.068276514,0,0,1.6376339197158813,0,0,0.305759996175766
0.068421865,0,0,1.6376339197158813,0,0,1.758120059967041
0.068567511,0,0,1.6376339197158813,0,0,1.758120059967041
0.068713454,0,0,1.580173134803772,0,0,0.9172800183296204
0.068858952,0,0,1.580173134803772,0,0,0.9172800183296204
0.069004562,0,0,1.580173134803772,0,0,0.9172800183296204
0.06915019,0,0,1.580173134803772,0,0,0.9937199950218201
0.06929554,0,0,1.580173134803772,0,0,0.9937199950218201
0.069440983,0,0,1.580173134803772,0,0,0.4586400091648102
0.069606574,0,0,1.580173134803772,0,0,0.4586400091648102
0.069734406,0,0,1.4676456451416016,0,0,0
0.069879626,0,0,1.4676456451416016,0,0,0
0.070025124,0,0,1.4676456451416016,0,0,0.305759996175766
0.070170438,0,0,1.4676456451416016,0,0,0.305759996175766
0.070315973,0,0,1.4676456451416016,0,0,0.305759996175766
0.070461527,0,0,1.4676456451416016,0,0,1.223039984703064
0.070607248,0,0,1.4676456451416016,0,0,1.223039984703064
0.07075319,0,0,1.4437036514282227,0,0,0.3822000026702881
0.070898707,0,0,1.4437036514282227,0,0,0.3822000026702881
0.071044669,0,0,1.4437036514282227,0,0,1.452359914779663
0.071190167,0,0,1.4437036514282227,0,0,1.452359914779663
0.071335684,0,0,1.4437036514282227,0,0,0.7644000053405762
0.071481256,0,0,1.4437036514282227,0,0,0.7644000053405762
0.071626755,0,0,1.4437036514282227,0,0,0.9937199950218201
0.071772846,0,0,1.41257905960083,0,0,0.9937199950218201
0.0719184,0,0,1.41257905960083,0,0,0.9937199950218201
0.072063991,0,0,1.41257905960083,0,0,1.070159912109375
0.072209452,0,0,1.41257905960083,0,0,1.070159912109375
0.072355691,0,0,1.41257905960083,0,0,2.14031982421875
0.072501375,0,0,1.41257905960083,0,0,2.14031982421875
0.072646706,0,0,1.41257905960083,0,0,1.1466000080108643
0.072792594,0,0,1.316810965538025,0,0,1.1466000080108643
0.072938185,0,0,1.316810965538025,0,0,0.7644000053405762
0.073083775,0,0,1.316810965538025,0,0,0.7644000053405762
0.073229441,0,0,1.316810965538025,0,0,0.7644000053405762
0.073375161,0,0,1.316810965538025,0,0,0.6879600286483765
0.07352053,0,0,1.316810965538025,0,0,0.6879600286483765
0.07366601,0,0,1.316810965538025,0,0,0.3822000026702881
0.073811453,0,0,1.3982137441635132,0,0,0.3822000026702881
0.073957506,0,0,1.3982137441635132,0,0,0
0.074106634,0,0,1.3982137441635132,0,0,0
0.074250355,0,0,1.3982137441635132,0,0,0.611519992351532
0.074395816,0,0,1.3982137441635132,0,0,0.611519992351532
0.074541444,0,0,1.3982137441635132,0,0,0.5350799560546875
0.074687054,0,0,1.3982137441635132,0,0,0.5350799560546875
0.074832534,0,0,1.4437036514282227,0,0,0.5350799560546875
0.074978088,0,0,1.4437036514282227,0,0,-0.611519992351532
0.07512366,0,0,1.4437036514282227,0,0,-0.611519992351532
0.075269418,0,0,1.4437036514282227,0,0,0.152879998087883
0.075414749,0,0,1.4437036514282227,0,0,0.152879998087883
0.075560414,0,0,1.4437036514282227,0,0,0.9172800183296204
0.075706209,0,0,1.4437036514282227,0,0,0.9172800183296204
0.075851615,0,0,1.5179238319396973,0,0,0.9172800183296204
0.075997558,0,0,1.5179238319396973,0,0,0.9172800183296204
0.076142963,0,0,1.5179238319396973,0,0,0.9172800183296204
0.076289943,0,0,1.5179238319396973,0,0,0.8408399820327759
0.076434664,0,0,1.5179238319396973,0,0,0.8408399820327759
0.076580181,0,0,1.5179238319396973,0,0,2.6754000186920166
0.076725568,0,0,1.5179238319396973,0,0,2.6754000186920166
0.076872344,0,0,1.6376339197158813,0,0,1.2994799613952637
0.077016806,0,0,1.6376339197158813,0,0,1.2994799613952637
0.077161063,0,0,1.6376339197158813,0,0,0.2293200045824051
0.077305228,0,0,1.6376339197158813,0,0,0.2293200045824051
0.077449486,0,0,1.6376339197158813,0,0,0.611519992351532
0.077593651,0,0,1.6376339197158813,0,0,0.611519992351532
0.077737853,0,0,1.4173674583435059,0,0,0.611519992351532
0.077882,0,0,1.4173674583435059,0,0,2.2932000160217285
0.07802635,0,0,1.4173674583435059,0,0,2.2932000160217285
0.078170756,0,0,1.4173674583435059,0,0,0.305759996175766
0.078314995,0,0,1.4173674583435059,0,0,0.305759996175766
0.078459234,0,0,1.4173674583435059,0,0,1.223039984703064
0.078606732,0,0,1.4173674583435059,0,0,1.223039984703064
0.078749286,0,0,1.647210717201233,0,0,1.375920057296753
0.078899451,0,0,1.647210717201233,0,0,1.375920057296753
0.079037783,0,0,1.647210717201233,0,0,1.375920057296753
0.0791823,0,0,1.647210717201233,0,0,1.605239987373352
0.079326187,0,0,1.647210717201233,0,0,1.605239987373352
0.079470278,0,0,1.647210717201233,0,0,1.5288000106811523
0.079614388,0,0,1.647210717201233,0,0,1.5288000106811523
0.079758664,0,0,1.558625340461731,0,0,0.4586400091648102
0.079902829,0,0,1.558625340461731,0,0,0.4586400091648102
0.080047012,0,0,1.558625340461731,0,0,1.1466000080108643
0.080191566,0,0,1.558625340461731,0,0,1.1466000080108643
0.080338842,0,0,1.558625340461731,0,0,1.1466000080108643
0.0804846,0,0,1.558625340461731,0,0,0.611519992351532
0.080630136,0,0,1.558625340461731,0,0,0.611519992351532
0.080775856,0,0,1.3982137441635132,0,0,1.223039984703064
0.080921392,0,0,1.3982137441635132,0,0,1.223039984703064
0.081093556,0,0,1.3982137441635132,0,0,1.758120059967041
0.081214129,0,0,1.3982137441635132,0,0,1.758120059967041
0.081358516,0,0,1.3982137441635132,0,0,1.452359914779663
0.081504237,0,0,1.3982137441635132,0,0,1.452359914779663
0.08164968,0,0,1.3982137441635132,0,0,0.8408399820327759
0.081795197,0,0,1.5466543436050415,0,0,0.8408399820327759
0.081941084,0,0,1.5466543436050415,0,0,0.8408399820327759
0.082086601,0,0,1.5466543436050415,0,0,1.9109998941421509
0.082232469,0,0,1.5466543436050415,0,0,1.9109998941421509
0.082378264,0,0,1.5466543436050415,0,0,0.5350799560546875
0.082523651,0,0,1.5466543436050415,0,0,0.5350799560546875
0.082669168,0,0,1.5466543436050415,0,0,0.9937199950218201
0.082814722,0,0,1.3072341680526733,0,0,0.9937199950218201
0.082960276,0,0,1.3072341680526733,0,0,0.9172800183296204
0.083109682,0,0,1.3072341680526733,0,0,0.9172800183296204
0.083254014,0,0,1.3072341680526733,0,0,0.9172800183296204
0.083399549,0,0,1.3072341680526733,0,0,0.9937199950218201
0.083545066,0,0,1.3072341680526733,0,0,0.9937199950218201
0.083690583,0,0,1.3072341680526733,0,0,0.5350799560546875
0.083836377,0,0,1.3958195447921753,0,0,0.5350799560546875
0.083981876,0,0,1.3958195447921753,0,0,9.631440162658691
0.084127559,0,0,1.3958195447921753,0,0,-0.152879998087883
0.084274336,0,0,1.3958195447921753,0,0,1.223039984703064
0.084419723,0,0,1.3958195447921753,0,0,1.223039984703064
0.08456524,0,0,1.3958195447921753,0,0,0.7644000053405762
0.084710571,0,0,1.3958195447921753,0,0,0.7644000053405762
0.08485631,0,0,1.50355863571167,0,0,0.7644000053405762
0.085002013,0,0,1.50355863571167,0,0,0.305759996175766
0.085147492,0,0,1.50355863571167,0,0,0.305759996175766
0.085293102,0,0,1.50355863571167,0,0,1.452359914779663
0.085439156,0,0,1.50355863571167,0,0,1.452359914779663
0.08558471,0,0,1.50355863571167,0,0,1.223039984703064
0.085730578,0,0,1.50355863571167,0,0,1.223039984703064
0.085875892,0,0,1.6041151285171509,0,0,0.9172800183296204
0.086021649,0,0,1.6041151285171509,0,0,0.9172800183296204
0.086167092,0,0,1.6041151285171509,0,0,0.9172800183296204
0.086312683,0,0,1.6041151285171509,0,0,0.3822000026702881
0.086458589,0,0,1.6041151285171509,0,0,0.3822000026702881
0.086604272,0,0,1.6041151285171509,0,0,1.2994799613952637
0.08674966,0,0,1.723825216293335,0,0,1.2994799613952637
0.086895399,0,0,1.723825216293335,0,0,0
0.087040934,0,0,1.723825216293335,0,0,0
0.087186618,0,0,1.723825216293335,0,0,0.6879600286483765
0.087332005,0,0,1.723825216293335,0,0,0.6879600286483765
0.087477892,0,0,1.723825216293335,0,0,0.7644000053405762
0.087627076,0,0,1.723825216293335,0,0,0.7644000053405762
0.087771,0,0,1.6376339197158813,0,0,0.7644000053405762
0.087916387,0,0,1.6376339197158813,0,0,0
0.088062034,0,0,1.6376339197158813,0,0,0
0.08820768,0,0,1.6376339197158813,0,0,0.3822000026702881
0.088353882,0,0,1.6376339197158813,0,0,0.3822000026702881
0.088499659,0,0,1.6376339197158813,0,0,0.0764399990439415
0.088645231,0,0,1.6376339197158813,0,0,0.0764399990439415
0.088790859,0,0,1.6160861253738403,0,0,0.3822000026702881
0.088936357,0,0,1.6160861253738403,0,0,0.3822000026702881
0.08908193,0,0,1.6160861253738403,0,0,0.7644000053405762
0.089227613,0,0,1.6160861253738403,0,0,0.7644000053405762
0.089373167,0,0,1.6160861253738403,0,0,0.7644000053405762
0.089518832,0,0,1.6160861253738403,0,0,0
0.089664664,0,0,1.6160861253738403,0,0,0
0.089810255,0,0,1.6400281190872192,0,0,1.070159912109375
0.089955735,0,0,1.6400281190872192,0,0,1.070159912109375
0.090101456,0,0,1.6400281190872192,0,0,1.758120059967041
0.090246991,0,0,1.6400281190872192,0,0,1.758120059967041
0.090392767,0,0,1.6400281190872192,0,0,1.223039984703064
0.090538321,0,0,1.6400281190872192,0,0,1.223039984703064
0.090684393,0,0,1.6400281190872192,0,0,1.223039984703064
0.09083004,0,0,1.4293384552001953,0,0,1.2994799613952637
0.090975557,0,0,1.4293384552001953,0,0,1.2994799613952637
0.091121185,0,0,1.4293384552001953,0,0,1.2994799613952637
0.091266628,0,0,1.4293384552001953,0,0,1.2994799613952637
0.091412274,0,0,1.4293384552001953,0,0,0.4586400091648102
0.091557736,0,0,1.4293384552001953,0,0,0.4586400091648102
0.091703549,0,0,1.4293384552001953,0,0,0.5350799560546875
0.091849251,0,0,1.3934253454208374,0,0,0.5350799560546875
0.091994971,0,0,1.3934253454208374,0,0,0.4586400091648102
0.092144359,0,0,1.3934253454208374,0,0,0.4586400091648102
0.092334394,0,0,1.3934253454208374,0,0,1.1466000080108643
0.092482577,0,0,1.3934253454208374,0,0,1.1466000080108643
0.092628742,0,0,1.3934253454208374,0,0,1.1466000080108643
0.092774722,0,0,1.434126853942871,0,0,1.223039984703064
0.092920683,0,0,1.434126853942871,0,0,1.223039984703064
0.0930662,0,0,1.434126853942871,0,0,0.0764399990439415
0.093212199,0,0,1.434126853942871,0,0,0.0764399990439415
0.093357864,0,0,1.434126853942871,0,0,1.2994799613952637
0.093503621,0,0,1.434126853942871,0,0,1.2994799613952637
0.09364936,0,0,1.434126853942871,0,0,1.2994799613952637
0.093795303,0,0,1.316810965538025,0,0,1.2994799613952637
0.09394132,0,0,1.316810965538025,0,0,1.070159912109375
0.094086911,0,0,1.316810965538025,0,0,1.070159912109375
0.09423278,0,0,1.316810965538025,0,0,1.070159912109375
0.094378574,0,0,1.316810965538025,0,0,1.1466000080108643
0.094524276,0,0,1.316810965538025,0,0,1.1466000080108643
0.094669793,0,0,1.316810965538025,0,0,1.452359914779663
0.094815958,0,0,1.414973258972168,0,0,1.452359914779663
0.094961642,0,0,1.414973258972168,0,0,1.452359914779663
0.095107344,0,0,1.414973258972168,0,0,1.452359914779663
0.095253231,0,0,1.414973258972168,0,0,0.8408399820327759
0.095399063,0,0,1.414973258972168,0,0,0.8408399820327759
0.095544728,0,0,1.414973258972168,0,0,0.8408399820327759
0.095690375,0,0,1.414973258972168,0,0,0.7644000053405762
0.095836391,0,0,1.3646949529647827,0,0,0.7644000053405762
0.095982297,0,0,1.3646949529647827,0,0,1.2994799613952637
0.09612811,0,0,1.3646949529647827,0,0,1.2994799613952637
0.096275201,0,0,1.3646949529647827,0,0,0.6879600286483765
0.096421107,0,0,1.3646949529647827,0,0,0.6879600286483765
0.096566939,0,0,1.3646949529647827,0,0,0.3822000026702881
0.096716993,0,0,1.3646949529647827,0,0,0.3822000026702881
0.096860843,0,0,1.5753847360610962,0,0,0.611519992351532
0.097006952,0,0,1.5753847360610962,0,0,0.611519992351532
0.097152654,0,0,1.5753847360610962,0,0,0.611519992351532
0.097298394,0,0,1.5753847360610962,0,0,0.305759996175766
0.097444281,0,0,1.5753847360610962,0,0,0.305759996175766
0.097590113,0,0,1.5753847360610962,0,0,1.5288000106811523
0.097735648,0,0,1.5753847360610962,0,0,1.5288000106811523
0.097881313,0,0,1.656787633895874,0,0,0.8408399820327759
0.098027404,0,0,1.656787633895874,0,0,0.8408399820327759
0.09817305,0,0,1.656787633895874,0,0,0.611519992351532
0.098318734,0,0,1.656787633895874,0,0,0.611519992351532
0.098464566,0,0,1.656787633895874,0,0,1.2994799613952637
0.09861049,0,0,1.656787633895874,0,0,1.2994799613952637
0.098756044,0,0,1.656787633895874,0,0,1.2994799613952637
0.098902135,0,0,1.6352397203445435,0,0,1.5288000106811523
0.099048152,0,0,1.6352397203445435,0,0,1.5288000106811523
0.099194113,0,0,1.6352397203445435,0,0,0
0.099339908,0,0,1.6352397203445435,0,0,0
0.099485591,0,0,1.6352397203445435,0,0,0.3822000026702881
0.099631405,0,0,1.6352397203445435,0,0,0.3822000026702881
0.099783718,0,0,1.6112977266311646,0,0,0.2293200045824051
0.099922938,0,0,1.6112977266311646,0,0,0.2293200045824051
0.100068992,0,0,1.6112977266311646,0,0,0.2293200045824051
0.100214768,0,0,1.6112977266311646,0,0,0.4586400091648102
0.100361082,0,0,1.6112977266311646,0,0,0.4586400091648102
0.100505154,0,0,1.6112977266311646,0,0,-0.2293200045824051
0.100649282,0,0,1.6112977266311646,0,0,-29.582279205322266
0.100793521,0,0,1.6352397203445435,0,0,1.6816799640655518
0.100937501,0,0,1.6352397203445435,0,0,1.6816799640655518
0.101082111,0,0,1.6352397203445435,0,0,0.4586400091648102
0.10122985,0,0,1.6352397203445435,0,0,0.4586400091648102
0.101372311,0,0,1.6352397203445435,0,0,0.6879600286483765
0.101516439,0,0,1.6352397203445435,0,0,0.6879600286483765
0.101660437,0,0,1.6352397203445435,0,0,0.6879600286483765
0.101804584,0,0,1.4652514457702637,0,0,1.452359914779663
0.10194873,0,0,1.4652514457702637,0,0,1.452359914779663
0.10209297,0,0,1.4652514457702637,0,0,1.070159912109375
0.102237357,0,0,1.4652514457702637,0,0,1.070159912109375
0.102381263,0,0,1.4652514457702637,0,0,0.0764399990439415
0.102525613,0,0,1.4652514457702637,0,0,0.0764399990439415
0.102669685,0,0,1.4652514457702637,0,0,0.9172800183296204
0.102814036,0,0,1.4748282432556152,0,0,0.9172800183296204
0.102957978,0,0,1.4748282432556152,0,0,0.9172800183296204
0.103102218,0,0,1.4748282432556152,0,0,0
0.103246734,0,0,1.4748282432556152,0,0,0
0.103390992,0,0,1.4748282432556152,0,0,1.9109998941421509
0.103534972,0,0,1.4748282432556152,0,0,1.9109998941421509
0.103679063,0,0,1.4748282432556152,0,0,0.6879600286483765
0.103823135,0,0,1.3910311460494995,0,0,0.6879600286483765
0.103967226,0,0,1.3910311460494995,0,0,0.4586400091648102
0.104111429,0,0,1.3910311460494995,0,0,0.4586400091648102
0.104306037,0,0,1.3910311460494995,0,0,0.9937199950218201
0.104453036,0,0,1.3910311460494995,0,0,0.9937199950218201
0.10459883,0,0,1.3910311460494995,0,0,0.9937199950218201
0.104744421,0,0,1.3910311460494995,0,0,0.6879600286483765
0.104890105,0,0,1.3551181554794312,0,0,0.6879600286483765
0.105035826,0,0,1.3551181554794312,0,0,1.1466000080108643
0.105181472,0,0,1.3551181554794312,0,0,1.1466000080108643
0.105327026,0,0,1.3551181554794312,0,0,0.0764399990439415
0.105472654,0,0,1.3551181554794312,0,0,0.0764399990439415
0.105618319,0,0,1.3551181554794312,0,0,0.3822000026702881
0.105767743,0,0,1.3551181554794312,0,0,0.3822000026702881
0.105911445,0,0,1.455674648284912,0,0,0.305759996175766
0.106056833,0,0,1.455674648284912,0,0,0.305759996175766
0.106202368,0,0,1.455674648284912,0,0,0.305759996175766
0.106348329,0,0,1.455674648284912,0,0,0.152879998087883
0.106494124,0,0,1.455674648284912,0,0,0.152879998087883
0.106639641,0,0,1.455674648284912,0,0,0.611519992351532
0.106785176,0,0,1.455674648284912,0,0,0.611519992351532
0.106930767,0,0,1.501164436340332,0,0,0.3822000026702881
0.107076284,0,0,1.501164436340332,0,0,0.3822000026702881
0.107221986,0,0,1.501164436340332,0,0,1.1466000080108643
0.10736767,0,0,1.501164436340332,0,0,1.1466000080108643
0.107513502,0,0,1.501164436340332,0,0,0.611519992351532
0.10767537,0,0,1.501164436340332,0,0,0.611519992351532
0.10782172,0,0,1.5921441316604614,0,0,0.611519992351532
0.107967552,0,0,1.5921441316604614,0,0,1.6816799640655518
0.108113273,0,0,1.5921441316604614,0,0,1.6816799640655518
0.108260438,0,0,1.5921441316604614,0,0,1.070159912109375
0.108406232,0,0,1.5921441316604614,0,0,1.070159912109375
0.108552342,0,0,1.5921441316604614,0,0,0.5350799560546875
0.108698136,0,0,1.5921441316604614,0,0,0.5350799560546875
0.108843542,0,0,1.556231141090393,0,0,0.8408399820327759
0.108989022,0,0,1.556231141090393,0,0,0.8408399820327759
0.109134909,0,0,1.556231141090393,0,0,0.4586400091648102
0.109280889,0,0,1.556231141090393,0,0,0.4586400091648102
0.109426221,0,0,1.556231141090393,0,0,0.4586400091648102
0.109571849,0,0,1.556231141090393,0,0,0
0.10971707,0,0,1.556231141090393,0,0,0
0.109862753,0,0,1.482010841369629,0,0,0.2293200045824051
0.11000827,0,0,1.482010841369629,0,0,0.2293200045824051
0.110153824,0,0,1.482010841369629,0,0,0.0764399990439415
0.110303267,0,0,1.482010841369629,0,0,0.0764399990439415
0.110446987,0,0,1.482010841369629,0,0,0.611519992351532
0.110592986,0,0,1.482010841369629,0,0,0.611519992351532
0.110738688,0,0,1.482010841369629,0,0,0.611519992351532
0.110884186,0,0,1.6519991159439087,0,0,0.8408399820327759
0.111029888,0,0,1.6519991159439087,0,0,0.8408399820327759
0.111175498,0,0,1.6519991159439087,0,0,0
0.11132094,0,0,1.6519991159439087,0,0,0
0.111466754,0,0,1.6519991159439087,0,0,1.223039984703064
0.111612808,0,0,1.6519991159439087,0,0,1.223039984703064
0.111758362,0,0,1.6519991159439087,0,0,1.1466000080108643
0.111904212,0,0,1.6112977266311646,0,0,1.1466000080108643
0.112049877,0,0,1.6112977266311646,0,0,1.452359914779663
0.112195431,0,0,1.6112977266311646,0,0,1.452359914779663
0.112623519,0,0,1.6112977266311646,0,0,0.9937199950218201
0.112771128,0,0,1.6112977266311646,0,0,0.152879998087883
0.112916663,0,0,1.4460978507995605,0,0,0.152879998087883
0.113062458,0,0,1.4460978507995605,0,0,0.9172800183296204
0.113208086,0,0,1.4460978507995605,0,0,0.9172800183296204
0.11335351,0,0,1.4460978507995605,0,0,1.2994799613952637
0.113499064,0,0,1.4460978507995605,0,0,1.2994799613952637
0.113644748,0,0,1.4460978507995605,0,0,1.2994799613952637
0.11379058,0,0,1.4460978507995605,0,0,0.9172800183296204
0.1139363,0,0,1.37906014919281,0,0,0.9172800183296204
0.114081576,0,0,1.37906014919281,0,0,1.1466000080108643
0.114227186,0,0,1.37906014919281,0,0,1.1466000080108643
0.114372832,0,0,1.37906014919281,0,0,1.605239987373352
0.114518423,0,0,1.37906014919281,0,0,1.605239987373352
0.114663885,0,0,1.37906014919281,0,0,0.305759996175766
0.114809939,0,0,1.3551181554794312,0,0,0.305759996175766
0.114955122,0,0,1.3551181554794312,0,0,0.611519992351532
0.115106806,0,0,1.3551181554794312,0,0,0.611519992351532
0.115249563,0,0,1.3551181554794312,0,0,0.611519992351532
0.115395432,0,0,1.3551181554794312,0,0,1.8345600366592407
0.115541282,0,0,1.3551181554794312,0,0,1.8345600366592407
0.115686706,0,0,1.3551181554794312,0,0,1.605239987373352
0.115832483,0,0,1.3623007535934448,0,0,1.605239987373352
0.115978111,0,0,1.3623007535934448,0,0,0.152879998087883
0.116123739,0,0,1.3623007535934448,0,0,0.152879998087883
0.116271959,0,0,1.3623007535934448,0,0,0.8408399820327759
0.116425661,0,0,1.3623007535934448,0,0,0.8408399820327759
0.116561826,0,0,1.3623007535934448,0,0,0.8408399820327759
0.11670701,0,0,1.3623007535934448,0,0,0.7644000053405762
0.116852675,0,0,1.4413094520568848,0,0,0.7644000053405762
0.120411357,0,0,1.6855180263519287,0,0,0.9172800183296204
0.120535597,0,0,1.6855180263519287,0,0,0.3822000026702881
0.12068841,0,0,1.6855180263519287,0,0,0.3822000026702881
0.120848241,0,0,1.5322890281677246,0,0,0.152879998087883
0.121007869,0,0,1.5322890281677246,0,0,0.152879998087883
0.121165719,0,0,1.5322890281677246,0,0,1.223039984703064
0.121328162,0,0,1.5322890281677246,0,0,1.223039984703064
0.121492123,0,0,1.5322890281677246,0,0,1.2994799613952637
0.121646399,0,0,1.5322890281677246,0,0,1.2994799613952637
0.123849856,0,0,1.5322890281677246,0,0,0.7644000053405762
0.123910966,0,0,1.5275006294250488,0,0,0.7644000053405762
0.124035021,0,0,1.4437036514282227,0,0,0.7644000053405762
0.124743161,0,0,1.4437036514282227,0,0,0.8408399820327759
0.124935714,0,0,1.3311761617660522,0,0,0.8408399820327759
0.125128471,0,0,1.3311761617660522,0,0,2.14031982421875
0.125298673,0,0,1.3311761617660522,0,0,1.070159912109375
0.125467597,0,0,1.3311761617660522,0,0,1.070159912109375
0.12564241,0,0,1.3311761617660522,0,0,0.5350799560546875
0.125818464,0,0,1.3311761617660522,0,0,0.5350799560546875
0.125984739,0,0,1.278503656387329,0,0,0.4586400091648102
0.12614346,0,0,1.278503656387329,0,0,0.4586400091648102
0.126306106,0,0,1.278503656387329,0,0,1.070159912109375
0.12646779,0,0,1.278503656387329,0,0,1.070159912109375
0.128085642,0,0,1.4844050407409668,0,0,0.7644000053405762
0.128207529,0,0,1.4844050407409668,0,0,0.611519992351532
0.128375731,0,0,1.4844050407409668,0,0,0.611519992351532
0.128556674,0,0,1.4844050407409668,0,0,0.8408399820327759
0.12871169,0,0,1.4844050407409668,0,0,0.8408399820327759
0.128867744,0,0,1.525106430053711,0,0,0.8408399820327759
0.129023687,0,0,1.525106430053711,0,0,0.8408399820327759
0.129182833,0,0,1.525106430053711,0,0,0.152879998087883
0.129338146,0,0,1.525106430053711,0,0,0.152879998087883
0.129495052,0,0,1.525106430053711,0,0,0.152879998087883
0.129647347,0,0,1.525106430053711,0,0,0.8408399820327759
0.129799067,0,0,1.525106430053711,0,0,0.8408399820327759
0.129949399,0,0,1.6328455209732056,0,0,2.14031982421875
0.130102101,0,0,1.6328455209732056,0,0,2.14031982421875
0.130254377,0,0,1.6328455209732056,0,0,1.5288000106811523
0.130402801,0,0,1.6328455209732056,0,0,1.5288000106811523
0.130553448,0,0,1.6328455209732056,0,0,0.8408399820327759
0.130702872,0,0,1.6328455209732056,0,0,0.8408399820327759
0.130853518,0,0,1.6735470294952393,0,0,1.1466000080108643
0.131005943,0,0,1.6735470294952393,0,0,1.1466000080108643
0.131155941,0,0,1.6735470294952393,0,0,0.4586400091648102
0.131311439,0,0,1.6735470294952393,0,0,0.4586400091648102
0.131461475,0,0,1.6735470294952393,0,0,0.5350799560546875
0.131613065,0,0,1.6735470294952393,0,0,0.5350799560546875
0.131770545,0,0,1.6735470294952393,0,0,0.2293200045824051
0.131929617,0,0,1.5538369417190552,0,0,0.2293200045824051
0.132109597,0,0,1.5538369417190552,0,0,0.4586400091648102
0.132673924,0,0,1.5538369417190552,0,0,0.9937199950218201
0.132821848,0,0,1.5538369417190552,0,0,1.9109998941421509
0.132970754,0,0,1.6065093278884888,0,0,1.9109998941421509
0.133119771,0,0,1.6065093278884888,0,0,0.611519992351532
0.133293473,0,0,1.6065093278884888,0,0,0.611519992351532
0.133418138,0,0,1.6065093278884888,0,0,0.3822000026702881
0.133566803,0,0,1.6065093278884888,0,0,0.3822000026702881
0.133716597,0,0,1.6065093278884888,0,0,0.7644000053405762
0.133865614,0,0,1.4748282432556152,0,0,0.7644000053405762
0.13401452,0,0,1.4748282432556152,0,0,0.7644000053405762
0.13416987,0,0,1.4748282432556152,0,0,2.2167599201202393
0.134312961,0,0,1.4748282432556152,0,0,2.2167599201202393
0.134461367,0,0,1.4748282432556152,0,0,-0.3822000026702881
0.134610125,0,0,1.4748282432556152,0,0,-0.3822000026702881
0.134759604,0,0,1.4748282432556152,0,0,1.8345600366592407
0.134908695,0,0,1.314416766166687,0,0,1.8345600366592407
0.135057453,0,0,1.314416766166687,0,0,0.152879998087883
0.135206118,0,0,1.314416766166687,0,0,0.152879998087883
0.13535482,0,0,1.314416766166687,0,0,1.1466000080108643
0.135503615,0,0,1.314416766166687,0,0,1.1466000080108643
0.135652187,0,0,1.314416766166687,0,0,1.070159912109375
0.135801815,0,0,1.314416766166687,0,0,1.070159912109375
0.135950684,0,0,1.3455413579940796,0,0,1.070159912109375
0.136099367,0,0,1.3455413579940796,0,0,0.2293200045824051
0.13626668,0,0,1.3455413579940796,0,0,0.2293200045824051
0.13641529,0,0,1.3455413579940796,0,0,1.6816799640655518
0.136564269,0,0,1.3455413579940796,0,0,1.6816799640655518
0.136713305,0,0,1.3455413579940796,0,0,0.9937199950218201
0.136862747,0,0,1.3455413579940796,0,0,0.9937199950218201
0.137011505,0,0,1.3910311460494995,0,0,0.6879600286483765
0.137167948,0,0,1.3910311460494995,0,0,0.6879600286483765
0.137312742,0,0,1.3910311460494995,0,0,1.452359914779663
0.137461852,0,0,1.3910311460494995,0,0,1.452359914779663
0.137610758,0,0,1.3910311460494995,0,0,1.070159912109375
0.137759571,0,0,1.3910311460494995,0,0,1.070159912109375
0.137908662,0,0,1.4724340438842773,0,0,0.8408399820327759
0.138057271,0,0,1.4724340438842773,0,0,0.8408399820327759
0.13820614,0,0,1.4724340438842773,0,0,0.8408399820327759
0.138354731,0,0,1.4724340438842773,0,0,0.611519992351532
0.138503488,0,0,1.4724340438842773,0,0,0.611519992351532
0.138652413,0,0,1.4724340438842773,0,0,0.9937199950218201
0.138801263,0,0,1.4724340438842773,0,0,0.9937199950218201
0.138950669,0,0,1.3503297567367554,0,0,0.611519992351532
0.139099574,0,0,1.3503297567367554,0,0,0.611519992351532
0.139248258,0,0,1.3503297567367554,0,0,0.6879600286483765
0.139397015,0,0,1.3503297567367554,0,0,0.6879600286483765
0.139545884,0,0,1.3503297567367554,0,0,0.7644000053405762
0.139694771,0,0,1.3503297567367554,0,0,0.7644000053405762
0.139843473,0,0,1.3503297567367554,0,0,0.7644000053405762
0.139993046,0,0,1.4532804489135742,0,0,1.375920057296753
0.140141729,0,0,1.4532804489135742,0,0,1.375920057296753
0.140292042,0,0,1.4532804489135742,0,0,1.452359914779663
0.140441152,0,0,1.4532804489135742,0,0,1.452359914779663
0.140590021,0,0,1.4532804489135742,0,0,1.452359914779663
0.140738778,0,0,1.4532804489135742,0,0,1.452359914779663
0.140887573,0,0,1.501164436340332,0,0,0.2293200045824051
0.141037238,0,0,1.501164436340332,0,0,0.2293200045824051
0.14118581,0,0,1.501164436340332,0,0,1.375920057296753
0.141407586,0,0,1.501164436340332,0,0,1.375920057296753
0.141557528,0,0,1.501164436340332,0,0,0
0.141708675,0,0,1.501164436340332,0,0,0
0.141865414,0,0,1.501164436340332,0,0,0.2293200045824051
0.142011912,0,0,1.558625340461731,0,0,0.2293200045824051
0.142163373,0,0,1.558625340461731,0,0,0.4586400091648102
0.142312946,0,0,1.558625340461731,0,0,0.4586400091648102
0.142462166,0,0,1.558625340461731,0,0,0.8408399820327759
0.142611628,0,0,1.558625340461731,0,0,0.8408399820327759
0.142760922,0,0,1.558625340461731,0,0,0.611519992351532
0.142909606,0,0,1.5849615335464478,0,0,0.611519992351532
0.14305866,0,0,1.5849615335464478,0,0,0.611519992351532
0.143208621,0,0,1.5849615335464478,0,0,2.14031982421875
0.14335736,0,0,1.5849615335464478,0,0,2.14031982421875
0.14350634,0,0,1.5849615335464478,0,0,0
0.143656079,0,0,1.5849615335464478,0,0,0
0.143824373,0,0,1.5849615335464478,0,0,1.758120059967041
0.143960353,0,0,1.656787633895874,0,0,1.758120059967041
0.144108852,0,0,1.656787633895874,0,0,1.070159912109375
0.144267387,0,0,1.656787633895874,0,0,1.070159912109375
0.144416941,0,0,1.656787633895874,0,0,0.611519992351532
0.144568143,0,0,1.656787633895874,0,0,0.611519992351532
0.144717641,0,0,1.656787633895874,0,0,0.3822000026702881
0.144867454,0,0,1.656787633895874,0,0,0.3822000026702881
0.145016286,0,0,1.4389152526855469,0,0,0.3822000026702881
0.14516584,0,0,1.4389152526855469,0,0,1.223039984703064
0.145316227,0,0,1.4389152526855469,0,0,1.223039984703064
0.145466725,0,0,1.4389152526855469,0,0,-0.305759996175766
0.145616113,0,0,1.4389152526855469,0,0,-0.305759996175766
0.145766278,0,0,1.4389152526855469,0,0,1.2994799613952637
0.145919017,0,0,1.4628572463989258,0,0,1.2994799613952637
0.146067756,0,0,1.4628572463989258,0,0,1.5288000106811523
0.146217661,0,0,1.4628572463989258,0,0,1.5288000106811523
0.14636866,0,0,1.4628572463989258,0,0,0.2293200045824051
0.146531547,0,0,1.4628572463989258,0,0,0.2293200045824051
0.146676286,0,0,1.4628572463989258,0,0,0.5350799560546875
0.146825525,0,0,1.4628572463989258,0,0,0.5350799560546875
0.146975857,0,0,1.5442601442337036,0,0,0.8408399820327759
0.14713254,0,0,1.5442601442337036,0,0,0.8408399820327759
0.147282742,0,0,1.5442601442337036,0,0,0.8408399820327759
0.147434092,0,0,1.5442601442337036,0,0,1.5288000106811523
0.147588405,0,0,1.5442601442337036,0,0,1.5288000106811523
0.147748644,0,0,1.5442601442337036,0,0,1.758120059967041
0.147897828,0,0,1.3096283674240112,0,0,1.758120059967041
0.148048548,0,0,1.3096283674240112,0,0,0.4586400091648102
0.14819875,0,0,1.3096283674240112,0,0,0.4586400091648102
0.148350175,0,0,1.3096283674240112,0,0,-0.4586400091648102
0.14850108,0,0,1.3096283674240112,0,0,-0.4586400091648102
0.14865143,0,0,1.3096283674240112,0,0,0
0.148801318,0,0,1.3096283674240112,0,0,0
0.148950964,0,0,1.4413094520568848,0,0,0.5350799560546875
0.1491015,0,0,1.4413094520568848,0,0,0.5350799560546875
0.149251979,0,0,1.4413094520568848,0,0,1.223039984703064
0.149402533,0,0,1.4413094520568848,0,0,1.223039984703064
0.149552939,0,0,1.4413094520568848,0,0,0.5350799560546875
0.149702956,0,0,1.4413094520568848,0,0,0.5350799560546875
0.14985375,0,0,1.4413094520568848,0,0,0.5350799560546875
0.150003767,0,0,1.381454348564148,0,0,1.070159912109375
0.150153303,0,0,1.381454348564148,0,0,1.070159912109375
0.150303597,0,0,1.381454348564148,0,0,2.2932000160217285
0.150454151,0,0,1.381454348564148,0,0,2.2932000160217285
0.150605279,0,0,1.381454348564148,0,0,0.4586400091648102
0.150755351,0,0,1.381454348564148,0,0,0.4586400091648102
0.150905739,0,0,1.5825673341751099,0,0,-0.305759996175766
0.151056607,0,0,1.5825673341751099,0,0,-0.305759996175766
0.151218865,0,0,1.5825673341751099,0,0,0.3822000026702881
0.151363882,0,0,1.5825673341751099,0,0,0.3822000026702881
0.151514343,0,0,1.5825673341751099,0,0,0.0764399990439415
0.1516636,0,0,1.5825673341751099,0,0,0.0764399990439415
0.151813525,0,0,1.5825673341751099,0,0,0.0764399990439415
0.151963375,0,0,1.6543933153152466,0,0,0
0.152113281,0,0,1.6543933153152466,0,0,0
0.152272705,0,0,1.6543933153152466,0,0,2.446079969406128
0.152421018,0,0,1.6543933153152466,0,0,2.446079969406128
0.152572701,0,0,1.6543933153152466,0,0,0.9937199950218201
0.152721237,0,0,1.6543933153152466,0,0,0.9937199950218201
0.152870957,0,0,1.6543933153152466,0,0,1.452359914779663
0.153022215,0,0,1.580173134803772,0,0,1.452359914779663
0.153173435,0,0,1.580173134803772,0,0,1.070159912109375
0.153323971,0,0,1.580173134803772,0,0,1.070159912109375
0.153487173,0,0,1.580173134803772,0,0,0.0764399990439415
0.153623412,0,0,1.580173134803772,0,0,0.0764399990439415
0.153772114,0,0,1.580173134803772,0,0,0.611519992351532
0.153920779,0,0,1.680729627609253,0,0,0.611519992351532
0.154072018,0,0,1.680729627609253,0,0,0.611519992351532
0.154226201,0,0,1.680729627609253,0,0,0.8408399820327759
0.154376922,0,0,1.680729627609253,0,0,0.8408399820327759
0.154527994,0,0,1.680729627609253,0,0,2.446079969406128
0.154678511,0,0,1.680729627609253,0,0,2.446079969406128
0.154828195,0,0,1.680729627609253,0,0,0.2293200045824051
0.154978989,0,0,1.5610195398330688,0,0,0.2293200045824051
0.155128506,0,0,1.5610195398330688,0,0,0
0.15527956,0,0,1.5610195398330688,0,0,0
0.155430503,0,0,1.5610195398330688,0,0,1.6816799640655518
0.155580612,0,0,1.5610195398330688,0,0,1.6816799640655518
0.15573074,0,0,1.5610195398330688,0,0,1.2994799613952637
0.155891035,0,0,1.5610195398330688,0,0,1.2994799613952637
0.156036144,0,0,1.4748282432556152,0,0,0.6879600286483765
0.156186031,0,0,1.4748282432556152,0,0,0.6879600286483765
0.15634003,0,0,1.4748282432556152,0,0,0.6879600286483765
0.15649038,0,0,1.4748282432556152,0,0,0.9172800183296204
0.156640174,0,0,1.4748282432556152,0,0,0.9172800183296204
0.156791414,0,0,1.4748282432556152,0,0,1.8345600366592407
0.156941671,0,0,1.45806884765625,0,0,1.8345600366592407
0.157092521,0,0,1.45806884765625,0,0,0.4586400091648102
0.157243668,0,0,1.45806884765625,0,0,0.4586400091648102
0.157393592,0,0,1.45806884765625,0,0,0.6879600286483765
0.157542757,0,0,1.45806884765625,0,0,0.6879600286483765
0.157693107,0,0,1.45806884765625,0,0,1.2994799613952637
0.157844217,0,0,1.45806884765625,0,0,1.2994799613952637
0.157995067,0,0,1.403002142906189,0,0,1.6816799640655518
0.158144195,0,0,1.403002142906189,0,0,1.6816799640655518
0.158294045,0,0,1.403002142906189,0,0,0.7644000053405762
0.158443062,0,0,1.403002142906189,0,0,0.7644000053405762
0.158592616,0,0,1.403002142906189,0,0,0.7644000053405762
0.158742595,0,0,1.403002142906189,0,0,2.2167599201202393
0.158893779,0,0,1.403002142906189,0,0,2.2167599201202393
0.159044111,0,0,1.3646949529647827,0,0,0.5350799560546875
0.159193664,0,0,1.3646949529647827,0,0,0.5350799560546875
0.159345311,0,0,1.3646949529647827,0,0,-0.2293200045824051
0.159496087,0,0,1.3646949529647827,0,0,-29.582279205322266
0.159645548,0,0,1.3646949529647827,0,0,0.305759996175766
0.159795324,0,0,1.3646949529647827,0,0,0.305759996175766
0.159947193,0,0,1.37906014919281,0,0,0.9172800183296204
0.16009708,0,0,1.37906014919281,0,0,0.9172800183296204
0.160272504,0,0,1.37906014919281,0,0,1.223039984703064
0.160422299,0,0,1.37906014919281,0,0,1.223039984703064
0.160584038,0,0,1.37906014919281,0,0,1.223039984703064
0.160728573,0,0,1.37906014919281,0,0,1.223039984703064
0.160877942,0,0,1.37906014919281,0,0,0.3822000026702881
0.161027922,0,0,1.4532804489135742,0,0,0.3822000026702881
0.161177568,0,0,1.4532804489135742,0,0,0.3822000026702881
0.161328326,0,0,1.4532804489135742,0,0,0.0764399990439415
0.161478954,0,0,1.4532804489135742,0,0,0.0764399990439415
0.161629341,0,0,1.4532804489135742,0,0,0
0.161781191,0,0,1.4532804489135742,0,0,0
0.161933023,0,0,1.5849615335464478,0,0,-0.611519992351532
0.162084114,0,0,1.5849615335464478,0,0,-0.611519992351532
0.162233853,0,0,1.5849615335464478,0,0,0.5350799560546875
0.162383962,0,0,1.5849615335464478,0,0,0.5350799560546875
0.162536497,0,0,1.5849615335464478,0,0,1.223039984703064
0.162685218,0,0,1.5849615335464478,0,0,1.223039984703064
0.162834864,0,0,1.5849615335464478,0,0,1.375920057296753
0.162983622,0,0,1.5849615335464478,0,0,1.375920057296753
0.163144509,0,0,1.5849615335464478,0,0,0.3822000026702881
0.163288082,0,0,1.5849615335464478,0,0,0.3822000026702881
0.163803835,0,0,1.5849615335464478,0,0,0.3822000026702881
0.163950315,0,0,1.534683346748352,0,0,0.3822000026702881
0.16409998,0,0,1.534683346748352,0,0,0.3822000026702881
0.164273293,0,0,1.534683346748352,0,0,0.611519992351532
0.164422143,0,0,1.534683346748352,0,0,0.611519992351532
0.16457079,0,0,1.534683346748352,0,0,0.9937199950218201
0.16472101,0,0,1.534683346748352,0,0,0.9937199950218201
0.164868434,0,0,1.534683346748352,0,0,-0.6879600286483765
0.165016025,0,0,1.580173134803772,0,0,-0.6879600286483765
0.165164079,0,0,1.580173134803772,0,0,0.8408399820327759
0.165310911,0,0,1.580173134803772,0,0,0.8408399820327759
0.16545852,0,0,1.580173134803772,0,0,0.611519992351532
0.165615648,0,0,1.580173134803772,0,0,0.611519992351532
0.165758776,0,0,1.580173134803772,0,0,1.5288000106811523
0.165990792,0,0,1.580173134803772,0,0,1.5288000106811523
0.166058865,0,0,1.5897499322891235,0,0,2.2167599201202393
0.166206216,0,0,1.5897499322891235,0,0,2.2167599201202393
0.166353473,0,0,1.5897499322891235,0,0,2.2167599201202393
0.16650049,0,0,1.5897499322891235,0,0,1.758120059967041
0.166647507,0,0,1.5897499322891235,0,0,1.758120059967041
0.166794765,0,0,1.5897499322891235,0,0,1.070159912109375
0.16694193,0,0,1.4293384552001953,0,0,1.070159912109375
0.167089298,0,0,1.4293384552001953,0,0,1.1466000080108643
0.167236593,0,0,1.4293384552001953,0,0,1.1466000080108643
0.167384054,0,0,1.4293384552001953,0,0,0.305759996175766
0.167531108,0,0,1.4293384552001953,0,0,0.305759996175766
0.167678551,0,0,1.4293384552001953,0,0,0
0.167825864,0,0,1.4293384552001953,0,0,0
0.167973214,0,0,1.3646949529647827,0,0,0
0.168120472,0,0,1.3646949529647827,0,0,1.070159912109375
0.168276322,0,0,1.3646949529647827,0,0,1.070159912109375
0.16842508,0,0,1.3646949529647827,0,0,1.9109998941421509
0.168573615,0,0,1.3646949529647827,0,0,1.9109998941421509
0.168722669,0,0,1.3646949529647827,0,0,0.9937199950218201
0.16887113,0,0,1.3646949529647827,0,0,0.9937199950218201
0.169020221,0,0,1.403002142906189,0,0,0.9172800183296204
0.169168997,0,0,1.403002142906189,0,0,0.9172800183296204
0.169317829,0,0,1.403002142906189,0,0,0.6879600286483765
0.169466735,0,0,1.403002142906189,0,0,0.6879600286483765
0.169615585,0,0,1.403002142906189,0,0,1.070159912109375
0.169764435,0,0,1.403002142906189,0,0,1.070159912109375
0.169913471,0,0,1.403002142906189,0,0,1.070159912109375
0.170062265,0,0,1.2497732639312744,0,0,0.4586400091648102
0.170215263,0,0,1.2497732639312744,0,0,0.4586400091648102
0.170361762,0,0,1.2497732639312744,0,0,2.14031982421875
0.17051089,0,0,1.2497732639312744,0,0,2.14031982421875
0.170659721,0,0,1.2497732639312744,0,0,0.9937199950218201
0.170808405,0,0,1.2497732639312744,0,0,0.9937199950218201
0.170957126,0,0,1.359906554222107,0,0,0.305759996175766
0.171105828,0,0,1.359906554222107,0,0,0.305759996175766
0.171254289,0,0,1.359906554222107,0,0,0.9937199950218201
0.171403435,0,0,1.359906554222107,0,0,0.9937199950218201
0.171552415,0,0,1.359906554222107,0,0,0.611519992351532
0.171701339,0,0,1.359906554222107,0,0,0.611519992351532
0.171850134,0,0,1.359906554222107,0,0,0.611519992351532
0.171998743,0,0,1.3742717504501343,0,0,0.152879998087883
0.172147501,0,0,1.3742717504501343,0,0,0.152879998087883
0.172297462,0,0,1.3742717504501343,0,0,1.1466000080108643
0.172446924,0,0,1.3742717504501343,0,0,1.1466000080108643
0.172595792,0,0,1.3742717504501343,0,0,1.5288000106811523
0.172744568,0,0,1.3742717504501343,0,0,1.5288000106811523
0.172893326,0,0,1.3742717504501343,0,0,0
0.173042195,0,0,1.5538369417190552,0,0,0
0.173191063,0,0,1.5538369417190552,0,0,0.5350799560546875
0.173339821,0,0,1.5538369417190552,0,0,0.5350799560546875
0.173488819,0,0,1.5538369417190552,0,0,0.9937199950218201
0.173638003,0,0,1.5538369417190552,0,0,0.9937199950218201
0.17378702,0,0,1.5538369417190552,0,0,0.9937199950218201
0.173935648,0,0,1.5538369417190552,0,0,-0.152879998087883
0.174084776,0,0,1.6065093278884888,0,0,9.631440162658691
0.174233533,0,0,1.6065093278884888,0,0,2.06387996673584
0.174383069,0,0,1.6065093278884888,0,0,2.06387996673584
0.174534511,0,0,1.6065093278884888,0,0,-0.305759996175766
0.174686232,0,0,1.6065093278884888,0,0,-0.305759996175766
0.174842897,0,0,1.6065093278884888,0,0,-0.611519992351532
0.17498908,0,0,1.5682021379470825,0,0,-0.611519992351532
0.175141542,0,0,1.5682021379470825,0,0,0
0.175295058,0,0,1.5682021379470825,0,0,0
0.17544639,0,0,1.5682021379470825,0,0,0.9937199950218201
0.175597555,0,0,1.5682021379470825,0,0,0.9937199950218201
0.175748331,0,0,1.5682021379470825,0,0,0.6879600286483765
0.17589957,0,0,1.5682021379470825,0,0,0.6879600286483765
0.176052383,0,0,1.601720929145813,0,0,0.6879600286483765
0.176204567,0,0,1.601720929145813,0,0,0.0764399990439415
0.176376102,0,0,1.601720929145813,0,0,0.0764399990439415
0.176526471,0,0,1.601720929145813,0,0,1.1466000080108643
0.176674821,0,0,1.601720929145813,0,0,1.1466000080108643
0.17682319,0,0,1.601720929145813,0,0,1.452359914779663
0.17697204,0,0,1.5753847360610962,0,0,1.452359914779663
0.177120631,0,0,1.5753847360610962,0,0,0.5350799560546875
0.177269444,0,0,1.5753847360610962,0,0,0.5350799560546875
0.17741822,0,0,1.5753847360610962,0,0,1.6816799640655518
0.177567052,0,0,1.5753847360610962,0,0,1.6816799640655518
0.177716031,0,0,1.5753847360610962,0,0,0.5350799560546875
0.177864993,0,0,1.5753847360610962,0,0,0.5350799560546875
0.178013954,0,0,1.3623007535934448,0,0,1.375920057296753
0.178162582,0,0,1.3623007535934448,0,0,1.375920057296753
0.178311673,0,0,1.3623007535934448,0,0,1.375920057296753
0.178460375,0,0,1.3623007535934448,0,0,1.1466000080108643
0.178609558,0,0,1.3623007535934448,0,0,1.1466000080108643
0.178758316,0,0,1.3623007535934448,0,0,0.5350799560546875
0.178907314,0,0,1.3623007535934448,0,0,0.5350799560546875
0.179056109,0,0,1.3646949529647827,0,0,1.223039984703064
0.179204922,0,0,1.3646949529647827,0,0,1.223039984703064
0.179353976,0,0,1.3646949529647827,0,0,0.8408399820327759
0.179511252,0,0,1.3646949529647827,0,0,0.8408399820327759
0.17965575,0,0,1.3646949529647827,0,0,0.9172800183296204
0.179804582,0,0,1.3646949529647827,0,0,0.9172800183296204
0.17995358,0,0,1.3646949529647827,0,0,1.223039984703064
0.180102486,0,0,1.3407529592514038,0,0,1.223039984703064
0.180254447,0,0,1.3407529592514038,0,0,1.223039984703064
0.180401631,0,0,1.3407529592514038,0,0,-0.5350799560546875
0.180549018,0,0,1.3407529592514038,0,0,-0.5350799560546875
0.18069598,0,0,1.3407529592514038,0,0,0.9172800183296204
0.180843348,0,0,1.3407529592514038,0,0,0.9172800183296204
0.180990921,0,0,1.3311761617660522,0,0,0.5350799560546875
0.181138438,0,0,1.3311761617660522,0,0,0.5350799560546875
0.181285658,0,0,1.3311761617660522,0,0,0.9937199950218201
0.181432953,0,0,1.3311761617660522,0,0,0.9937199950218201
0.181580451,0,0,1.3311761617660522,0,0,1.1466000080108643
0.181727709,0,0,1.3311761617660522,0,0,1.1466000080108643
0.181875207,0,0,1.3311761617660522,0,0,1.1466000080108643
0.182022854,0,0,1.3694833517074585,0,0,0.4586400091648102
0.182170315,0,0,1.3694833517074585,0,0,0.4586400091648102
0.182318036,0,0,1.3694833517074585,0,0,1.6816799640655518
0.182465163,0,0,1.3694833517074585,0,0,1.6816799640655518
0.182612662,0,0,1.3694833517074585,0,0,1.452359914779663
0.182759734,0,0,1.3694833517074585,0,0,1.452359914779663
0.182907307,0,0,1.3694833517074585,0,0,0.305759996175766
0.183054972,0,0,1.5131354331970215,0,0,0.305759996175766
0.183202285,0,0,1.5131354331970215,0,0,0.611519992351532
0.183349561,0,0,1.5131354331970215,0,0,0.611519992351532
0.183496967,0,0,1.5131354331970215,0,0,0.611519992351532
0.183644558,0,0,1.5131354331970215,0,0,0.611519992351532
0.183791963,0,0,1.5131354331970215,0,0,0.611519992351532
0.183939499,0,0,1.5131354331970215,0,0,0
0.184091979,0,0,1.5873557329177856,0,0,0
0.184257143,0,0,1.5873557329177856,0,0,1.2994799613952637
0.184404123,0,0,1.5873557329177856,0,0,1.2994799613952637
0.184551492,0,0,1.5873557329177856,0,0,1.605239987373352
0.184698787,0,0,1.5873557329177856,0,0,1.605239987373352
0.184863655,0,0,1.5873557329177856,0,0,1.1466000080108643
0.184993932,0,0,1.5610195398330688,0,0,1.1466000080108643
0.185141634,0,0,1.5610195398330688,0,0,0.152879998087883
0.18528891,0,0,1.5610195398330688,0,0,0.152879998087883
0.185436741,0,0,1.5610195398330688,0,0,0.152879998087883
0.185584055,0,0,1.5610195398330688,0,0,0.611519992351532
0.185731479,0,0,1.5610195398330688,0,0,0.611519992351532
0.185878792,0,0,1.5610195398330688,0,0,0
0.186026179,0,0,1.4652514457702637,0,0,0
0.186174066,0,0,1.4652514457702637,0,0,0.611519992351532
0.186321546,0,0,1.4652514457702637,0,0,0.611519992351532
0.186468711,0,0,1.4652514457702637,0,0,0.7644000053405762
0.186616043,0,0,1.4652514457702637,0,0,0.7644000053405762
0.186763541,0,0,1.4652514457702637,0,0,0.9172800183296204
0.186910799,0,0,1.4652514457702637,0,0,0.9172800183296204
0.187058334,0,0,1.5825673341751099,0,0,0.9172800183296204
0.187206018,0,0,1.5825673341751099,0,0,0.9937199950218201
0.187353461,0,0,1.5825673341751099,0,0,0.9937199950218201
0.187500885,0,0,1.5825673341751099,0,0,1.758120059967041
0.187648143,0,0,1.5825673341751099,0,0,1.758120059967041
0.187795456,0,0,1.5825673341751099,0,0,1.2994799613952637
0.187942991,0,0,1.5825673341751099,0,0,1.2994799613952637
0.188090304,0,0,1.436521053314209,0,0,1.223039984703064
0.188267691,0,0,1.436521053314209,0,0,1.223039984703064
0.188417041,0,0,1.436521053314209,0,0,0.0764399990439415
0.188565966,0,0,1.436521053314209,0,0,0.0764399990439415
0.188719112,0,0,1.436521053314209,0,0,1.223039984703064
0.188864814,0,0,1.436521053314209,0,0,1.223039984703064
0.189013498,0,0,1.460463047027588,0,0,0.611519992351532
0.189162089,0,0,1.460463047027588,0,0,0.611519992351532
0.189311309,0,0,1.460463047027588,0,0,0.611519992351532
0.189460104,0,0,1.460463047027588,0,0,1.605239987373352
0.189608658,0,0,1.460463047027588,0,0,1.605239987373352
0.189757286,0,0,1.460463047027588,0,0,0.9172800183296204
0.189905858,0,0,1.460463047027588,0,0,0.9172800183296204
0.190054356,0,0,1.414973258972168,0,0,0
0.190203095,0,0,1.414973258972168,0,0,0
0.190352298,0,0,1.414973258972168,0,0,1.452359914779663
0.190500777,0,0,1.414973258972168,0,0,1.452359914779663
0.190649257,0,0,1.414973258972168,0,0,0.4586400091648102
0.19079807,0,0,1.414973258972168,0,0,0.4586400091648102
0.190946661,0,0,1.414973258972168,0,0,0.7644000053405762
0.191095141,0,0,1.3479355573654175,0,0,0.7644000053405762
0.191243843,0,0,1.3479355573654175,0,0,0.7644000053405762
0.191392638,0,0,1.3479355573654175,0,0,1.758120059967041
0.191541525,0,0,1.3479355573654175,0,0,1.758120059967041
0.191690301,0,0,1.3479355573654175,0,0,0.152879998087883
0.191838707,0,0,1.3479355573654175,0,0,0.152879998087883
0.191987279,0,0,1.3503297567367554,0,0,0.6879600286483765
0.192136185,0,0,1.3503297567367554,0,0,0.6879600286483765
0.19234922,0,0,1.3503297567367554,0,0,0.9172800183296204
0.192496329,0,0,1.3503297567367554,0,0,0.9172800183296204
0.192645457,0,0,1.3503297567367554,0,0,0.5350799560546875
0.192793992,0,0,1.3503297567367554,0,0,0.5350799560546875
0.192942917,0,0,1.3503297567367554,0,0,1.070159912109375
0.193091841,0,0,1.4460978507995605,0,0,1.070159912109375
0.193240469,0,0,1.4460978507995605,0,0,0.611519992351532
0.193393708,0,0,1.4460978507995605,0,0,0.611519992351532
0.19354078,0,0,1.4460978507995605,0,0,0.611519992351532
0.193689594,0,0,1.4460978507995605,0,0,0.611519992351532
0.193838259,0,0,1.4460978507995605,0,0,0.611519992351532
0.193986998,0,0,1.577778935432434,0,0,0.4586400091648102
0.194135829,0,0,1.577778935432434,0,0,0.4586400091648102
0.194284661,0,0,1.577778935432434,0,0,0.8408399820327759
0.194433548,0,0,1.577778935432434,0,0,0.8408399820327759
0.194582565,0,0,1.577778935432434,0,0,-0.2293200045824051
0.194731212,0,0,1.577778935432434,0,0,-29.582279205322266
0.194880025,0,0,1.577778935432434,0,0,1.2994799613952637
0.195028893,0,0,1.647210717201233,0,0,1.2994799613952637
0.195177762,0,0,1.647210717201233,0,0,0.3822000026702881
0.195326612,0,0,1.647210717201233,0,0,0.3822000026702881
0.195475425,0,0,1.647210717201233,0,0,0.9937199950218201
0.195624461,0,0,1.647210717201233,0,0,0.9937199950218201
0.195773478,0,0,1.647210717201233,0,0,0.9937199950218201
0.195922439,0,0,1.647210717201233,0,0,0.9937199950218201
0.196071308,0,0,1.6184803247451782,0,0,0.9937199950218201
0.196232417,0,0,1.6184803247451782,0,0,0.5350799560546875
0.196369415,0,0,1.6184803247451782,0,0,0.5350799560546875
0.196518006,0,0,1.6184803247451782,0,0,1.1466000080108643
0.196667264,0,0,1.6184803247451782,0,0,1.1466000080108643
0.196815966,0,0,1.6184803247451782,0,0,0
0.196964575,0,0,1.6184803247451782,0,0,0
0.197113481,0,0,1.5753847360610962,0,0,1.223039984703064
0.197262498,0,0,1.5753847360610962,0,0,1.223039984703064
0.197411385,0,0,1.5753847360610962,0,0,1.223039984703064
0.197560291,0,0,1.5753847360610962,0,0,0.2293200045824051
0.197709419,0,0,1.5753847360610962,0,0,0.2293200045824051
0.197858306,0,0,1.5753847360610962,0,0,0.305759996175766
0.198010971,0,0,1.6639702320098877,0,0,0.305759996175766
0.198157784,0,0,1.6639702320098877,0,0,9.631440162658691
0.198306709,0,0,1.6639702320098877,0,0,9.631440162658691
0.198455374,0,0,1.6639702320098877,0,0,0.5350799560546875
0.198604242,0,0,1.6639702320098877,0,0,0.5350799560546875
0.198753259,0,0,1.6639702320098877,0,0,0.8408399820327759
0.198902313,0,0,1.6639702320098877,0,0,0.8408399820327759
0.199051293,0,0,1.5418659448623657,0,0,0.611519992351532
0.199200087,0,0,1.5418659448623657,0,0,0.611519992351532
0.199348845,0,0,1.5418659448623657,0,0,0.611519992351532
0.199497677,0,0,1.5418659448623657,0,0,0.9172800183296204
0.199646675,0,0,1.5418659448623657,0,0,0.9172800183296204
0.199795951,0,0,1.5418659448623657,0,0,-0.4586400091648102
0.199944653,0,0,1.5418659448623657,0,0,-0.4586400091648102
0.200093522,0,0,1.3527239561080933,0,0,0.8408399820327759
0.200251946,0,0,1.3527239561080933,0,0,0.8408399820327759
0.200398815,0,0,1.3527239561080933,0,0,1.5288000106811523
0.200546017,0,0,1.3527239561080933,0,0,1.5288000106811523
0.200693497,0,0,1.3527239561080933,0,0,0.4586400091648102
0.200841125,0,0,1.3527239561080933,0,0,0.4586400091648102
0.200988512,0,0,1.3527239561080933,0,0,1.223039984703064
0.201135751,0,0,1.3742717504501343,0,0,1.223039984703064
0.201283009,0,0,1.3742717504501343,0,0,1.223039984703064
0.201430266,0,0,1.3742717504501343,0,0,0.8408399820327759
0.20157732,0,0,1.3742717504501343,0,0,0.8408399820327759
0.201724615,0,0,1.3742717504501343,0,0,0.5350799560546875
0.201872446,0,0,1.3742717504501343,0,0,0.5350799560546875
0.202019537,0,0,1.3694833517074585,0,0,0.7644000053405762
0.202166702,0,0,1.3694833517074585,0,0,0.7644000053405762
0.202314275,0,0,1.3694833517074585,0,0,0.611519992351532
0.20246131,0,0,1.3694833517074585,0,0,0.611519992351532
0.202612679,0,0,1.3694833517074585,0,0,1.223039984703064
0.202758066,0,0,1.3694833517074585,0,0,1.223039984703064
0.202906065,0,0,1.3694833517074585,0,0,1.223039984703064
0.203053118,0,0,1.338358759880066,0,0,1.1466000080108643
0.203200598,0,0,1.338358759880066,0,0,1.1466000080108643
0.203348263,0,0,1.338358759880066,0,0,1.9109998941421509
0.20349528,0,0,1.338358759880066,0,0,1.9109998941421509
0.203642575,0,0,1.338358759880066,0,0,1.070159912109375
0.203790203,0,0,1.338358759880066,0,0,1.070159912109375
0.203938183,0,0,1.338358759880066,0,0,0.152879998087883
0.204085033,0,0,1.4628572463989258,0,0,0.152879998087883
0.20425442,0,0,1.4628572463989258,0,0,0.4586400091648102
0.20444351,0,0,1.4628572463989258,0,0,0.4586400091648102
0.204588379,0,0,1.4628572463989258,0,0,0.9172800183296204
0.2047341,0,0,1.4628572463989258,0,0,0.9172800183296204
0.204879691,0,0,1.4628572463989258,0,0,0.305759996175766
0.205025837,0,0,1.4724340438842773,0,0,0.305759996175766
0.205171576,0,0,1.4724340438842773,0,0,0.305759996175766
0.205317149,0,0,1.4724340438842773,0,0,0.611519992351532
0.205463073,0,0,1.4724340438842773,0,0,0.611519992351532
0.205608553,0,0,1.4724340438842773,0,0,1.1466000080108643
0.205754292,0,0,1.4724340438842773,0,0,1.1466000080108643
0.205900142,0,0,1.4724340438842773,0,0,0.0764399990439415
0.206045807,0,0,1.644816517829895,0,0,0.0764399990439415
0.206192139,0,0,1.644816517829895,0,0,0.5350799560546875
0.206339063,0,0,1.644816517829895,0,0,0.5350799560546875
0.206484636,0,0,1.644816517829895,0,0,0.9172800183296204
0.206630393,0,0,1.644816517829895,0,0,0.9172800183296204
0.206776077,0,0,1.644816517829895,0,0,0.9172800183296204
0.20692202,0,0,1.644816517829895,0,0,0.7644000053405762
0.207068407,0,0,1.6974890232086182,0,0,0.7644000053405762
0.207219905,0,0,1.6974890232086182,0,0,0.0764399990439415
0.207363181,0,0,1.6974890232086182,0,0,0.0764399990439415
0.207509032,0,0,1.6974890232086182,0,0,0.611519992351532
0.207654974,0,0,1.6974890232086182,0,0,0.611519992351532
0.207800676,0,0,1.6974890232086182,0,0,0.611519992351532
0.207946564,0,0,1.6974890232086182,0,0,0.611519992351532
0.208093007,0,0,1.5203180313110352,0,0,1.1466000080108643
0.208252246,0,0,1.5203180313110352,0,0,1.1466000080108643
0.208398873,0,0,1.5203180313110352,0,0,1.1466000080108643
0.208544427,0,0,1.5203180313110352,0,0,1.452359914779663
0.208690259,0,0,1.5203180313110352,0,0,1.452359914779663
0.208836017,0,0,1.5203180313110352,0,0,1.223039984703064
0.208981811,0,0,1.5203180313110352,0,0,1.223039984703064
0.209128143,0,0,1.6974890232086182,0,0,1.5288000106811523
0.209273734,0,0,1.6974890232086182,0,0,1.5288000106811523
0.209419769,0,0,1.6974890232086182,0,0,1.6816799640655518
0.20956562,0,0,1.6974890232086182,0,0,1.6816799640655518
0.209711563,0,0,1.6974890232086182,0,0,0.8408399820327759
0.209857172,0,0,1.6974890232086182,0,0,0.8408399820327759
0.210003207,0,0,1.6974890232086182,0,0,0.8408399820327759
0.210149428,0,0,1.4293384552001953,0,0,1.223039984703064
0.210306463,0,0,1.4293384552001953,0,0,1.223039984703064
0.210441128,0,0,1.4293384552001953,0,0,1.223039984703064
0.210586553,0,0,1.4293384552001953,0,0,1.223039984703064
0.210732551,0,0,1.4293384552001953,0,0,0.9937199950218201
0.210878309,0,0,1.4293384552001953,0,0,0.9937199950218201
0.211024177,0,0,1.4317326545715332,0,0,0.611519992351532
0.211170305,0,0,1.4317326545715332,0,0,0.611519992351532
0.211316452,0,0,1.4317326545715332,0,0,0.611519992351532
0.211462302,0,0,1.4317326545715332,0,0,0.8408399820327759
0.211608134,0,0,1.4317326545715332,0,0,0.8408399820327759
0.211758225,0,0,1.4317326545715332,0,0,1.605239987373352
0.211902149,0,0,1.4317326545715332,0,0,1.605239987373352
0.212047814,0,0,1.4460978507995605,0,0,1.452359914779663
0.212193461,0,0,1.4460978507995605,0,0,1.452359914779663
0.212340515,0,0,1.4460978507995605,0,0,1.375920057296753
0.212486106,0,0,1.4460978507995605,0,0,1.375920057296753
0.212631715,0,0,1.4460978507995605,0,0,1.223039984703064
0.212777288,0,0,1.4460978507995605,0,0,1.223039984703064
0.212923378,0,0,1.4460978507995605,0,0,1.223039984703064
0.213069044,0,0,1.3862427473068237,0,0,1.8345600366592407
0.213214746,0,0,1.3862427473068237,0,0,1.8345600366592407
0.213361114,0,0,1.3862427473068237,0,0,0.8408399820327759
0.213506779,0,0,1.3862427473068237,0,0,0.8408399820327759
0.213652722,0,0,1.3862427473068237,0,0,0.152879998087883
0.21379848,0,0,1.3862427473068237,0,0,0.152879998087883
0.213944089,0,0,1.3862427473068237,0,0,0.3822000026702881
0.21408981,0,0,1.4867992401123047,0,0,0.3822000026702881
0.214235716,0,0,1.4867992401123047,0,0,0.2293200045824051
0.214381881,0,0,1.4867992401123047,0,0,0.2293200045824051
0.214527898,0,0,1.4867992401123047,0,0,0.2293200045824051
0.214673433,0,0,1.4867992401123047,0,0,1.758120059967041
0.214819339,0,0,1.4867992401123047,0,0,1.758120059967041
0.214965189,0,0,1.4867992401123047,0,0,0.4586400091648102
0.215110965,0,0,1.4197616577148438,0,0,0.4586400091648102
0.215256649,0,0,1.4197616577148438,0,0,0.5350799560546875
0.215403017,0,0,1.4197616577148438,0,0,0.5350799560546875
0.215548571,0,0,1.4197616577148438,0,0,0.4586400091648102
0.215694736,0,0,1.4197616577148438,0,0,0.4586400091648102
0.21584055,0,0,1.4197616577148438,0,0,0.4586400091648102
0.215986103,0,0,1.4197616577148438,0,0,0.4586400091648102
0.216131731,0,0,1.4508862495422363,0,0,0.4586400091648102
0.216281674,0,0,1.4508862495422363,0,0,-0.305759996175766
0.216425895,0,0,1.4508862495422363,0,0,-0.305759996175766
0.216571375,0,0,1.4508862495422363,0,0,0.152879998087883
0.216717262,0,0,1.4508862495422363,0,0,0.152879998087883
0.216865964,0,0,1.4508862495422363,0,0,0.152879998087883
0.217012333,0,0,1.4508862495422363,0,0,0.152879998087883
0.217158072,0,0,1.4748282432556152,0,0,0.7644000053405762
0.217303904,0,0,1.4748282432556152,0,0,0.7644000053405762
0.217449661,0,0,1.4748282432556152,0,0,0.7644000053405762
0.217596067,0,0,1.4748282432556152,0,0,2.06387996673584
0.21774151,0,0,1.4748282432556152,0,0,2.06387996673584
0.217887341,0,0,1.4748282432556152,0,0,1.2994799613952637
0.218033081,0,0,1.4748282432556152,0,0,1.2994799613952637
0.218179023,0,0,1.4748282432556152,0,0,0.4586400091648102
0.218324966,0,0,1.4748282432556152,0,0,0.4586400091648102
0.218470687,0,0,1.4748282432556152,0,0,0.4586400091648102
0.218616537,0,0,1.4748282432556152,0,0,0.4586400091648102
0.218762109,0,0,1.4748282432556152,0,0,0.4586400091648102
0.21890783,0,0,1.4748282432556152,0,0,0.4586400091648102
0.219053643,0,0,1.6208745241165161,0,0,0.4586400091648102
0.219199419,0,0,1.6208745241165161,0,0,0.152879998087883
0.21934527,0,0,1.6208745241165161,0,0,0.152879998087883
0.219491064,0,0,1.6208745241165161,0,0,0.2293200045824051
0.219637303,0,0,1.6208745241165161,0,0,0.2293200045824051
0.219782987,0,0,1.6208745241165161,0,0,0.152879998087883
0.219928689,0,0,1.6208745241165161,0,0,0.152879998087883
0.220074539,0,0,1.5753847360610962,0,0,1.070159912109375
0.220232612,0,0,1.5753847360610962,0,0,1.070159912109375
0.220367369,0,0,1.5753847360610962,0,0,1.070159912109375
0.220512923,0,0,1.5753847360610962,0,0,0.5350799560546875
0.220658977,0,0,1.5753847360610962,0,0,0.5350799560546875
0.220808901,0,0,1.5753847360610962,0,0,0.0764399990439415
0.220952603,0,0,1.5753847360610962,0,0,0.0764399990439415
0.221098398,0,0,1.41257905960083,0,0,0.3822000026702881
0.221244045,0,0,1.41257905960083,0,0,0.3822000026702881
0.221389932,0,0,1.41257905960083,0,0,0.3822000026702881
0.221535671,0,0,1.41257905960083,0,0,0.3822000026702881
0.221681947,0,0,1.41257905960083,0,0,0.152879998087883
0.221827742,0,0,1.41257905960083,0,0,0.152879998087883
0.221973611,0,0,1.41257905960083,0,0,0.152879998087883
0.222119368,0,0,1.4053963422775269,0,0,0.5350799560546875
0.222265163,0,0,1.4053963422775269,0,0,0.5350799560546875
0.222411032,0,0,1.4053963422775269,0,0,0
0.222556863,0,0,1.4053963422775269,0,0,0
0.222702695,0,0,1.4053963422775269,0,0,0.611519992351532
0.222849638,0,0,1.4053963422775269,0,0,0.611519992351532
0.222995136,0,0,1.4053963422775269,0,0,0.5350799560546875
0.223140523,0,0,1.3455413579940796,0,0,0.5350799560546875
0.223286244,0,0,1.3455413579940796,0,0,1.070159912109375
0.223431946,0,0,1.3455413579940796,0,0,1.070159912109375
0.223577796,0,0,1.3455413579940796,0,0,1.070159912109375
0.223723054,0,0,1.3455413579940796,0,0,0
0.223869275,0,0,1.3455413579940796,0,0,0
0.22401481,0,0,1.3455413579940796,0,0,0.9172800183296204
0.224160623,0,0,1.381454348564148,0,0,0.9172800183296204
0.224307936,0,0,1.381454348564148,0,0,1.452359914779663
0.224453879,0,0,1.381454348564148,0,0,1.452359914779663
0.224599711,0,0,1.381454348564148,0,0,0.8408399820327759
0.224745598,0,0,1.381454348564148,0,0,0.8408399820327759
0.224891671,0,0,1.381454348564148,0,0,0.8408399820327759
0.225037521,0,0,1.381454348564148,0,0,0.9937199950218201
0.225183112,0,0,1.434126853942871,0,0,0.9937199950218201
0.225332369,0,0,1.434126853942871,0,0,1.2994799613952637
0.225476646,0,0,1.434126853942871,0,0,1.2994799613952637
0.225622162,0,0,1.434126853942871,0,0,1.5288000106811523
0.225767976,0,0,1.434126853942871,0,0,1.5288000106811523
0.225913992,0,0,1.434126853942871,0,0,0.9172800183296204
0.226059972,0,0,1.5083470344543457,0,0,0.9172800183296204
0.226205785,0,0,1.5083470344543457,0,0,1.1466000080108643
0.22635158,0,0,1.5083470344543457,0,0,1.1466000080108643
0.226497375,0,0,1.5083470344543457,0,0,1.1466000080108643
0.22664341,0,0,1.5083470344543457,0,0,1.5288000106811523
0.22678876,0,0,1.5083470344543457,0,0,1.5288000106811523
0.226934888,0,0,1.5083470344543457,0,0,1.070159912109375
0.227080794,0,0,1.6639702320098877,0,0,1.070159912109375
0.227226459,0,0,1.6639702320098877,0,0,1.452359914779663
0.227372439,0,0,1.6639702320098877,0,0,1.452359914779663
0.22751803,0,0,1.6639702320098877,0,0,0.8408399820327759
0.227663862,0,0,1.6639702320098877,0,0,0.8408399820327759
0.227809416,0,0,1.6639702320098877,0,0,0.8408399820327759
0.227955544,0,0,1.6639702320098877,0,0,0.8408399820327759
0.228101487,0,0,1.6903064250946045,0,0,0.8408399820327759
0.228248411,0,0,1.6903064250946045,0,0,2.2167599201202393
0.228393335,0,0,1.6903064250946045,0,0,2.2167599201202393
0.228538926,0,0,1.6903064250946045,0,0,1.2994799613952637
0.228684628,0,0,1.6903064250946045,0,0,1.2994799613952637
0.22883046,0,0,1.6903064250946045,0,0,0.2293200045824051
0.22897631,0,0,1.6903064250946045,0,0,0.2293200045824051
0.229122494,0,0,1.558625340461731,0,0,0.2293200045824051
0.229268159,0,0,1.558625340461731,0,0,0.2293200045824051
0.229414027,0,0,1.558625340461731,0,0,0.2293200045824051
0.229559767,0,0,1.558625340461731,0,0,1.758120059967041
0.229705432,0,0,1.558625340461731,0,0,1.758120059967041
0.229861874,0,0,1.558625340461731,0,0,0.2293200045824051
0.229998799,0,0,1.558625340461731,0,0,0.2293200045824051
0.230144778,0,0,1.6065093278884888,0,0,0.7644000053405762
0.230290462,0,0,1.6065093278884888,0,0,0.7644000053405762
0.230436405,0,0,1.6065093278884888,0,0,0.9172800183296204
0.230582144,0,0,1.6065093278884888,0,0,0.9172800183296204
0.230727939,0,0,1.6065093278884888,0,0,0.305759996175766
0.230873789,0,0,1.6065093278884888,0,0,0.305759996175766
0.231019528,0,0,1.6065093278884888,0,0,0.305759996175766
0.231165508,0,0,1.601720929145813,0,0,0.0764399990439415
0.23131121,0,0,1.601720929145813,0,0,0.0764399990439415
0.231457264,0,0,1.601720929145813,0,0,0.305759996175766
0.231602873,0,0,1.601720929145813,0,0,0.305759996175766
0.231750668,0,0,1.601720929145813,0,0,0
0.231897314,0,0,1.601720929145813,0,0,0
0.232043128,0,0,1.601720929145813,0,0,0.6879600286483765
0.232189256,0,0,1.455674648284912,0,0,0.6879600286483765
0.232336032,0,0,1.455674648284912,0,0,0.6879600286483765
0.232480826,0,0,1.455674648284912,0,0,0.6879600286483765
0.232626529,0,0,1.455674648284912,0,0,0.6879600286483765
0.232772231,0,0,1.455674648284912,0,0,0
0.232918044,0,0,1.455674648284912,0,0,0
0.233063764,0,0,1.359906554222107,0,0,0.6879600286483765
0.233209781,0,0,1.359906554222107,0,0,0.6879600286483765
0.233355631,0,0,1.359906554222107,0,0,0.5350799560546875
0.233501259,0,0,1.359906554222107,0,0,0.5350799560546875
0.233647036,0,0,1.359906554222107,0,0,0.4586400091648102
0.233792608,0,0,1.359906554222107,0,0,0.4586400091648102
0.233938366,0,0,1.359906554222107,0,0,0.4586400091648102
0.234084197,0,0,1.436521053314209,0,0,0.0764399990439415
0.234229807,0,0,1.436521053314209,0,0,0.0764399990439415
0.234379639,0,0,1.436521053314209,0,0,0
0.234523581,0,0,1.436521053314209,0,0,0
0.234669561,0,0,1.436521053314209,0,0,0.152879998087883
0.234814948,0,0,1.436521053314209,0,0,0.152879998087883
0.234960891,0,0,1.436521053314209,0,0,0.5350799560546875
0.23511276,0,0,1.41257905960083,0,0,0.5350799560546875
0.235252462,0,0,1.41257905960083,0,0,0.5350799560546875
0.235398572,0,0,1.41257905960083,0,0,0.5350799560546875
0.23554407,0,0,1.41257905960083,0,0,0.5350799560546875
0.23568992,0,0,1.41257905960083,0,0,-0.3822000026702881
0.235835696,0,0,1.41257905960083,0,0,-0.3822000026702881
0.235981472,0,0,1.41257905960083,0,0,1.070159912109375
0.236127119,0,0,1.4437036514282227,0,0,1.070159912109375
0.236274488,0,0,1.4437036514282227,0,0,1.223039984703064
0.236420912,0,0,1.4437036514282227,0,0,1.223039984703064
0.236566799,0,0,1.4437036514282227,0,0,0.9172800183296204
0.236712631,0,0,1.4437036514282227,0,0,0.9172800183296204
0.236858203,0,0,1.4437036514282227,0,0,0.9172800183296204
0.237003961,0,0,1.4437036514282227,0,0,1.070159912109375
0.237149589,0,0,1.403002142906189,0,0,1.070159912109375
0.237295439,0,0,1.403002142906189,0,0,0.8408399820327759
0.237441734,0,0,1.403002142906189,0,0,0.8408399820327759
0.237587732,0,0,1.403002142906189,0,0,1.1466000080108643
0.237733638,0,0,1.403002142906189,0,0,1.1466000080108643
0.237879396,0,0,1.403002142906189,0,0,0.611519992351532
0.23802519,0,0,1.403002142906189,0,0,0.611519992351532
0.238170929,0,0,1.522712230682373,0,0,0.9937199950218201
0.238316595,0,0,1.522712230682373,0,0,0.9937199950218201
0.238462704,0,0,1.522712230682373,0,0,0.9937199950218201
0.238608665,0,0,1.522712230682373,0,0,1.375920057296753
0.238754534,0,0,1.522712230682373,0,0,1.375920057296753
0.238903736,0,0,1.522712230682373,0,0,1.375920057296753
0.239048012,0,0,1.522712230682373,0,0,1.375920057296753
0.239199696,0,0,1.625662922859192,0,0,1.5288000106811523
0.239339657,0,0,1.625662922859192,0,0,1.5288000106811523
0.239485193,0,0,1.625662922859192,0,0,1.375920057296753
0.239631432,0,0,1.625662922859192,0,0,1.375920057296753
0.239777152,0,0,1.625662922859192,0,0,0.5350799560546875
0.239922984,0,0,1.625662922859192,0,0,0.5350799560546875
0.240068816,0,0,1.625662922859192,0,0,0.5350799560546875
0.240214592,0,0,1.5921441316604614,0,0,1.375920057296753
0.240361312,0,0,1.5921441316604614,0,0,1.375920057296753
0.240507014,0,0,1.5921441316604614,0,0,1.452359914779663
0.240652828,0,0,1.5921441316604614,0,0,1.452359914779663
0.240798696,0,0,1.5921441316604614,0,0,0.9937199950218201
0.240944343,0,0,1.5921441316604614,0,0,0.9937199950218201
0.241090045,0,0,1.6543933153152466,0,0,0.7644000053405762
0.241236025,0,0,1.6543933153152466,0,0,0.7644000053405762
0.241381801,0,0,1.6543933153152466,0,0,0.7644000053405762
0.241527522,0,0,1.6543933153152466,0,0,1.5288000106811523
0.241673613,0,0,1.6543933153152466,0,0,1.5288000106811523
0.241819666,0,0,1.6543933153152466,0,0,1.8345600366592407
0.241965517,0,0,1.6543933153152466,0,0,1.8345600366592407
0.242111163,0,0,1.5634137392044067,0,0,1.2994799613952637
0.242257013,0,0,1.5634137392044067,0,0,1.2994799613952637
0.242402716,0,0,1.5634137392044067,0,0,1.070159912109375
0.242548584,0,0,1.5634137392044067,0,0,1.070159912109375
0.242694546,0,0,1.5634137392044067,0,0,0.4586400091648102
0.242840674,0,0,1.5634137392044067,0,0,0.4586400091648102
0.242986394,0,0,1.5634137392044067,0,0,0.4586400091648102
0.243132078,0,0,1.45806884765625,0,0,1.5288000106811523
0.243277965,0,0,1.45806884765625,0,0,1.5288000106811523
0.243427204,0,0,1.45806884765625,0,0,0.4586400091648102
0.243572425,0,0,1.45806884765625,0,0,0.4586400091648102
0.24371696,0,0,1.45806884765625,0,0,0.9937199950218201
0.243861255,0,0,1.45806884765625,0,0,0.9937199950218201
0.24400542,0,0,1.45806884765625,0,0,0.3822000026702881
0.244149585,0,0,1.4437036514282227,0,0,0.3822000026702881
0.244299102,0,0,1.4437036514282227,0,0,0.3822000026702881
0.244445785,0,0,1.4437036514282227,0,0,1.223039984703064
0.244591635,0,0,1.4437036514282227,0,0,1.223039984703064
0.244738134,0,0,1.4437036514282227,0,0,0.4586400091648102
0.244883984,0,0,1.4437036514282227,0,0,0.4586400091648102
0.245029779,0,0,1.4437036514282227,0,0,0.6879600286483765
0.245175481,0,0,1.4413094520568848,0,0,0.6879600286483765
0.245321109,0,0,1.4413094520568848,0,0,0.3822000026702881
0.245466811,0,0,1.4413094520568848,0,0,0.3822000026702881
0.245612717,0,0,1.4413094520568848,0,0,0.305759996175766
0.2457584,0,0,1.4413094520568848,0,0,0.305759996175766
0.245904862,0,0,1.4413094520568848,0,0,0.305759996175766
0.246050267,0,0,1.4413094520568848,0,0,0.4586400091648102
0.246195988,0,0,1.338358759880066,0,0,0.4586400091648102
0.246341838,0,0,1.338358759880066,0,0,0
0.246487688,0,0,1.338358759880066,0,0,0
0.246633316,0,0,1.338358759880066,0,0,0.5350799560546875
0.246778907,0,0,1.338358759880066,0,0,0.5350799560546875
0.246925035,0,0,1.338358759880066,0,0,1.223039984703064
0.247070571,0,0,1.338358759880066,0,0,1.223039984703064
0.247216439,0,0,1.4437036514282227,0,0,1.1466000080108643
0.247362086,0,0,1.4437036514282227,0,0,1.1466000080108643
0.247507844,0,0,1.4437036514282227,0,0,1.1466000080108643
0.247653675,0,0,1.4437036514282227,0,0,0
0.247799303,0,0,1.4437036514282227,0,0,0
0.247949098,0,0,1.4437036514282227,0,0,0.7644000053405762
0.24809317,0,0,1.580173134803772,0,0,0.7644000053405762
0.248245428,0,0,1.580173134803772,0,0,1.070159912109375
0.24839163,0,0,1.580173134803772,0,0,1.070159912109375
0.248543795,0,0,1.580173134803772,0,0,0.4586400091648102
0.248682793,0,0,1.580173134803772,0,0,0.4586400091648102
0.248828273,0,0,1.580173134803772,0,0,0.4586400091648102
0.248974549,0,0,1.580173134803772,0,0,0.5350799560546875
0.249120289,0,0,1.6136919260025024,0,0,0.5350799560546875
0.24926612,0,0,1.6136919260025024,0,0,0.9937199950218201
0.249411841,0,0,1.6136919260025024,0,0,0.9937199950218201
0.249557321,0,0,1.6136919260025024,0,0,0.305759996175766
0.24970306,0,0,1.6136919260025024,0,0,0.305759996175766
0.249848929,0,0,1.6136919260025024,0,0,0.611519992351532
0.249995168,0,0,1.6136919260025024,0,0,0.611519992351532
0.250141129,0,0,1.6879122257232666,0,0,0.6879600286483765
0.250286757,0,0,1.6879122257232666,0,0,0.6879600286483765
0.250432478,0,0,1.6879122257232666,0,0,0.6879600286483765
0.250578346,0,0,1.6879122257232666,0,0,0.8408399820327759
0.250724178,0,0,1.6879122257232666,0,0,0.8408399820327759
0.250869732,0,0,1.6879122257232666,0,0,0.0764399990439415
0.251015527,0,0,1.6879122257232666,0,0,0.0764399990439415
0.251161766,0,0,1.5753847360610962,0,0,0.152879998087883
0.251307616,0,0,1.5753847360610962,0,0,0.152879998087883
0.251453503,0,0,1.5753847360610962,0,0,0.5350799560546875
0.251599113,0,0,1.5753847360610962,0,0,0.5350799560546875
0.251744833,0,0,1.5753847360610962,0,0,0.7644000053405762
0.251890665,0,0,1.5753847360610962,0,0,0.7644000053405762
0.252036423,0,0,1.5753847360610962,0,0,0.7644000053405762
0.252182199,0,0,1.580173134803772,0,0,-29.582279205322266
0.252329123,0,0,1.580173134803772,0,0,-29.582279205322266
0.252477566,0,0,1.580173134803772,0,0,0.2293200045824051
0.252621731,0,0,1.580173134803772,0,0,0.2293200045824051
0.252767396,0,0,1.580173134803772,0,0,0.6879600286483765
0.252913098,0,0,1.580173134803772,0,0,0.6879600286483765
0.253059096,0,0,1.580173134803772,0,0,1.2994799613952637
0.253205169,0,0,1.5969325304031372,0,0,1.2994799613952637
0.253350926,0,0,1.5969325304031372,0,0,1.2994799613952637
0.253496703,0,0,1.5969325304031372,0,0,1.070159912109375
0.253642627,0,0,1.5969325304031372,0,0,1.070159912109375
0.253788199,0,0,1.5969325304031372,0,0,0.152879998087883
0.253934142,0,0,1.5969325304031372,0,0,0.152879998087883
0.254080122,0,0,1.5969325304031372,0,0,0.9937199950218201
0.254225917,0,0,1.5179238319396973,0,0,0.9937199950218201
0.2543716,0,0,1.5179238319396973,0,0,0.7644000053405762
0.25451721,0,0,1.5179238319396973,0,0,0.7644000053405762
0.254663171,0,0,1.5179238319396973,0,0,0.8408399820327759
0.254808873,0,0,1.5179238319396973,0,0,0.8408399820327759
0.254954334,0,0,1.5179238319396973,0,0,0.8408399820327759
0.255100185,0,0,1.5179238319396973,0,0,1.070159912109375
0.255246424,0,0,1.4508862495422363,0,0,1.070159912109375
0.255392478,0,0,1.4508862495422363,0,0,1.5288000106811523
0.255538013,0,0,1.4508862495422363,0,0,1.5288000106811523
0.255683882,0,0,1.4508862495422363,0,0,1.375920057296753
0.255829565,0,0,1.4508862495422363,0,0,1.375920057296753
0.25597536,0,0,1.4508862495422363,0,0,0.611519992351532
0.256121007,0,0,1.3072341680526733,0,0,0.611519992351532
0.256268431,0,0,1.3072341680526733,0,0,0.611519992351532
0.25641367,0,0,1.3072341680526733,0,0,0.8408399820327759
0.256559465,0,0,1.3072341680526733,0,0,0.8408399820327759
0.256705315,0,0,1.3072341680526733,0,0,1.9109998941421509
0.256851109,0,0,1.3072341680526733,0,0,1.9109998941421509
0.257000571,0,0,1.3072341680526733,0,0,0.9172800183296204
0.257144736,0,0,1.3239935636520386,0,0,0.9172800183296204
0.257290364,0,0,1.3239935636520386,0,0,1.070159912109375
0.257436584,0,0,1.3239935636520386,0,0,1.070159912109375
0.257582249,0,0,1.3239935636520386,0,0,0.4586400091648102
0.257727952,0,0,1.3239935636520386,0,0,0.4586400091648102
0.257880117,0,0,1.3239935636520386,0,0,0.4586400091648102
0.258019948,0,0,1.3239935636520386,0,0,0.7644000053405762
0.258165521,0,0,1.357512354850769,0,0,0.7644000053405762
0.258311241,0,0,1.357512354850769,0,0,1.5288000106811523
0.258457221,0,0,1.357512354850769,0,0,1.5288000106811523
0.258602775,0,0,1.357512354850769,0,0,0.4586400091648102
0.258748588,0,0,1.357512354850769,0,0,0.4586400091648102
0.258894253,0,0,1.357512354850769,0,0,0.611519992351532
0.259040085,0,0,1.357512354850769,0,0,0.611519992351532
0.259185898,0,0,1.4987702369689941,0,0,0.3822000026702881
0.259331693,0,0,1.4987702369689941,0,0,0.3822000026702881
0.25947771,0,0,1.4987702369689941,0,0,0.3822000026702881
0.259623467,0,0,1.4987702369689941,0,0,0
0.259769373,0,0,1.4987702369689941,0,0,0
0.259915223,0,0,1.4987702369689941,0,0,0.305759996175766
0.260066999,0,0,1.4987702369689941,0,0,0.305759996175766
0.260207146,0,0,1.5298948287963867,0,0,1.1466000080108643
0.260353348,0,0,1.5298948287963867,0,0,1.1466000080108643
0.260499421,0,0,1.5298948287963867,0,0,0.152879998087883
0.260645049,0,0,1.5298948287963867,0,0,0.152879998087883
0.260790991,0,0,1.5298948287963867,0,0,0.152879998087883
0.260936712,0,0,1.5298948287963867,0,0,1.1466000080108643
0.261082729,0,0,1.5298948287963867,0,0,1.1466000080108643
0.261228468,0,0,1.6711528301239014,0,0,0.611519992351532
0.261374466,0,0,1.6711528301239014,0,0,0.611519992351532
0.261524039,0,0,1.6711528301239014,0,0,9.478560447692871
0.261668315,0,0,1.6711528301239014,0,0,9.478560447692871
0.261814406,0,0,1.6711528301239014,0,0,0.2293200045824051
0.261959941,0,0,1.6711528301239014,0,0,0.2293200045824051
0.262105736,0,0,1.6711528301239014,0,0,0.2293200045824051
0.262251642,0,0,1.5442601442337036,0,0,0.2293200045824051
0.262397418,0,0,1.5442601442337036,0,0,0.2293200045824051
0.262543268,0,0,1.5442601442337036,0,0,0.6879600286483765
0.262689507,0,0,1.5442601442337036,0,0,0.6879600286483765
0.262835172,0,0,1.5442601442337036,0,0,0.7644000053405762
0.262980856,0,0,1.5442601442337036,0,0,0.7644000053405762
0.263126521,0,0,1.5634137392044067,0,0,0.3822000026702881
0.263272519,0,0,1.5634137392044067,0,0,0.3822000026702881
0.26341824,0,0,1.5634137392044067,0,0,0.3822000026702881
0.263564108,0,0,1.5634137392044067,0,0,0.3822000026702881
0.263710033,0,0,1.5634137392044067,0,0,0.8408399820327759
0.263855439,0,0,1.5634137392044067,0,0,0.8408399820327759
0.264001326,0,0,1.5634137392044067,0,0,0.8408399820327759
0.264147195,0,0,1.5705963373184204,0,0,-0.611519992351532
0.264294267,0,0,1.5705963373184204,0,0,-0.611519992351532
0.264439117,0,0,1.5705963373184204,0,0,0.305759996175766
0.264584986,0,0,1.5705963373184204,0,0,0.305759996175766
0.264730929,0,0,1.5705963373184204,0,0,1.070159912109375
0.26487676,0,0,1.5705963373184204,0,0,1.070159912109375
0.265022592,0,0,1.5705963373184204,0,0,1.1466000080108643
0.265168405,0,0,1.3910311460494995,0,0,1.1466000080108643
0.265314219,0,0,1.3910311460494995,0,0,1.1466000080108643
0.265459847,0,0,1.3910311460494995,0,0,1.1466000080108643
0.265605715,0,0,1.3910311460494995,0,0,1.1466000080108643
0.265751806,0,0,1.3910311460494995,0,0,1.1466000080108643
0.265897545,0,0,1.3910311460494995,0,0,1.1466000080108643
0.266047007,0,0,1.3910311460494995,0,0,1.6816799640655518
0.266191135,0,0,1.50355863571167,0,0,1.6816799640655518
0.266336818,0,0,1.50355863571167,0,0,0.9172800183296204
0.266482465,0,0,1.50355863571167,0,0,0.9172800183296204
0.266628037,0,0,1.50355863571167,0,0,0.9172800183296204
0.266774054,0,0,1.50355863571167,0,0,0.9172800183296204
0.266919719,0,0,1.50355863571167,0,0,0.9172800183296204
0.26706544,0,0,1.50355863571167,0,0,1.758120059967041
0.267217549,0,0,1.381454348564148,0,0,1.758120059967041
0.267357196,0,0,1.381454348564148,0,0,0.6879600286483765
0.267502805,0,0,1.381454348564148,0,0,0.6879600286483765
0.267648544,0,0,1.381454348564148,0,0,1.1466000080108643
0.267794432,0,0,1.381454348564148,0,0,1.1466000080108643
0.267940652,0,0,1.381454348564148,0,0,0.7644000053405762
0.268086539,0,0,1.381454348564148,0,0,0.7644000053405762
0.268242167,0,0,1.4724340438842773,0,0,0.5350799560546875
0.268387295,0,0,1.4724340438842773,0,0,0.5350799560546875
0.26853159,0,0,1.4724340438842773,0,0,0.5350799560546875
0.268675866,0,0,1.4724340438842773,0,0,0
0.268820161,0,0,1.4724340438842773,0,0,0
0.268964956,0,0,1.4724340438842773,0,0,1.375920057296753
0.269108991,0,0,1.4724340438842773,0,0,1.375920057296753
0.269253175,0,0,1.4844050407409668,0,0,0.305759996175766
0.269397136,0,0,1.4844050407409668,0,0,0.305759996175766
0.269541375,0,0,1.4844050407409668,0,0,0.4586400091648102
0.269685725,0,0,1.4844050407409668,0,0,0.4586400091648102
0.269829983,0,0,1.4844050407409668,0,0,0.4586400091648102
0.269974555,0,0,1.4844050407409668,0,0,1.605239987373352
0.270118813,0,0,1.4844050407409668,0,0,1.605239987373352
0.270263108,0,0,1.4437036514282227,0,0,0
0.270407347,0,0,1.4437036514282227,0,0,0
0.270554993,0,0,1.4437036514282227,0,0,0.5350799560546875
0.270697566,0,0,1.4437036514282227,0,0,0.5350799560546875
0.270841823,0,0,1.4437036514282227,0,0,1.070159912109375
0.270986303,0,0,1.4437036514282227,0,0,1.070159912109375
0.27113082,0,0,1.4437036514282227,0,0,1.070159912109375
0.271275207,0,0,1.647210717201233,0,0,1.8345600366592407
0.27141928,0,0,1.647210717201233,0,0,1.8345600366592407
0.271563297,0,0,1.647210717201233,0,0,-0.305759996175766
0.271707536,0,0,1.647210717201233,0,0,-0.305759996175766
0.271851757,0,0,1.647210717201233,0,0,1.2994799613952637
0.271996162,0,0,1.647210717201233,0,0,1.2994799613952637
0.27214042,0,0,1.5753847360610962,0,0,0.2293200045824051
0.272286881,0,0,1.5753847360610962,0,0,0.2293200045824051
0.272432602,0,0,1.5753847360610962,0,0,0.2293200045824051
0.272578211,0,0,1.5753847360610962,0,0,0.305759996175766
0.272723784,0,0,1.5753847360610962,0,0,0.305759996175766
0.272869523,0,0,1.5753847360610962,0,0,0
0.273014984,0,0,1.5753847360610962,0,0,0
0.273161149,0,0,1.4844050407409668,0,0,0.152879998087883
0.273306666,0,0,1.4844050407409668,0,0,0.152879998087883
0.273451924,0,0,1.4844050407409668,0,0,1.452359914779663
0.273597663,0,0,1.4844050407409668,0,0,1.452359914779663
0.273743124,0,0,1.4844050407409668,0,0,1.070159912109375
0.273888567,0,0,1.4844050407409668,0,0,1.070159912109375
0.274034214,0,0,1.4844050407409668,0,0,1.070159912109375
0.274179842,0,0,1.6304513216018677,0,0,1.452359914779663
0.274325747,0,0,1.6304513216018677,0,0,1.452359914779663
0.274471209,0,0,1.6304513216018677,0,0,1.9874399900436401
0.274616578,0,0,1.6304513216018677,0,0,1.9874399900436401
0.274762039,0,0,1.6304513216018677,0,0,1.223039984703064
0.274907704,0,0,1.6304513216018677,0,0,1.223039984703064
0.275056758,0,0,1.6304513216018677,0,0,0.611519992351532
0.275200867,0,0,1.4053963422775269,0,0,0.611519992351532
0.275346569,0,0,1.4053963422775269,0,0,0.611519992351532
0.275492216,0,0,1.4053963422775269,0,0,0.9172800183296204
0.275637622,0,0,1.4053963422775269,0,0,0.9172800183296204
0.275783064,0,0,1.4053963422775269,0,0,1.452359914779663
0.275928618,0,0,1.4053963422775269,0,0,1.452359914779663
0.276074265,0,0,1.4053963422775269,0,0,0.305759996175766
0.276229559,0,0,1.455674648284912,0,0,0.305759996175766
0.276366558,0,0,1.455674648284912,0,0,0
0.276518204,0,0,1.455674648284912,0,0,0
0.276657629,0,0,1.455674648284912,0,0,1.1466000080108643
0.276802886,0,0,1.455674648284912,0,0,1.1466000080108643
0.2769482,0,0,1.455674648284912,0,0,1.1466000080108643
0.277093698,0,0,1.455674648284912,0,0,0.6879600286483765
0.277239604,0,0,1.3862427473068237,0,0,0.6879600286483765
0.277385047,0,0,1.3862427473068237,0,0,0
0.277530526,0,0,1.3862427473068237,0,0,0
0.277676377,0,0,1.3862427473068237,0,0,1.452359914779663
0.277821782,0,0,1.3862427473068237,0,0,1.452359914779663
0.277967373,0,0,1.3862427473068237,0,0,1.1466000080108643
0.278112909,0,0,1.3862427473068237,0,0,1.1466000080108643
0.278258555,0,0,1.2976573705673218,0,0,0.9937199950218201
0.278404313,0,0,1.2976573705673218,0,0,0.9937199950218201
0.278550108,0,0,1.2976573705673218,0,0,0.9937199950218201
0.27869568,0,0,1.2976573705673218,0,0,1.6816799640655518
0.278841234,0,0,1.2976573705673218,0,0,1.6816799640655518
0.278986566,0,0,1.2976573705673218,0,0,1.2994799613952637
0.279132064,0,0,1.2976573705673218,0,0,1.2994799613952637
0.279277488,0,0,1.3718775510787964,0,0,0.6879600286483765
0.27942332,0,0,1.3718775510787964,0,0,0.6879600286483765
0.279572522,0,0,1.3718775510787964,0,0,0.2293200045824051
0.279716558,0,0,1.3718775510787964,0,0,0.2293200045824051
0.279862,0,0,1.3718775510787964,0,0,0.2293200045824051
0.280007499,0,0,1.3718775510787964,0,0,1.5288000106811523
0.280153108,0,0,1.3718775510787964,0,0,1.5288000106811523
0.280299903,0,0,1.5131354331970215,0,0,0.2293200045824051
0.280445198,0,0,1.5131354331970215,0,0,0.2293200045824051
0.28059064,0,0,1.5131354331970215,0,0,0.7644000053405762
0.280736231,0,0,1.5131354331970215,0,0,0.7644000053405762
0.280881767,0,0,1.5131354331970215,0,0,0.152879998087883
0.281027284,0,0,1.5131354331970215,0,0,0.152879998087883
0.281172856,0,0,1.623268723487854,0,0,0.7644000053405762
0.281318447,0,0,1.623268723487854,0,0,0.7644000053405762
0.281464279,0,0,1.623268723487854,0,0,0.7644000053405762
0.281609759,0,0,1.623268723487854,0,0,-0.3822000026702881
0.281755164,0,0,1.623268723487854,0,0,-0.3822000026702881
0.281900663,0,0,1.623268723487854,0,0,1.5288000106811523
0.282046235,0,0,1.623268723487854,0,0,1.5288000106811523
0.282191734,0,0,1.6328455209732056,0,0,1.6816799640655518
0.282337287,0,0,1.6328455209732056,0,0,1.6816799640655518
0.282483212,0,0,1.6328455209732056,0,0,1.223039984703064
0.282628821,0,0,1.6328455209732056,0,0,1.223039984703064
0.282774042,0,0,1.6328455209732056,0,0,1.223039984703064
0.28291967,0,0,1.6328455209732056,0,0,1.758120059967041
0.283065224,0,0,1.6328455209732056,0,0,1.758120059967041
0.283210926,0,0,1.5394717454910278,0,0,0.8408399820327759
0.283356498,0,0,1.5394717454910278,0,0,0.8408399820327759
0.283501886,0,0,1.5394717454910278,0,0,0.3822000026702881
0.283647606,0,0,1.5394717454910278,0,0,0.3822000026702881
0.283793049,0,0,1.5394717454910278,0,0,0.4586400091648102
0.283938603,0,0,1.5394717454910278,0,0,0.4586400091648102
0.284087564,0,0,1.5394717454910278,0,0,0.6879600286483765
0.284240581,0,0,1.5705963373184204,0,0,0.6879600286483765
0.284387283,0,0,1.5705963373184204,0,0,0.6879600286483765
0.28453267,0,0,1.5705963373184204,0,0,0.611519992351532
0.284678465,0,0,1.5705963373184204,0,0,0.611519992351532
0.284823519,0,0,1.5705963373184204,0,0,0.611519992351532
0.284975184,0,0,1.5705963373184204,0,0,0.611519992351532
0.285114905,0,0,1.5705963373184204,0,0,1.6816799640655518
0.285260236,0,0,1.5634137392044067,0,0,1.6816799640655518
0.285406049,0,0,1.5634137392044067,0,0,0.9172800183296204
0.285551418,0,0,1.5634137392044067,0,0,0.9172800183296204
0.285697417,0,0,1.5634137392044067,0,0,1.2994799613952637
0.2858571,0,0,1.5634137392044067,0,0,1.2994799613952637
0.285988784,0,0,1.5634137392044067,0,0,1.2994799613952637
0.286133949,0,0,1.5634137392044067,0,0,1.5288000106811523
0.286279577,0,0,1.4053963422775269,0,0,1.5288000106811523
0.286425168,0,0,1.4053963422775269,0,0,1.605239987373352
0.286570722,0,0,1.4053963422775269,0,0,1.605239987373352
0.286747609,0,0,1.4053963422775269,0,0,0.611519992351532
0.286866848,0,0,1.4053963422775269,0,0,0.611519992351532
0.28704792,0,0,1.4053963422775269,0,0,0.611519992351532
0.287157993,0,0,1.4053963422775269,0,0,0.611519992351532
0.287338583,0,0,1.3263877630233765,0,0,1.375920057296753
0.287483508,0,0,1.3263877630233765,0,0,1.375920057296753
0.287628469,0,0,1.3263877630233765,0,0,1.375920057296753
0.287774393,0,0,1.3263877630233765,0,0,1.2994799613952637
0.287919707,0,0,1.3263877630233765,0,0,1.2994799613952637
0.288065168,0,0,1.3263877630233765,0,0,1.9874399900436401
0.288210555,0,0,1.3742717504501343,0,0,1.9874399900436401
0.288357146,0,0,1.3742717504501343,0,0,0.9937199950218201
0.288502478,0,0,1.3742717504501343,0,0,0.9937199950218201
0.288656235,0,0,1.3742717504501343,0,0,1.2994799613952637
0.288798141,0,0,1.3742717504501343,0,0,1.2994799613952637
0.289143434,0,0,1.3742717504501343,0,0,0.9172800183296204
0.289174267,0,0,1.3024457693099976,0,0,0.9172800183296204
0.289414134,0,0,1.3024457693099976,0,0,0.8408399820327759
0.289565984,0,0,1.3024457693099976,0,0,0.8408399820327759
0.289740705,0,0,1.3024457693099976,0,0,0.5350799560546875
0.289928777,0,0,1.3024457693099976,0,0,0.7644000053405762
0.290076719,0,0,1.3024457693099976,0,0,0.7644000053405762
0.290222699,0,0,1.414973258972168,0,0,0.7644000053405762
0.290368105,0,0,1.414973258972168,0,0,0.8408399820327759
0.290513659,0,0,1.414973258972168,0,0,0.8408399820327759
0.290659287,0,0,1.414973258972168,0,0,1.8345600366592407
0.290804841,0,0,1.414973258972168,0,0,1.8345600366592407
0.290950691,0,0,1.414973258972168,0,0,0.5350799560546875
0.291096301,0,0,1.414973258972168,0,0,0.5350799560546875
0.29124191,0,0,1.4987702369689941,0,0,0.5350799560546875
0.291387501,0,0,1.4987702369689941,0,0,0.5350799560546875
0.291532944,0,0,1.4987702369689941,0,0,0.2293200045824051
0.291678498,0,0,1.4987702369689941,0,0,0.2293200045824051
0.29182407,0,0,1.4987702369689941,0,0,0.2293200045824051
0.29196992,0,0,1.4987702369689941,0,0,1.2994799613952637
0.292115326,0,0,1.4987702369689941,0,0,1.2994799613952637
0.292331546,0,0,1.601720929145813,0,0,-29.582279205322266
0.292478767,0,0,1.601720929145813,0,0,9.554999351501465
0.292624728,0,0,1.601720929145813,0,0,1.070159912109375
0.292770763,0,0,1.601720929145813,0,0,1.070159912109375
0.292916669,0,0,1.601720929145813,0,0,0.9172800183296204
0.293062816,0,0,1.601720929145813,0,0,0.9172800183296204
0.293208129,0,0,1.6328455209732056,0,0,1.375920057296753
0.293354016,0,0,1.6328455209732056,0,0,1.375920057296753
0.293509348,0,0,1.6328455209732056,0,0,1.5288000106811523
0.293651031,0,0,1.6328455209732056,0,0,1.5288000106811523
0.293796919,0,0,1.6328455209732056,0,0,0.152879998087883
0.293942713,0,0,1.6328455209732056,0,0,0.152879998087883
0.294088878,0,0,1.6328455209732056,0,0,0.152879998087883
0.294234562,0,0,1.577778935432434,0,0,0.2293200045824051
0.294380431,0,0,1.577778935432434,0,0,0.2293200045824051
0.294526336,0,0,1.577778935432434,0,0,0.9172800183296204
0.294672094,0,0,1.577778935432434,0,0,0.9172800183296204
0.294817796,0,0,1.577778935432434,0,0,0.2293200045824051
0.294963443,0,0,1.577778935432434,0,0,0.2293200045824051
0.295109645,0,0,1.577778935432434,0,0,0.9937199950218201
0.295255513,0,0,1.5322890281677246,0,0,0.9937199950218201
0.295401215,0,0,1.5322890281677246,0,0,0.9937199950218201
0.295562806,0,0,1.5322890281677246,0,0,0.9937199950218201
0.29569262,0,0,1.5322890281677246,0,0,0.9937199950218201
0.295838118,0,0,1.5322890281677246,0,0,-0.4586400091648102
0.295983857,0,0,1.5322890281677246,0,0,-0.4586400091648102
0.296129652,0,0,1.5322890281677246,0,0,1.2994799613952637
0.296277058,0,0,1.5203180313110352,0,0,1.2994799613952637
0.296421889,0,0,1.5203180313110352,0,0,0.6879600286483765
0.296567406,0,0,1.5203180313110352,0,0,0.6879600286483765
0.296713349,0,0,1.5203180313110352,0,0,1.375920057296753
0.296858921,0,0,1.5203180313110352,0,0,1.375920057296753
0.297004716,0,0,1.5203180313110352,0,0,1.375920057296753
0.297150474,0,0,1.5203180313110352,0,0,0.9937199950218201
0.297296528,0,0,1.400607943534851,0,0,0.9937199950218201
0.297442322,0,0,1.400607943534851,0,0,1.223039984703064
0.297588302,0,0,1.400607943534851,0,0,1.223039984703064
0.297733949,0,0,1.400607943534851,0,0,1.605239987373352
0.297879595,0,0,1.400607943534851,0,0,1.605239987373352
0.298028816,0,0,1.400607943534851,0,0,1.223039984703064
0.298172888,0,0,1.400607943534851,0,0,1.223039984703064
0.29831872,0,0,1.436521053314209,0,0,1.1466000080108643
0.298464533,0,0,1.436521053314209,0,0,1.1466000080108643
0.29861018,0,0,1.436521053314209,0,0,1.1466000080108643
0.298755808,0,0,1.436521053314209,0,0,0.8408399820327759
0.298901676,0,0,1.436521053314209,0,0,0.8408399820327759
0.299047341,0,0,1.436521053314209,0,0,1.758120059967041
0.299193173,0,0,1.4293384552001953,0,0,1.758120059967041
0.299339301,0,0,1.4293384552001953,0,0,1.375920057296753
0.299484929,0,0,1.4293384552001953,0,0,1.375920057296753
0.299630742,0,0,1.4293384552001953,0,0,1.070159912109375
0.299776518,0,0,1.4293384552001953,0,0,1.070159912109375
0.299922054,0,0,1.4293384552001953,0,0,1.070159912109375
0.300067774,0,0,1.4293384552001953,0,0,1.223039984703064
0.300213717,0,0,1.3311761617660522,0,0,1.223039984703064
0.300360827,0,0,1.3311761617660522,0,0,0.2293200045824051
0.300506492,0,0,1.3311761617660522,0,0,0.2293200045824051
0.300652157,0,0,1.3311761617660522,0,0,0.7644000053405762
0.300797951,0,0,1.3311761617660522,0,0,0.7644000053405762
0.300943765,0,0,1.3311761617660522,0,0,0.3822000026702881
0.301089374,0,0,1.3311761617660522,0,0,0.3822000026702881
0.301235298,0,0,1.558625340461731,0,0,0.4586400091648102
0.301381408,0,0,1.558625340461731,0,0,0.4586400091648102
0.301527165,0,0,1.558625340461731,0,0,0.4586400091648102
0.301672775,0,0,1.558625340461731,0,0,0.2293200045824051
0.301818662,0,0,1.558625340461731,0,0,0.2293200045824051
0.301964716,0,0,1.558625340461731,0,0,0.6879600286483765
0.302110159,0,0,1.558625340461731,0,0,0.6879600286483765
0.302255768,0,0,1.455674648284912,0,0,0.0764399990439415
0.3024016,0,0,1.455674648284912,0,0,0.0764399990439415
0.302551636,0,0,1.455674648284912,0,0,0.5350799560546875
0.302695504,0,0,1.455674648284912,0,0,0.5350799560546875
0.302841225,0,0,1.455674648284912,0,0,0.305759996175766
0.302986945,0,0,1.455674648284912,0,0,0.305759996175766
0.303132703,0,0,1.455674648284912,0,0,0.305759996175766
0.303278442,0,0,1.6376339197158813,0,0,0.2293200045824051
0.303424144,0,0,1.6376339197158813,0,0,0.2293200045824051
0.303570198,0,0,1.6376339197158813,0,0,0
0.303715974,0,0,1.6376339197158813,0,0,0
0.30386138,0,0,1.6376339197158813,0,0,0.5350799560546875
0.304007027,0,0,1.6376339197158813,0,0,0.5350799560546875
0.304153006,0,0,1.6376339197158813,0,0,1.070159912109375
0.304299727,0,0,1.6208745241165161,0,0,1.070159912109375
0.304444688,0,0,1.6208745241165161,0,0,1.070159912109375
0.304590742,0,0,1.6208745241165161,0,0,0.9937199950218201
0.304736407,0,0,1.6208745241165161,0,0,0.9937199950218201
0.304888461,0,0,1.6208745241165161,0,0,0.152879998087883
0.3050277,0,0,1.6208745241165161,0,0,0.152879998087883
0.305173328,0,0,1.6208745241165161,0,0,0.611519992351532
0.305318975,0,0,1.5849615335464478,0,0,0.611519992351532
0.305464751,0,0,1.5849615335464478,0,0,1.070159912109375
0.305610935,0,0,1.5849615335464478,0,0,1.070159912109375
0.305756711,0,0,1.5849615335464478,0,0,0.8408399820327759
0.305902524,0,0,1.5849615335464478,0,0,0.8408399820327759
0.306048189,0,0,1.5849615335464478,0,0,0.8408399820327759
0.306194076,0,0,1.5849615335464478,0,0,0.9937199950218201
0.306340056,0,0,1.6855180263519287,0,0,0.9937199950218201
0.30648574,0,0,1.6855180263519287,0,0,1.9109998941421509
0.306632016,0,0,1.6855180263519287,0,0,1.9109998941421509
0.306777773,0,0,1.6855180263519287,0,0,1.2994799613952637
0.306923513,0,0,1.6855180263519287,0,0,1.2994799613952637
0.307072807,0,0,1.6855180263519287,0,0,0.9937199950218201
0.307216824,0,0,1.5442601442337036,0,0,0.9937199950218201
0.307362582,0,0,1.5442601442337036,0,0,0.9172800183296204
0.307508247,0,0,1.5442601442337036,0,0,0.9172800183296204
0.307654467,0,0,1.5442601442337036,0,0,0.9172800183296204
0.307800077,0,0,1.5442601442337036,0,0,1.223039984703064
0.307945686,0,0,1.5442601442337036,0,0,1.223039984703064
0.308091555,0,0,1.5442601442337036,0,0,1.223039984703064
0.308247942,0,0,1.522712230682373,0,0,1.223039984703064
0.308393996,0,0,1.522712230682373,0,0,1.223039984703064
0.308539791,0,0,1.522712230682373,0,0,1.223039984703064
0.308685252,0,0,1.522712230682373,0,0,0.6879600286483765
0.308831454,0,0,1.522712230682373,0,0,0.6879600286483765
0.308977101,0,0,1.522712230682373,0,0,0.6879600286483765
0.309122969,0,0,1.522712230682373,0,0,0.9937199950218201
0.309268838,0,0,1.4987702369689941,0,0,0.9937199950218201
0.309414411,0,0,1.4987702369689941,0,0,0.5350799560546875
0.309560279,0,0,1.4987702369689941,0,0,0.5350799560546875
0.309706204,0,0,1.4987702369689941,0,0,0.5350799560546875
0.309851998,0,0,1.4987702369689941,0,0,0.5350799560546875
0.309997608,0,0,1.4987702369689941,0,0,0.3822000026702881
0.31014344,0,0,1.4987702369689941,0,0,0.3822000026702881
0.310289253,0,0,1.436521053314209,0,0,0.305759996175766
0.310434918,0,0,1.436521053314209,0,0,0.305759996175766
0.310580768,0,0,1.436521053314209,0,0,0.305759996175766
0.310726544,0,0,1.436521053314209,0,0,0.611519992351532
0.310872709,0,0,1.436521053314209,0,0,0.611519992351532
0.311018578,0,0,1.436521053314209,0,0,0.305759996175766
0.311164317,0,0,1.436521053314209,0,0,0.305759996175766
0.311310112,0,0,1.403002142906189,0,0,0.2293200045824051
0.311455962,0,0,1.403002142906189,0,0,0.2293200045824051
0.311605294,0,0,1.403002142906189,0,0,0.9172800183296204
0.311749459,0,0,1.403002142906189,0,0,0.9172800183296204
0.311895605,0,0,1.403002142906189,0,0,1.1466000080108643
0.312041511,0,0,1.403002142906189,0,0,1.1466000080108643
0.312187324,0,0,1.403002142906189,0,0,1.1466000080108643
0.312334304,0,0,1.4628572463989258,0,0,0.6879600286483765
0.312479247,0,0,1.4628572463989258,0,0,0.6879600286483765
0.312625171,0,0,1.4628572463989258,0,0,0
0.312770669,0,0,1.4628572463989258,0,0,0
0.31291689,0,0,1.4628572463989258,0,0,0.5350799560546875
0.313062722,0,0,1.4628572463989258,0,0,0.5350799560546875
0.313208146,0,0,1.4628572463989258,0,0,0.8408399820327759
0.313354052,0,0,1.4939818382263184,0,0,0.8408399820327759
0.313499883,0,0,1.4939818382263184,0,0,0.8408399820327759
0.313645623,0,0,1.4939818382263184,0,0,0.9172800183296204
0.313791343,0,0,1.4939818382263184,0,0,0.9172800183296204
0.313937508,0,0,1.4939818382263184,0,0,0.3822000026702881
0.314083155,0,0,1.4939818382263184,0,0,0.3822000026702881
0.314235394,0,0,1.5514427423477173,0,0,1.223039984703064
0.314374688,0,0,1.5514427423477173,0,0,1.223039984703064
0.314520279,0,0,1.5514427423477173,0,0,1.1466000080108643
0.314665796,0,0,1.5514427423477173,0,0,1.1466000080108643
0.31481161,0,0,1.5514427423477173,0,0,1.1466000080108643
0.314957312,0,0,1.5514427423477173,0,0,1.1466000080108643
0.315103495,0,0,1.5514427423477173,0,0,1.1466000080108643
0.31524916,0,0,1.5969325304031372,0,0,1.5288000106811523
0.31539501,0,0,1.5969325304031372,0,0,1.5288000106811523
0.315540675,0,0,1.5969325304031372,0,0,1.5288000106811523
0.315686433,0,0,1.5969325304031372,0,0,1.5288000106811523
0.315831931,0,0,1.5969325304031372,0,0,0.9937199950218201
0.315977708,0,0,1.5969325304031372,0,0,0.9937199950218201
0.316127169,0,0,1.5969325304031372,0,0,0.305759996175766
0.316272352,0,0,1.5873557329177856,0,0,0.305759996175766
0.31641748,0,0,1.5873557329177856,0,0,0.305759996175766
0.316677959,0,0,1.5873557329177856,0,0,0.6879600286483765
0.316705255,0,0,1.5873557329177856,0,0,0.6879600286483765
0.316849439,0,0,1.5873557329177856,0,0,0.0764399990439415
0.316994511,0,0,1.5873557329177856,0,0,0.0764399990439415
0.317140658,0,0,1.5873557329177856,0,0,1.1466000080108643
0.317286397,0,0,1.6136919260025024,0,0,1.1466000080108643
0.317432136,0,0,1.6136919260025024,0,0,1.1466000080108643
0.317577856,0,0,1.6136919260025024,0,0,1.1466000080108643
0.317723688,0,0,1.6136919260025024,0,0,1.452359914779663
0.317869353,0,0,1.6136919260025024,0,0,1.452359914779663
0.318014963,0,0,1.6136919260025024,0,0,1.452359914779663
0.318161017,0,0,1.6136919260025024,0,0,2.14031982421875
0.318306774,0,0,1.4939818382263184,0,0,2.14031982421875
0.318452698,0,0,1.4939818382263184,0,0,1.223039984703064
0.318599493,0,0,1.4939818382263184,0,0,1.223039984703064
0.318743621,0,0,1.4939818382263184,0,0,0.9172800183296204
0.318887823,0,0,1.4939818382263184,0,0,0.9172800183296204
0.319031988,0,0,1.4939818382263184,0,0,0.305759996175766
0.319176209,0,0,1.4939818382263184,0,0,0.305759996175766
0.319320763,0,0,1.3838485479354858,0,0,0.305759996175766
0.31946478,0,0,1.3838485479354858,0,0,0.8408399820327759
0.319608871,0,0,1.3838485479354858,0,0,0.8408399820327759
0.319753036,0,0,1.3838485479354858,0,0,1.758120059967041
0.319897349,0,0,1.3838485479354858,0,0,1.758120059967041
0.32004157,0,0,1.3838485479354858,0,0,0.4586400091648102
0.320185901,0,0,1.3838485479354858,0,0,0.4586400091648102
0.320333029,0,0,1.4460978507995605,0,0,1.452359914779663
0.32054449,0,0,1.4460978507995605,0,0,1.452359914779663
0.320697729,0,0,1.4460978507995605,0,0,0.4586400091648102
0.320838987,0,0,1.4460978507995605,0,0,0.4586400091648102
0.320983003,0,0,1.4460978507995605,0,0,0.3822000026702881
0.321188149,0,0,1.4460978507995605,0,0,0.3822000026702881
0.321334111,0,0,1.3910311460494995,0,0,1.070159912109375
0.321478424,0,0,1.3910311460494995,0,0,1.070159912109375
0.321622644,0,0,1.3910311460494995,0,0,1.2994799613952637
0.321766884,0,0,1.3910311460494995,0,0,1.2994799613952637
0.321911012,0,0,1.3910311460494995,0,0,1.2994799613952637
0.32205514,0,0,1.3910311460494995,0,0,0.9172800183296204
0.322199305,0,0,1.3910311460494995,0,0,0.9172800183296204
0.322404525,0,0,1.3311761617660522,0,0,0.2293200045824051
0.322490857,0,0,1.3311761617660522,0,0,0.2293200045824051
0.322633615,0,0,1.3311761617660522,0,0,1.5288000106811523
0.322777595,0,0,1.3311761617660522,0,0,1.5288000106811523
0.322921593,0,0,1.3311761617660522,0,0,0.152879998087883
0.323065776,0,0,1.3311761617660522,0,0,0.152879998087883
0.323209923,0,0,1.3311761617660522,0,0,1.070159912109375
0.323353699,0,0,1.3910311460494995,0,0,1.070159912109375
0.323498438,0,0,1.3910311460494995,0,0,1.070159912109375
0.323642437,0,0,1.3910311460494995,0,0,1.1466000080108643
0.323786657,0,0,1.3910311460494995,0,0,1.1466000080108643
0.323930748,0,0,1.3910311460494995,0,0,0.152879998087883
0.324074913,0,0,1.3910311460494995,0,0,0.152879998087883
0.324236504,0,0,1.3910311460494995,0,0,0.9937199950218201
0.324365058,0,0,1.4748282432556152,0,0,0.9937199950218201
0.324509279,0,0,1.4748282432556152,0,0,0.9172800183296204
0.324653425,0,0,1.4748282432556152,0,0,0.9172800183296204
0.324797516,0,0,1.4748282432556152,0,0,0.9172800183296204
0.32494157,0,0,1.4748282432556152,0,0,-0.5350799560546875
0.325085532,0,0,1.4748282432556152,0,0,-0.5350799560546875
0.3252354,0,0,1.4748282432556152,0,0,1.1466000080108643
0.325376769,0,0,1.659181833267212,0,0,1.1466000080108643
0.325521156,0,0,1.659181833267212,0,0,0.4586400091648102
0.325665488,0,0,1.659181833267212,0,0,0.4586400091648102
0.325809542,0,0,1.659181833267212,0,0,0.8408399820327759
0.325953429,0,0,1.659181833267212,0,0,0.8408399820327759
0.32609752,0,0,1.659181833267212,0,0,0.8408399820327759
0.326241648,0,0,1.659181833267212,0,0,1.9109998941421509
0.326385721,0,0,1.601720929145813,0,0,1.9109998941421509
0.326530164,0,0,1.601720929145813,0,0,0.3822000026702881
0.326674403,0,0,1.601720929145813,0,0,0.3822000026702881
0.326818697,0,0,1.601720929145813,0,0,0.9172800183296204
0.326962826,0,0,1.601720929145813,0,0,0.9172800183296204
0.327106824,0,0,1.601720929145813,0,0,0.5350799560546875
0.327251026,0,0,1.5442601442337036,0,0,0.5350799560546875
0.327395061,0,0,1.5442601442337036,0,0,0.5350799560546875
0.327539097,0,0,1.5442601442337036,0,0,0
0.327683336,0,0,1.5442601442337036,0,0,0
0.327827408,0,0,1.5442601442337036,0,0,1.452359914779663
0.327971407,0,0,1.5442601442337036,0,0,1.452359914779663
0.328115535,0,0,1.5442601442337036,0,0,0.2293200045824051
0.328261237,0,0,1.6208745241165161,0,0,0.2293200045824051
0.328405513,0,0,1.6208745241165161,0,0,0.8408399820327759
