Time,AccelX1,AccelY1,AccelZ1,AccelX2,AccelY2,AccelZ2
0.000150109,0,0,1.3982137441635132,0,0,0.9172800183296204
0.000541197,0,0,1.3982137441635132,0,0,0.611519992351532
0.000693974,0,0,1.3982137441635132,0,0,0.611519992351532
0.000849398,0,0,1.3982137441635132,0,0,0.3822000026702881
0.001005544,0,0,1.3982137441635132,0,0,0.3822000026702881
0.00115982,0,0,1.4460978507995605,0,0,9.478560447692871
0.001314671,0,0,1.4460978507995605,0,0,-0.305759996175766
0.001459854,0,0,1.4460978507995605,0,0,0.9937199950218201
0.001610075,0,0,1.4460978507995605,0,0,0.9937199950218201
0.001758647,0,0,1.4460978507995605,0,0,1.2994799613952637
0.001902905,0,0,1.4460978507995605,0,0,1.2994799613952637
0.002073477,0,0,1.3910311460494995,0,0,0.9937199950218201
0.002194161,0,0,1.3910311460494995,0,0,0.9937199950218201
0.002339771,0,0,1.3910311460494995,0,0,0.9172800183296204
0.00248838,0,0,1.3910311460494995,0,0,0.9172800183296204
0.002634638,0,0,1.3910311460494995,0,0,0.9172800183296204
0.002815247,0,0,1.3910311460494995,0,0,-0.2293200045824051
0.002968893,0,0,1.3910311460494995,0,0,-29.582279205322266
0.003110985,0,0,1.5298948287963867,0,0,0.5350799560546875
0.003256057,0,0,1.5298948287963867,0,0,0.5350799560546875
0.003401407,0,0,1.5298948287963867,0,0,1.375920057296753
0.003547313,0,0,1.5298948287963867,0,0,1.375920057296753
0.003692608,0,0,1.5298948287963867,0,0,0.152879998087883
0.003841514,0,0,1.5298948287963867,0,0,0.152879998087883
0.003987512,0,0,1.5298948287963867,0,0,1.1466000080108643
0.004134418,0,0,1.5729905366897583,0,0,1.1466000080108643
0.004281787,0,0,1.5729905366897583,0,0,1.223039984703064
0.004428526,0,0,1.5729905366897583,0,0,1.223039984703064
0.00458945,0,0,1.5729905366897583,0,0,1.223039984703064
0.004743282,0,0,1.5729905366897583,0,0,0.9937199950218201
0.004891613,0,0,1.5729905366897583,0,0,0.9937199950218201
0.005060315,0,0,1.5275006294250488,0,0,0.2293200045824051
0.005204055,0,0,1.5275006294250488,0,0,0.2293200045824051
0.005364497,0,0,1.5275006294250488,0,0,0.2293200045824051
0.005498403,0,0,1.5275006294250488,0,0,0.2293200045824051
0.005643457,0,0,1.5275006294250488,0,0,0.4586400091648102
0.00578827,0,0,1.5275006294250488,0,0,0.4586400091648102
0.005932973,0,0,1.5275006294250488,0,0,0.5350799560546875
0.006077749,0,0,1.577778935432434,0,0,0.5350799560546875
0.006222655,0,0,1.577778935432434,0,0,1.2994799613952637
0.006367523,0,0,1.577778935432434,0,0,1.2994799613952637
0.006512077,0,0,1.577778935432434,0,0,1.2994799613952637
0.006656687,0,0,1.577778935432434,0,0,1.5288000106811523
0.006806426,0,0,1.577778935432434,0,0,1.5288000106811523
0.006954536,0,0,1.577778935432434,0,0,1.5288000106811523
0.007097164,0,0,1.5442601442337036,0,0,1.5288000106811523
0.007241421,0,0,1.5442601442337036,0,0,0.6879600286483765
0.007386346,0,0,1.5442601442337036,0,0,0.6879600286483765
0.007531252,0,0,1.5442601442337036,0,0,0.4586400091648102
0.007675991,0,0,1.5442601442337036,0,0,0.4586400091648102
0.007820786,0,0,1.5442601442337036,0,0,0.4586400091648102
0.007965599,0,0,1.5442601442337036,0,0,0.0764399990439415
0.008110431,0,0,1.3623007535934448,0,0,0.0764399990439415
0.008255096,0,0,1.3623007535934448,0,0,1.9109998941421509
0.008400131,0,0,1.3623007535934448,0,0,1.9109998941421509
0.008544741,0,0,1.3623007535934448,0,0,0.3822000026702881
0.008689443,0,0,1.3623007535934448,0,0,0.3822000026702881
0.008834108,0,0,1.3623007535934448,0,0,1.223039984703064
0.008978977,0,0,1.3623007535934448,0,0,1.223039984703064
0.00912379,0,0,1.3646949529647827,0,0,1.223039984703064
0.009268511,0,0,1.3646949529647827,0,0,1.070159912109375
0.009416028,0,0,1.3646949529647827,0,0,1.070159912109375
0.009573526,0,0,1.3646949529647827,0,0,1.452359914779663
0.00971208,0,0,1.3646949529647827,0,0,1.452359914779663
0.00985619,0,0,1.3646949529647827,0,0,0
0.010014706,0,0,1.3646949529647827,0,0,0
0.010146594,0,0,1.338358759880066,0,0,0
0.010290018,0,0,1.338358759880066,0,0,0
0.010434887,0,0,1.338358759880066,0,0,0.6879600286483765
0.010579756,0,0,1.338358759880066,0,0,0.6879600286483765
0.010724421,0,0,1.338358759880066,0,0,0.6879600286483765
0.010869882,0,0,1.338358759880066,0,0,0.9172800183296204
0.011016603,0,0,1.338358759880066,0,0,0.9172800183296204
0.01116025,0,0,1.2497732639312744,0,0,0.5350799560546875
0.011305304,0,0,1.2497732639312744,0,0,0.5350799560546875
0.011449617,0,0,1.2497732639312744,0,0,1.375920057296753
0.011595782,0,0,1.2497732639312744,0,0,1.375920057296753
0.01174054,0,0,1.2497732639312744,0,0,0.611519992351532
0.011886019,0,0,1.2497732639312744,0,0,0.611519992351532
0.012044907,0,0,1.2497732639312744,0,0,0.5350799560546875
0.012198331,0,0,1.3838485479354858,0,0,0.5350799560546875
0.012344496,0,0,1.3838485479354858,0,0,0.5350799560546875
0.012489606,0,0,1.3838485479354858,0,0,0
0.012634715,0,0,1.3838485479354858,0,0,0
0.012779251,0,0,1.3838485479354858,0,0,0
0.012923842,0,0,1.3838485479354858,0,0,0
0.013068766,0,0,1.4437036514282227,0,0,1.070159912109375
0.013213505,0,0,1.4437036514282227,0,0,1.070159912109375
0.013358022,0,0,1.4437036514282227,0,0,0.152879998087883
0.013503076,0,0,1.4437036514282227,0,0,0.152879998087883
0.01364813,0,0,1.4437036514282227,0,0,0.152879998087883
0.013792314,0,0,1.4437036514282227,0,0,0.152879998087883
0.01393709,0,0,1.4437036514282227,0,0,0.152879998087883
0.014089848,0,0,1.4987702369689941,0,0,0.4586400091648102
0.014231439,0,0,1.4987702369689941,0,0,0.4586400091648102
0.014376252,0,0,1.4987702369689941,0,0,0.152879998087883
0.014520824,0,0,1.4987702369689941,0,0,0.152879998087883
0.014665378,0,0,1.4987702369689941,0,0,1.452359914779663
0.014812821,0,0,1.4987702369689941,0,0,1.452359914779663
0.014957264,0,0,1.4987702369689941,0,0,1.1466000080108643
0.015102096,0,0,1.5442601442337036,0,0,1.1466000080108643
0.015246742,0,0,1.5442601442337036,0,0,1.1466000080108643
0.015391371,0,0,1.5442601442337036,0,0,0.5350799560546875
0.015536017,0,0,1.5442601442337036,0,0,0.5350799560546875
0.015680923,0,0,1.5442601442337036,0,0,0
0.015825866,0,0,1.5442601442337036,0,0,0
0.015970587,0,0,1.5442601442337036,0,0,0.9172800183296204
0.016115141,0,0,1.53707754611969,0,0,0.9172800183296204
0.016259824,0,0,1.53707754611969,0,0,0.152879998087883
0.016404637,0,0,1.53707754611969,0,0,0.152879998087883
0.016549265,0,0,1.53707754611969,0,0,0.152879998087883
0.016694134,0,0,1.53707754611969,0,0,0
0.016839114,0,0,1.53707754611969,0,0,0
0.016983465,0,0,1.53707754611969,0,0,0.4586400091648102
0.017128296,0,0,1.5418659448623657,0,0,0.4586400091648102
0.017273128,0,0,1.5418659448623657,0,0,1.375920057296753
0.017417701,0,0,1.5418659448623657,0,0,1.375920057296753
0.017562421,0,0,1.5418659448623657,0,0,0.611519992351532
0.01770729,0,0,1.5418659448623657,0,0,0.611519992351532
0.017852288,0,0,1.5418659448623657,0,0,0.611519992351532
0.017996972,0,0,1.5418659448623657,0,0,-0.152879998087883
0.018141415,0,0,1.5490485429763794,0,0,-0.152879998087883
0.018286302,0,0,1.5490485429763794,0,0,1.070159912109375
0.01843093,0,0,1.5490485429763794,0,0,1.070159912109375
0.018579151,0,0,1.5490485429763794,0,0,0
0.018722594,0,0,1.5490485429763794,0,0,0
0.018869129,0,0,1.5490485429763794,0,0,0.4586400091648102
0.019013406,0,0,1.5490485429763794,0,0,0.4586400091648102
0.019158219,0,0,1.3670891523361206,0,0,0.4586400091648102
0.019321606,0,0,1.3670891523361206,0,0,0.4586400091648102
0.019448216,0,0,1.3670891523361206,0,0,0.4586400091648102
0.019592344,0,0,1.3670891523361206,0,0,0.4586400091648102
0.019736898,0,0,1.3670891523361206,0,0,0.4586400091648102
0.019881915,0,0,1.3670891523361206,0,0,1.452359914779663
0.020026765,0,0,1.3670891523361206,0,0,1.452359914779663
0.020171338,0,0,1.292868971824646,0,0,0.7644000053405762
0.020316114,0,0,1.292868971824646,0,0,0.7644000053405762
0.020460834,0,0,1.292868971824646,0,0,1.223039984703064
0.020605388,0,0,1.292868971824646,0,0,1.223039984703064
0.020750128,0,0,1.292868971824646,0,0,1.223039984703064
0.020894922,0,0,1.292868971824646,0,0,1.2994799613952637
0.021039902,0,0,1.292868971824646,0,0,1.2994799613952637
0.021184345,0,0,1.3646949529647827,0,0,0.6879600286483765
0.021329084,0,0,1.3646949529647827,0,0,0.6879600286483765
0.021473786,0,0,1.3646949529647827,0,0,0.5350799560546875
0.021618433,0,0,1.3646949529647827,0,0,0.5350799560546875
0.021763265,0,0,1.3646949529647827,0,0,1.2994799613952637
0.021908115,0,0,1.3646949529647827,0,0,1.2994799613952637
0.022053058,0,0,1.3646949529647827,0,0,1.2994799613952637
0.022197593,0,0,1.414973258972168,0,0,2.3696401119232178
0.022342296,0,0,1.414973258972168,0,0,2.3696401119232178
0.022486961,0,0,1.414973258972168,0,0,0.4586400091648102
0.022631681,0,0,1.414973258972168,0,0,0.4586400091648102
0.022778365,0,0,1.414973258972168,0,0,1.5288000106811523
0.022923826,0,0,1.414973258972168,0,0,1.5288000106811523
0.023072658,0,0,1.4652514457702637,0,0,0.9937199950218201
0.023215657,0,0,1.4652514457702637,0,0,0.9937199950218201
0.023360544,0,0,1.4652514457702637,0,0,0.9937199950218201
0.023505153,0,0,1.4652514457702637,0,0,1.2994799613952637
0.023649967,0,0,1.4652514457702637,0,0,1.2994799613952637
0.023794576,0,0,1.4652514457702637,0,0,1.9109998941421509
0.023939315,0,0,1.4652514457702637,0,0,1.9109998941421509
0.024084036,0,0,1.4772224426269531,0,0,0.4586400091648102
0.024228868,0,0,1.4772224426269531,0,0,0.4586400091648102
0.024373403,0,0,1.4772224426269531,0,0,1.070159912109375
0.024518124,0,0,1.4772224426269531,0,0,1.070159912109375
0.024662937,0,0,1.4772224426269531,0,0,1.070159912109375
0.024807788,0,0,1.4772224426269531,0,0,0.8408399820327759
0.024952582,0,0,1.4772224426269531,0,0,0.8408399820327759
0.025097247,0,0,1.5394717454910278,0,0,-0.305759996175766
0.025242227,0,0,1.5394717454910278,0,0,-0.305759996175766
0.02538667,0,0,1.5394717454910278,0,0,0.0764399990439415
0.025531595,0,0,1.5394717454910278,0,0,0.0764399990439415
0.025676482,0,0,1.5394717454910278,0,0,1.1466000080108643
0.025821091,0,0,1.5394717454910278,0,0,1.1466000080108643
0.025965775,0,0,1.5394717454910278,0,0,0.6879600286483765
0.026110496,0,0,1.5538369417190552,0,0,0.6879600286483765
0.026255346,0,0,1.5538369417190552,0,0,0.6879600286483765
0.026400048,0,0,1.5538369417190552,0,0,0.611519992351532
0.026544843,0,0,1.5538369417190552,0,0,0.611519992351532
0.026689526,0,0,1.5538369417190552,0,0,1.6816799640655518
0.026835488,0,0,1.5538369417190552,0,0,1.6816799640655518
0.026980042,0,0,1.5538369417190552,0,0,1.2994799613952637
0.027124633,0,0,1.53707754611969,0,0,1.2994799613952637
0.02726965,0,0,1.53707754611969,0,0,0.5350799560546875
0.027414204,0,0,1.53707754611969,0,0,0.5350799560546875
0.027562573,0,0,1.53707754611969,0,0,0.5350799560546875
0.027705997,0,0,1.53707754611969,0,0,2.06387996673584
0.027851051,0,0,1.53707754611969,0,0,2.06387996673584
0.027995698,0,0,1.53707754611969,0,0,0
0.028140511,0,0,1.6041151285171509,0,0,0
0.028285435,0,0,1.6041151285171509,0,0,0.7644000053405762
0.028430397,0,0,1.6041151285171509,0,0,0.7644000053405762
0.02857508,0,0,1.6041151285171509,0,0,0.611519992351532
0.028720005,0,0,1.6041151285171509,0,0,0.611519992351532
0.028864614,0,0,1.6041151285171509,0,0,0.611519992351532
0.029009501,0,0,1.6041151285171509,0,0,0.6879600286483765
0.029154296,0,0,1.5682021379470825,0,0,0.6879600286483765
0.029299091,0,0,1.5682021379470825,0,0,0.5350799560546875
0.029443941,0,0,1.5682021379470825,0,0,0.5350799560546875
0.029588699,0,0,1.5682021379470825,0,0,1.6816799640655518
0.029733401,0,0,1.5682021379470825,0,0,1.6816799640655518
0.029878307,0,0,1.5682021379470825,0,0,0.9937199950218201
0.030023028,0,0,1.5682021379470825,0,0,0.9937199950218201
0.030167896,0,0,1.3886369466781616,0,0,1.223039984703064
0.030312543,0,0,1.3886369466781616,0,0,1.223039984703064
0.030457078,0,0,1.3886369466781616,0,0,1.223039984703064
0.030602077,0,0,1.3886369466781616,0,0,1.5288000106811523
0.030764871,0,0,1.3886369466781616,0,0,1.5288000106811523
0.030911536,0,0,1.3886369466781616,0,0,0.152879998087883
0.031064313,0,0,1.3886369466781616,0,0,0.152879998087883
0.031203978,0,0,1.3982137441635132,0,0,1.605239987373352
0.031349921,0,0,1.3982137441635132,0,0,1.605239987373352
0.031496271,0,0,1.3982137441635132,0,0,0.3822000026702881
0.031642288,0,0,1.3982137441635132,0,0,0.3822000026702881
0.031788323,0,0,1.3982137441635132,0,0,0.7644000053405762
0.031934433,0,0,1.3982137441635132,0,0,0.7644000053405762
0.032084561,0,0,1.4269442558288574,0,0,0.7644000053405762
0.032228837,0,0,1.4269442558288574,0,0,1.2994799613952637
0.032375076,0,0,1.4269442558288574,0,0,1.2994799613952637
0.03252126,0,0,1.4269442558288574,0,0,1.223039984703064
0.032667351,0,0,1.4269442558288574,0,0,1.223039984703064
0.032813368,0,0,1.4269442558288574,0,0,0.4586400091648102
0.032959626,0,0,1.4269442558288574,0,0,0.4586400091648102
0.033105735,0,0,1.3335703611373901,0,0,0.6879600286483765
0.033251826,0,0,1.3335703611373901,0,0,0.6879600286483765
0.033398047,0,0,1.3335703611373901,0,0,0.6879600286483765
0.033544304,0,0,1.3335703611373901,0,0,0.8408399820327759
0.033690395,0,0,1.3335703611373901,0,0,0.8408399820327759
0.033836486,0,0,1.3335703611373901,0,0,1.5288000106811523
0.033982577,0,0,1.3335703611373901,0,0,1.5288000106811523
0.03412865,0,0,1.3670891523361206,0,0,1.070159912109375
0.034274834,0,0,1.3670891523361206,0,0,1.070159912109375
0.03442085,0,0,1.3670891523361206,0,0,0.5350799560546875
0.034567053,0,0,1.3670891523361206,0,0,0.5350799560546875
0.034713329,0,0,1.3670891523361206,0,0,0.8408399820327759
0.034861938,0,0,1.3670891523361206,0,0,0.8408399820327759
0.035008066,0,0,1.3670891523361206,0,0,0.8408399820327759
0.035153806,0,0,1.4293384552001953,0,0,0.9172800183296204
0.0353001,0,0,1.4293384552001953,0,0,0.9172800183296204
0.035446173,0,0,1.4293384552001953,0,0,1.070159912109375
0.035592171,0,0,1.4293384552001953,0,0,1.070159912109375
0.03573841,0,0,1.4293384552001953,0,0,1.452359914779663
0.035884853,0,0,1.4293384552001953,0,0,1.452359914779663
0.036030722,0,0,1.4293384552001953,0,0,1.452359914779663
0.036176906,0,0,1.5538369417190552,0,0,1.452359914779663
0.036322886,0,0,1.5538369417190552,0,0,0.9172800183296204
0.036469014,0,0,1.5538369417190552,0,0,0.9172800183296204
0.036618882,0,0,1.5538369417190552,0,0,0.9172800183296204
0.036763455,0,0,1.5538369417190552,0,0,0.611519992351532
0.036909657,0,0,1.5538369417190552,0,0,0.611519992351532
0.037055544,0,0,1.5538369417190552,0,0,0
0.037201617,0,0,1.5682021379470825,0,0,0
0.037347949,0,0,1.5682021379470825,0,0,1.223039984703064
0.037494151,0,0,1.5682021379470825,0,0,1.223039984703064
0.037640168,0,0,1.5682021379470825,0,0,1.1466000080108643
0.037786555,0,0,1.5682021379470825,0,0,1.1466000080108643
0.037959183,0,0,1.5682021379470825,0,0,0.6879600286483765
0.038079552,0,0,1.5945383310317993,0,0,0.6879600286483765
0.038224884,0,0,1.5945383310317993,0,0,0.6879600286483765
0.038371123,0,0,1.5945383310317993,0,0,9.019920349121094
0.038517288,0,0,1.5945383310317993,0,0,-0.7644000053405762
0.038663471,0,0,1.5945383310317993,0,0,0.152879998087883
0.038811192,0,0,1.5945383310317993,0,0,0.152879998087883
0.038955746,0,0,1.5945383310317993,0,0,0.152879998087883
0.039101615,0,0,1.5705963373184204,0,0,0.152879998087883
0.03924791,0,0,1.5705963373184204,0,0,0.9937199950218201
0.039393834,0,0,1.5705963373184204,0,0,0.9937199950218201
0.039540184,0,0,1.5705963373184204,0,0,0.9937199950218201
0.039686331,0,0,1.5705963373184204,0,0,1.375920057296753
0.039832662,0,0,1.5705963373184204,0,0,1.375920057296753
0.03997855,0,0,1.5705963373184204,0,0,0.3822000026702881
0.040124678,0,0,1.5849615335464478,0,0,0.3822000026702881
0.040270676,0,0,1.5849615335464478,0,0,0.2293200045824051
0.040416767,0,0,1.5849615335464478,0,0,0.2293200045824051
0.040562766,0,0,1.5849615335464478,0,0,1.1466000080108643
0.040709042,0,0,1.5849615335464478,0,0,1.1466000080108643
0.04085504,0,0,1.5849615335464478,0,0,0.9937199950218201
0.041001298,0,0,1.5849615335464478,0,0,0.9937199950218201
0.041151815,0,0,1.4676456451416016,0,0,0.9937199950218201
0.041295813,0,0,1.4676456451416016,0,0,2.06387996673584
0.04144209,0,0,1.4676456451416016,0,0,2.06387996673584
0.041588106,0,0,1.4676456451416016,0,0,0.6879600286483765
0.041734457,0,0,1.4676456451416016,0,0,0.6879600286483765
0.041880474,0,0,1.4676456451416016,0,0,0.4586400091648102
0.042026935,0,0,1.4676456451416016,0,0,0.4586400091648102
0.042172915,0,0,1.4077905416488647,0,0,0.152879998087883
0.042319025,0,0,1.4077905416488647,0,0,0.152879998087883
0.042465097,0,0,1.4077905416488647,0,0,0.6879600286483765
0.042611225,0,0,1.4077905416488647,0,0,0.6879600286483765
0.042761779,0,0,1.4077905416488647,0,0,0.6879600286483765
0.042905296,0,0,1.4077905416488647,0,0,1.8345600366592407
0.043051313,0,0,1.4077905416488647,0,0,1.8345600366592407
0.043197367,0,0,1.4269442558288574,0,0,0.152879998087883
0.043343106,0,0,1.4269442558288574,0,0,0.152879998087883
0.043489253,0,0,1.4269442558288574,0,0,0.9172800183296204
0.043635121,0,0,1.4269442558288574,0,0,0.9172800183296204
0.043780898,0,0,1.4269442558288574,0,0,0.5350799560546875
0.043927007,0,0,1.4269442558288574,0,0,0.5350799560546875
0.04407495,0,0,1.235408067703247,0,0,0.5350799560546875
0.044222448,0,0,1.235408067703247,0,0,0.8408399820327759
0.044367632,0,0,1.235408067703247,0,0,0.8408399820327759
0.04451389,0,0,1.235408067703247,0,0,1.8345600366592407
0.044659629,0,0,1.235408067703247,0,0,1.8345600366592407
0.044805238,0,0,1.235408067703247,0,0,1.223039984703064
0.044951385,0,0,1.235408067703247,0,0,1.223039984703064
0.045097439,0,0,1.3311761617660522,0,0,0.4586400091648102
0.045243308,0,0,1.3311761617660522,0,0,0.4586400091648102
0.045389269,0,0,1.3311761617660522,0,0,0.4586400091648102
0.045535101,0,0,1.3311761617660522,0,0,0.4586400091648102
0.045686266,0,0,1.3311761617660522,0,0,0.4586400091648102
0.045830172,0,0,1.3311761617660522,0,0,0.6879600286483765
0.045976059,0,0,1.3311761617660522,0,0,0.6879600286483765
0.046122169,0,0,1.403002142906189,0,0,1.5288000106811523
0.046267871,0,0,1.403002142906189,0,0,1.5288000106811523
0.04641374,0,0,1.403002142906189,0,0,1.223039984703064
0.046566016,0,0,1.403002142906189,0,0,1.223039984703064
0.046714477,0,0,1.403002142906189,0,0,0.2293200045824051
0.046861624,0,0,1.403002142906189,0,0,0.2293200045824051
0.047016122,0,0,1.403002142906189,0,0,0.305759996175766
0.047169213,0,0,1.5155296325683594,0,0,0.305759996175766
0.047317193,0,0,1.5155296325683594,0,0,0.9172800183296204
0.04746995,0,0,1.5155296325683594,0,0,0.9172800183296204
0.047619467,0,0,1.5155296325683594,0,0,0.9172800183296204
0.047769466,0,0,1.5155296325683594,0,0,0.305759996175766
0.04791489,0,0,1.5155296325683594,0,0,0.305759996175766
0.048061092,0,0,1.5155296325683594,0,0,0.9172800183296204
0.048207331,0,0,1.580173134803772,0,0,0.9172800183296204
0.048354756,0,0,1.580173134803772,0,0,9.631440162658691
0.048500513,0,0,1.580173134803772,0,0,9.631440162658691
0.048646771,0,0,1.580173134803772,0,0,0.305759996175766
0.048793399,0,0,1.580173134803772,0,0,0.305759996175766
0.04893949,0,0,1.580173134803772,0,0,0.5350799560546875
0.049085877,0,0,1.5873557329177856,0,0,0.5350799560546875
0.049232302,0,0,1.5873557329177856,0,0,0.5350799560546875
0.049378837,0,0,1.5873557329177856,0,0,0.6879600286483765
0.049525299,0,0,1.5873557329177856,0,0,0.6879600286483765
0.049671704,0,0,1.5873557329177856,0,0,1.452359914779663
0.049818129,0,0,1.5873557329177856,0,0,1.452359914779663
0.049964516,0,0,1.5873557329177856,0,0,1.452359914779663
0.0501107,0,0,1.5658079385757446,0,0,1.452359914779663
0.050263624,0,0,1.5658079385757446,0,0,1.223039984703064
0.050407808,0,0,1.5658079385757446,0,0,1.223039984703064
0.050553973,0,0,1.5658079385757446,0,0,0.611519992351532
0.050700175,0,0,1.5658079385757446,0,0,0.611519992351532
0.050849266,0,0,1.5658079385757446,0,0,0.611519992351532
0.050994209,0,0,1.5658079385757446,0,0,2.2167599201202393
0.051140689,0,0,1.5969325304031372,0,0,2.2167599201202393
0.051287094,0,0,1.5969325304031372,0,0,0.9172800183296204
0.051433741,0,0,1.5969325304031372,0,0,0.9172800183296204
0.051579851,0,0,1.5969325304031372,0,0,1.2994799613952637
0.051726256,0,0,1.5969325304031372,0,0,1.2994799613952637
0.051872366,0,0,1.5969325304031372,0,0,0.7644000053405762
0.052019753,0,0,1.5969325304031372,0,0,0.7644000053405762
0.052165141,0,0,1.5107412338256836,0,0,0.7644000053405762
0.052311565,0,0,1.5107412338256836,0,0,0.5350799560546875
0.052457952,0,0,1.5107412338256836,0,0,0.5350799560546875
0.052604617,0,0,1.5107412338256836,0,0,1.2994799613952637
0.052750856,0,0,1.5107412338256836,0,0,1.2994799613952637
0.052897225,0,0,1.5107412338256836,0,0,1.1466000080108643
0.053043557,0,0,1.5107412338256836,0,0,1.1466000080108643
0.053189907,0,0,1.3886369466781616,0,0,1.5288000106811523
0.053336221,0,0,1.3886369466781616,0,0,1.5288000106811523
0.053482497,0,0,1.3886369466781616,0,0,1.5288000106811523
0.053628736,0,0,1.3886369466781616,0,0,1.5288000106811523
0.053775253,0,0,1.3886369466781616,0,0,1.5288000106811523
0.053921529,0,0,1.3886369466781616,0,0,1.070159912109375
0.054067842,0,0,1.3886369466781616,0,0,1.070159912109375
0.054214359,0,0,1.460463047027588,0,0,0.152879998087883
0.054360784,0,0,1.460463047027588,0,0,0.152879998087883
0.054521319,0,0,1.460463047027588,0,0,0.152879998087883
0.054653632,0,0,1.460463047027588,0,0,0.152879998087883
0.054804964,0,0,1.460463047027588,0,0,1.375920057296753
0.054949777,0,0,1.460463047027588,0,0,1.375920057296753
0.055096294,0,0,1.2425906658172607,0,0,0.9937199950218201
0.0552427,0,0,1.2425906658172607,0,0,0.9937199950218201
0.055389347,0,0,1.2425906658172607,0,0,0.9937199950218201
0.055535512,0,0,1.2425906658172607,0,0,2.2932000160217285
0.055682066,0,0,1.2425906658172607,0,0,2.2932000160217285
0.05582862,0,0,1.2425906658172607,0,0,1.8345600366592407
0.055974766,0,0,1.2425906658172607,0,0,1.8345600366592407
0.056121153,0,0,1.3551181554794312,0,0,1.605239987373352
0.056267596,0,0,1.3551181554794312,0,0,1.605239987373352
0.056413947,0,0,1.3551181554794312,0,0,0.9172800183296204
0.056560334,0,0,1.3551181554794312,0,0,0.9172800183296204
0.056707055,0,0,1.3551181554794312,0,0,0.9172800183296204
0.056853238,0,0,1.3551181554794312,0,0,0.9172800183296204
0.056999496,0,0,1.3551181554794312,0,0,0.9172800183296204
0.057145957,0,0,1.4077905416488647,0,0,1.6816799640655518
0.05729253,0,0,1.4077905416488647,0,0,1.6816799640655518
0.057438936,0,0,1.4077905416488647,0,0,1.2994799613952637
0.05758523,0,0,1.4077905416488647,0,0,1.2994799613952637
0.057731988,0,0,1.4077905416488647,0,0,0.8408399820327759
0.057878023,0,0,1.4077905416488647,0,0,0.8408399820327759
0.058024429,0,0,1.4077905416488647,0,0,0.9172800183296204
0.058170872,0,0,1.501164436340332,0,0,0.9172800183296204
0.058317204,0,0,1.501164436340332,0,0,0.7644000053405762
0.05846361,0,0,1.501164436340332,0,0,0.7644000053405762
0.058609793,0,0,1.501164436340332,0,0,0.7644000053405762
0.058771125,0,0,1.501164436340332,0,0,0.152879998087883
0.058916734,0,0,1.501164436340332,0,0,0.152879998087883
0.059061677,0,0,1.501164436340332,0,0,1.223039984703064
0.059206491,0,0,1.5634137392044067,0,0,1.223039984703064
0.0593551,0,0,1.5634137392044067,0,0,0.5350799560546875
0.059498487,0,0,1.5634137392044067,0,0,0.5350799560546875
0.059643652,0,0,1.5634137392044067,0,0,0.2293200045824051
0.059788558,0,0,1.5634137392044067,0,0,0.2293200045824051
0.059933297,0,0,1.5634137392044067,0,0,0.9172800183296204
0.060078111,0,0,1.580173134803772,0,0,0.9172800183296204
0.060222757,0,0,1.580173134803772,0,0,0.9172800183296204
0.060367663,0,0,1.580173134803772,0,0,1.758120059967041
0.060512643,0,0,1.580173134803772,0,0,1.758120059967041
0.060657549,0,0,1.580173134803772,0,0,0
0.060802473,0,0,1.580173134803772,0,0,0
0.060947361,0,0,1.580173134803772,0,0,0.152879998087883
0.061092396,0,0,1.556231141090393,0,0,0.152879998087883
0.061237098,0,0,1.556231141090393,0,0,1.070159912109375
0.061382004,0,0,1.556231141090393,0,0,1.070159912109375
0.06152691,0,0,1.556231141090393,0,0,1.070159912109375
0.061671779,0,0,1.556231141090393,0,0,1.375920057296753
0.061816907,0,0,1.556231141090393,0,0,1.375920057296753
0.061961664,0,0,1.556231141090393,0,0,0.0764399990439415
0.062106515,0,0,1.525106430053711,0,0,0.0764399990439415
0.062251032,0,0,1.525106430053711,0,0,0.305759996175766
0.06239616,0,0,1.525106430053711,0,0,0.305759996175766
0.062541066,0,0,1.525106430053711,0,0,1.375920057296753
0.06268586,0,0,1.525106430053711,0,0,1.375920057296753
0.0628331,0,0,1.525106430053711,0,0,1.375920057296753
0.062979913,0,0,1.525106430053711,0,0,0.5350799560546875
0.063126356,0,0,1.4532804489135742,0,0,0.5350799560546875
0.063272521,0,0,1.4532804489135742,0,0,1.5288000106811523
0.063418741,0,0,1.4532804489135742,0,0,1.5288000106811523
0.063564666,0,0,1.4532804489135742,0,0,1.1466000080108643
0.063710849,0,0,1.4532804489135742,0,0,1.1466000080108643
0.063867033,0,0,1.4532804489135742,0,0,0.9937199950218201
0.064005717,0,0,1.4532804489135742,0,0,0.9937199950218201
0.064151715,0,0,1.4413094520568848,0,0,1.070159912109375
0.064297695,0,0,1.4413094520568848,0,0,1.070159912109375
0.064443823,0,0,1.4413094520568848,0,0,1.070159912109375
0.064590062,0,0,1.4413094520568848,0,0,0.305759996175766
0.06473632,0,0,1.4413094520568848,0,0,0.305759996175766
0.064882411,0,0,1.4413094520568848,0,0,0
0.065028705,0,0,1.4413094520568848,0,0,0
0.065174834,0,0,1.4053963422775269,0,0,0.5350799560546875
0.065321054,0,0,1.4053963422775269,0,0,0.5350799560546875
0.065467127,0,0,1.4053963422775269,0,0,0.2293200045824051
0.065613329,0,0,1.4053963422775269,0,0,0.2293200045824051
0.065759457,0,0,1.4053963422775269,0,0,0.9172800183296204
0.065905566,0,0,1.4053963422775269,0,0,0.9172800183296204
0.066051917,0,0,1.4053963422775269,0,0,0.9172800183296204
0.066197971,0,0,1.3239935636520386,0,0,1.758120059967041
0.06634421,0,0,1.3239935636520386,0,0,1.758120059967041
0.066490171,0,0,1.3239935636520386,0,0,0.152879998087883
0.066636225,0,0,1.3239935636520386,0,0,0.152879998087883
0.066782705,0,0,1.3239935636520386,0,0,0.3822000026702881
0.066928222,0,0,1.3239935636520386,0,0,0.3822000026702881
0.067074109,0,0,1.3239935636520386,0,0,1.2994799613952637
0.067220256,0,0,1.290474772453308,0,0,1.2994799613952637
0.067366106,0,0,1.290474772453308,0,0,1.2994799613952637
0.067512253,0,0,1.290474772453308,0,0,0.8408399820327759
0.067658196,0,0,1.290474772453308,0,0,0.8408399820327759
0.067804046,0,0,1.290474772453308,0,0,0.0764399990439415
0.067950026,0,0,1.290474772453308,0,0,0.0764399990439415
0.068095858,0,0,1.4460978507995605,0,0,0.2293200045824051
0.068241912,0,0,1.4460978507995605,0,0,0.2293200045824051
0.068391669,0,0,1.4460978507995605,0,0,1.070159912109375
0.068536038,0,0,1.4460978507995605,0,0,1.070159912109375
0.068681925,0,0,1.4460978507995605,0,0,0.611519992351532
0.068827665,0,0,1.4460978507995605,0,0,0.611519992351532
0.0689737,0,0,1.4460978507995605,0,0,0.611519992351532
0.069119476,0,0,1.5179238319396973,0,0,0.305759996175766
0.069265438,0,0,1.5179238319396973,0,0,0.305759996175766
0.069411529,0,0,1.5179238319396973,0,0,0
0.069557471,0,0,1.5179238319396973,0,0,0
0.069703488,0,0,1.5179238319396973,0,0,0.4586400091648102
0.069849357,0,0,1.5179238319396973,0,0,0.4586400091648102
0.069995337,0,0,1.5179238319396973,0,0,0.9172800183296204
0.07014141,0,0,1.5418659448623657,0,0,0.9172800183296204
0.070295315,0,0,1.5418659448623657,0,0,0.9172800183296204
0.070451443,0,0,1.5418659448623657,0,0,0.9172800183296204
0.070605034,0,0,1.5418659448623657,0,0,0.9172800183296204
0.070779125,0,0,1.5418659448623657,0,0,0.7644000053405762
0.070929438,0,0,1.5418659448623657,0,0,0.7644000053405762
0.07108364,0,0,1.5418659448623657,0,0,0.9172800183296204
0.071237509,0,0,1.5107412338256836,0,0,0.9172800183296204
0.0713921,0,0,1.5107412338256836,0,0,0
0.071548672,0,0,1.5107412338256836,0,0,0
0.071705356,0,0,1.5107412338256836,0,0,-0.9172800183296204
0.07185441,0,0,1.5107412338256836,0,0,-0.9172800183296204
0.07200313,0,0,1.5107412338256836,0,0,0.152879998087883
0.072151055,0,0,1.5203180313110352,0,0,0.152879998087883
0.072298516,0,0,1.5203180313110352,0,0,1.452359914779663
0.072446163,0,0,1.5203180313110352,0,0,1.452359914779663
0.07259542,0,0,1.5203180313110352,0,0,0.152879998087883
0.07274127,0,0,1.5203180313110352,0,0,0.152879998087883
0.072888084,0,0,1.5203180313110352,0,0,1.070159912109375
0.073046508,0,0,1.5203180313110352,0,0,1.070159912109375
0.073188506,0,0,1.5825673341751099,0,0,1.070159912109375
0.073350782,0,0,1.5825673341751099,0,0,0.305759996175766
0.073480929,0,0,1.5825673341751099,0,0,0.305759996175766
0.073626761,0,0,1.5825673341751099,0,0,0.0764399990439415
0.073773056,0,0,1.5825673341751099,0,0,0.0764399990439415
0.073919202,0,0,1.5825673341751099,0,0,0.7644000053405762
0.074065664,0,0,1.5825673341751099,0,0,0.7644000053405762
0.074211606,0,0,1.4532804489135742,0,0,1.1466000080108643
0.074357938,0,0,1.4532804489135742,0,0,1.1466000080108643
0.0745044,0,0,1.4532804489135742,0,0,0.9937199950218201
0.074650417,0,0,1.4532804489135742,0,0,0.9937199950218201
0.074801156,0,0,1.4532804489135742,0,0,0.9937199950218201
0.07494645,0,0,1.4532804489135742,0,0,2.06387996673584
0.075092504,0,0,1.3527239561080933,0,0,2.06387996673584
0.075238318,0,0,1.3527239561080933,0,0,0.152879998087883
0.07538426,0,0,1.3527239561080933,0,0,0.152879998087883
0.075557277,0,0,1.3527239561080933,0,0,0.611519992351532
0.075685424,0,0,1.3527239561080933,0,0,0.611519992351532
0.075837515,0,0,1.3527239561080933,0,0,0.3822000026702881
0.075985161,0,0,1.3527239561080933,0,0,0.3822000026702881
0.076131715,0,0,1.403002142906189,0,0,0.9937199950218201
0.076277899,0,0,1.403002142906189,0,0,0.9937199950218201
0.076423842,0,0,1.403002142906189,0,0,0.9937199950218201
0.076574377,0,0,1.403002142906189,0,0,1.605239987373352
0.076726376,0,0,1.403002142906189,0,0,1.605239987373352
0.07687967,0,0,1.403002142906189,0,0,0.0764399990439415
0.077030317,0,0,1.403002142906189,0,0,0.0764399990439415
0.077186148,0,0,1.3048399686813354,0,0,0
0.077343684,0,0,1.3048399686813354,0,0,0
0.077496738,0,0,1.3048399686813354,0,0,0.8408399820327759
0.07765344,0,0,1.3048399686813354,0,0,0.8408399820327759
0.07779616,0,0,1.3048399686813354,0,0,1.2994799613952637
0.077942566,0,0,1.3048399686813354,0,0,1.2994799613952637
0.078088935,0,0,1.3934253454208374,0,0,0.611519992351532
0.078235433,0,0,1.3934253454208374,0,0,0.611519992351532
0.078381543,0,0,1.3934253454208374,0,0,0.611519992351532
0.07852793,0,0,1.3934253454208374,0,0,0.611519992351532
0.07867454,0,0,1.3934253454208374,0,0,0.611519992351532
0.078824909,0,0,1.3934253454208374,0,0,0.5350799560546875
0.078969722,0,0,1.3934253454208374,0,0,0.5350799560546875
0.079115831,0,0,1.3910311460494995,0,0,0.3822000026702881
0.079271552,0,0,1.3910311460494995,0,0,0.3822000026702881
0.079421754,0,0,1.3910311460494995,0,0,0
0.079583752,0,0,1.3910311460494995,0,0,0
0.079742325,0,0,1.3910311460494995,0,0,0.9172800183296204
0.079903638,0,0,1.3910311460494995,0,0,0.9172800183296204
0.080045599,0,0,1.3910311460494995,0,0,0.9172800183296204
0.08019332,0,0,1.5155296325683594,0,0,0.9172800183296204
0.080340077,0,0,1.5155296325683594,0,0,0.5350799560546875
0.08048665,0,0,1.5155296325683594,0,0,0.5350799560546875
0.080633185,0,0,1.5155296325683594,0,0,0.5350799560546875
0.080779924,0,0,1.5155296325683594,0,0,0.3822000026702881
0.080926053,0,0,1.5155296325683594,0,0,0.3822000026702881
0.081072347,0,0,1.5155296325683594,0,0,0
0.081218753,0,0,1.580173134803772,0,0,0
0.081364937,0,0,1.580173134803772,0,0,0.2293200045824051
0.081511509,0,0,1.580173134803772,0,0,0.2293200045824051
0.081657934,0,0,1.580173134803772,0,0,0.5350799560546875
0.081804636,0,0,1.580173134803772,0,0,0.5350799560546875
0.081950875,0,0,1.580173134803772,0,0,0.611519992351532
0.082097355,0,0,1.6160861253738403,0,0,0.611519992351532
0.082252335,0,0,1.6160861253738403,0,0,0.611519992351532
0.082395277,0,0,1.6160861253738403,0,0,0.4586400091648102
0.082541443,0,0,1.6160861253738403,0,0,0.4586400091648102
0.082687848,0,0,1.6160861253738403,0,0,0.3822000026702881
0.082838699,0,0,1.6160861253738403,0,0,0.3822000026702881
0.082985012,0,0,1.6160861253738403,0,0,1.8345600366592407
0.083131288,0,0,1.5682021379470825,0,0,1.8345600366592407
0.083277953,0,0,1.5682021379470825,0,0,1.375920057296753
0.083424396,0,0,1.5682021379470825,0,0,1.375920057296753
0.083570876,0,0,1.5682021379470825,0,0,1.1466000080108643
0.083717356,0,0,1.5682021379470825,0,0,1.1466000080108643
0.083863743,0,0,1.5682021379470825,0,0,1.1466000080108643
0.084010241,0,0,1.5682021379470825,0,0,1.223039984703064
0.084156536,0,0,1.5682021379470825,0,0,1.223039984703064
0.084302849,0,0,1.5682021379470825,0,0,0.2293200045824051
0.08444907,0,0,1.5682021379470825,0,0,0.2293200045824051
0.084595568,0,0,1.5682021379470825,0,0,0.8408399820327759
0.084742715,0,0,1.5682021379470825,0,0,0.8408399820327759
0.084887139,0,0,1.5682021379470825,0,0,0.4586400091648102
0.085033416,0,0,1.5682021379470825,0,0,0.4586400091648102
0.085179821,0,0,1.400607943534851,0,0,1.223039984703064
0.085326153,0,0,1.400607943534851,0,0,1.223039984703064
0.085472485,0,0,1.400607943534851,0,0,1.223039984703064
0.085618724,0,0,1.400607943534851,0,0,-0.152879998087883
0.085765371,0,0,1.400607943534851,0,0,-0.152879998087883
0.085911406,0,0,1.400607943534851,0,0,-0.305759996175766
0.086058164,0,0,1.400607943534851,0,0,-0.305759996175766
0.086204496,0,0,1.278503656387329,0,0,0.305759996175766
0.086350679,0,0,1.278503656387329,0,0,0.305759996175766
0.086497048,0,0,1.278503656387329,0,0,0.6879600286483765
0.08664325,0,0,1.278503656387329,0,0,0.6879600286483765
0.086796915,0,0,1.278503656387329,0,0,1.070159912109375
0.086940932,0,0,1.278503656387329,0,0,1.070159912109375
0.087087245,0,0,1.278503656387329,0,0,1.070159912109375
0.087233447,0,0,1.3479355573654175,0,0,1.375920057296753
0.087379853,0,0,1.3479355573654175,0,0,1.375920057296753
0.087526463,0,0,1.3479355573654175,0,0,1.375920057296753
0.087672943,0,0,1.3479355573654175,0,0,1.375920057296753
0.087819274,0,0,1.3479355573654175,0,0,0.8408399820327759
0.087965773,0,0,1.3479355573654175,0,0,0.8408399820327759
0.088112327,0,0,1.3239935636520386,0,0,0.9937199950218201
0.088258659,0,0,1.3239935636520386,0,0,0.9937199950218201
0.08840512,0,0,1.3239935636520386,0,0,0.9172800183296204
0.088551674,0,0,1.3239935636520386,0,0,0.9172800183296204
0.088698098,0,0,1.3239935636520386,0,0,0.9172800183296204
0.088844597,0,0,1.3239935636520386,0,0,0.5350799560546875
0.088990762,0,0,1.3239935636520386,0,0,0.5350799560546875
0.089137353,0,0,1.3192051649093628,0,0,0.152879998087883
0.089283685,0,0,1.3192051649093628,0,0,0.152879998087883
0.089429998,0,0,1.3192051649093628,0,0,0.305759996175766
0.08957657,0,0,1.3192051649093628,0,0,0.305759996175766
0.089722958,0,0,1.3192051649093628,0,0,0.4586400091648102
0.089869586,0,0,1.3192051649093628,0,0,0.4586400091648102
0.090015899,0,0,1.3192051649093628,0,0,0.4586400091648102
0.090162379,0,0,1.3862427473068237,0,0,0.5350799560546875
0.090308859,0,0,1.3862427473068237,0,0,0.5350799560546875
0.090455246,0,0,1.3862427473068237,0,0,1.223039984703064
0.090601541,0,0,1.3862427473068237,0,0,1.223039984703064
0.090763372,0,0,1.3862427473068237,0,0,0.8408399820327759
0.090911223,0,0,1.3862427473068237,0,0,0.8408399820327759
0.091057517,0,0,1.3862427473068237,0,0,0.4586400091648102
0.091203942,0,0,1.4053963422775269,0,0,0.4586400091648102
0.091354736,0,0,1.4053963422775269,0,0,0.3822000026702881
0.09149892,0,0,1.4053963422775269,0,0,0.3822000026702881
0.091645104,0,0,1.4053963422775269,0,0,0.5350799560546875
0.091791935,0,0,1.4053963422775269,0,0,0.5350799560546875
0.091938212,0,0,1.4053963422775269,0,0,0.5350799560546875
0.092084691,0,0,1.4053963422775269,0,0,2.3696401119232178
0.092231449,0,0,1.599326729774475,0,0,2.3696401119232178
0.092377836,0,0,1.599326729774475,0,0,1.8345600366592407
0.092524113,0,0,1.599326729774475,0,0,1.8345600366592407
0.092670296,0,0,1.599326729774475,0,0,1.223039984703064
0.092817017,0,0,1.599326729774475,0,0,1.223039984703064
0.092963163,0,0,1.599326729774475,0,0,1.223039984703064
0.09310981,0,0,1.580173134803772,0,0,1.223039984703064
0.09325629,0,0,1.580173134803772,0,0,1.1466000080108643
0.093402585,0,0,1.580173134803772,0,0,1.1466000080108643
0.093549102,0,0,1.580173134803772,0,0,1.1466000080108643
0.093695544,0,0,1.580173134803772,0,0,-0.3822000026702881
0.093842191,0,0,1.580173134803772,0,0,-0.3822000026702881
0.093988356,0,0,1.580173134803772,0,0,0.305759996175766
0.094134947,0,0,1.5753847360610962,0,0,0.305759996175766
0.094281168,0,0,1.5753847360610962,0,0,0.7644000053405762
0.094443388,0,0,1.5753847360610962,0,0,0.7644000053405762
0.094574313,0,0,1.5753847360610962,0,0,0.611519992351532
0.094720219,0,0,1.5753847360610962,0,0,0.611519992351532
0.09486718,0,0,1.5753847360610962,0,0,0.611519992351532
0.095013419,0,0,1.5753847360610962,0,0,0.7644000053405762
0.095159695,0,0,1.5945383310317993,0,0,0.7644000053405762
0.095306231,0,0,1.5945383310317993,0,0,0.8408399820327759
0.095465803,0,0,1.5945383310317993,0,0,0.8408399820327759
0.095599728,0,0,1.5945383310317993,0,0,2.06387996673584
0.095746078,0,0,1.5945383310317993,0,0,2.06387996673584
0.095896224,0,0,1.5945383310317993,0,0,0.6879600286483765
0.096040389,0,0,1.5945383310317993,0,0,0.6879600286483765
0.096186999,0,0,1.4987702369689941,0,0,0.4586400091648102
0.096333257,0,0,1.4987702369689941,0,0,0.4586400091648102
0.096479848,0,0,1.4987702369689941,0,0,0.4586400091648102
0.096626235,0,0,1.4987702369689941,0,0,0.4586400091648102
0.096772585,0,0,1.4987702369689941,0,0,0.4586400091648102
0.096919065,0,0,1.4987702369689941,0,0,1.375920057296753
0.097065638,0,0,1.4987702369689941,0,0,1.375920057296753
0.097212062,0,0,1.3503297567367554,0,0,0.8408399820327759
0.09735856,0,0,1.3503297567367554,0,0,0.8408399820327759
0.097504892,0,0,1.3503297567367554,0,0,1.1466000080108643
0.097651242,0,0,1.3503297567367554,0,0,1.1466000080108643
0.09779763,0,0,1.3503297567367554,0,0,1.223039984703064
0.097943813,0,0,1.3503297567367554,0,0,1.223039984703064
0.098090275,0,0,1.3503297567367554,0,0,1.223039984703064
0.098236551,0,0,1.455674648284912,0,0,0
0.09838292,0,0,1.455674648284912,0,0,0
0.0985294,0,0,1.455674648284912,0,0,0
0.098675713,0,0,1.455674648284912,0,0,0
0.098823563,0,0,1.455674648284912,0,0,0.5350799560546875
0.098970062,0,0,1.455674648284912,0,0,0.5350799560546875
0.099116467,0,0,1.3215993642807007,0,0,0
0.099262873,0,0,1.3215993642807007,0,0,0
0.099409224,0,0,1.3215993642807007,0,0,0.4586400091648102
0.099555852,0,0,1.3215993642807007,0,0,0.4586400091648102
0.099702461,0,0,1.3215993642807007,0,0,0.4586400091648102
0.09984883,0,0,1.3215993642807007,0,0,2.06387996673584
0.099995236,0,0,1.3215993642807007,0,0,2.06387996673584
0.100141475,0,0,1.3096283674240112,0,0,1.375920057296753
0.100287547,0,0,1.3096283674240112,0,0,1.375920057296753
0.100437638,0,0,1.3096283674240112,0,0,0.0764399990439415
0.100582396,0,0,1.3096283674240112,0,0,0.0764399990439415
0.100729024,0,0,1.3096283674240112,0,0,0.9172800183296204
0.100875337,0,0,1.3096283674240112,0,0,0.9172800183296204
0.101021651,0,0,1.3096283674240112,0,0,1.070159912109375
0.101168223,0,0,1.4484920501708984,0,0,1.070159912109375
0.101314425,0,0,1.4484920501708984,0,0,1.070159912109375
0.101460924,0,0,1.4484920501708984,0,0,0
0.101607181,0,0,1.4484920501708984,0,0,0
0.101753569,0,0,1.4484920501708984,0,0,1.452359914779663
0.101899919,0,0,1.4484920501708984,0,0,1.452359914779663
0.102046547,0,0,1.4484920501708984,0,0,1.223039984703064
0.102192879,0,0,1.4221558570861816,0,0,1.223039984703064
0.102339062,0,0,1.4221558570861816,0,0,0.9172800183296204
0.102485376,0,0,1.4221558570861816,0,0,0.9172800183296204
0.102631781,0,0,1.4221558570861816,0,0,0.9172800183296204
0.102779632,0,0,1.4221558570861816,0,0,0.7644000053405762
0.102926037,0,0,1.4221558570861816,0,0,0.7644000053405762
0.103072369,0,0,1.4221558570861816,0,0,0.611519992351532
0.103219016,0,0,1.5179238319396973,0,0,0.611519992351532
0.103365273,0,0,1.5179238319396973,0,0,0.5350799560546875
0.103511846,0,0,1.5179238319396973,0,0,0.5350799560546875
0.103657992,0,0,1.5179238319396973,0,0,0.7644000053405762
0.103805695,0,0,1.5179238319396973,0,0,0.7644000053405762
0.103951582,0,0,1.5179238319396973,0,0,0.4586400091648102
0.104097691,0,0,1.5179238319396973,0,0,0.4586400091648102
0.104243894,0,0,1.5514427423477173,0,0,0.4586400091648102
0.104390336,0,0,1.5514427423477173,0,0,2.2167599201202393
0.104536594,0,0,1.5514427423477173,0,0,2.2167599201202393
0.104683056,0,0,1.5514427423477173,0,0,1.758120059967041
0.104829461,0,0,1.5514427423477173,0,0,1.758120059967041
0.104979626,0,0,1.5514427423477173,0,0,1.070159912109375
0.105124106,0,0,1.534683346748352,0,0,1.070159912109375
0.105270568,0,0,1.534683346748352,0,0,1.223039984703064
0.105417233,0,0,1.534683346748352,0,0,1.223039984703064
0.10556362,0,0,1.534683346748352,0,0,0.9937199950218201
0.105710193,0,0,1.534683346748352,0,0,0.9937199950218201
0.105856302,0,0,1.534683346748352,0,0,0.9937199950218201
0.106002967,0,0,1.534683346748352,0,0,-0.9172800183296204
0.106149299,0,0,1.5729905366897583,0,0,-0.9172800183296204
0.106295686,0,0,1.5729905366897583,0,0,-0.152879998087883
0.106441962,0,0,1.5729905366897583,0,0,-0.152879998087883
0.106588405,0,0,1.5729905366897583,0,0,0.5350799560546875
0.106746681,0,0,1.5729905366897583,0,0,0.5350799560546875
0.106881458,0,0,1.5729905366897583,0,0,0.8408399820327759
0.107027864,0,0,1.5729905366897583,0,0,0.8408399820327759
0.107174306,0,0,1.3670891523361206,0,0,0.5350799560546875
0.107320527,0,0,1.3670891523361206,0,0,0.5350799560546875
0.107467007,0,0,1.3670891523361206,0,0,0.5350799560546875
0.107613635,0,0,1.3670891523361206,0,0,1.375920057296753
0.107759782,0,0,1.3670891523361206,0,0,1.375920057296753
0.107906224,0,0,1.3670891523361206,0,0,0.0764399990439415
0.108052704,0,0,1.3670891523361206,0,0,0.0764399990439415
0.108198999,0,0,1.2761094570159912,0,0,0.4586400091648102
0.108345275,0,0,1.2761094570159912,0,0,0.4586400091648102
0.108491755,0,0,1.2761094570159912,0,0,0.7644000053405762
0.108638328,0,0,1.2761094570159912,0,0,0.7644000053405762
0.108784345,0,0,1.2761094570159912,0,0,0.7644000053405762
0.108930787,0,0,1.2761094570159912,0,0,0.9937199950218201
0.109077304,0,0,1.2761094570159912,0,0,0.9937199950218201
0.109223488,0,0,1.4245500564575195,0,0,1.8345600366592407
0.109369894,0,0,1.4245500564575195,0,0,1.8345600366592407
0.109519707,0,0,1.4245500564575195,0,0,1.758120059967041
0.109664705,0,0,1.4245500564575195,0,0,1.758120059967041
0.109811241,0,0,1.4245500564575195,0,0,1.1466000080108643
0.109957813,0,0,1.4245500564575195,0,0,1.1466000080108643
0.110104293,0,0,1.4245500564575195,0,0,1.070159912109375
0.110250995,0,0,1.2952631711959839,0,0,1.070159912109375
0.11039829,0,0,1.2952631711959839,0,0,1.070159912109375
0.110546937,0,0,1.2952631711959839,0,0,1.070159912109375
0.110694472,0,0,1.2952631711959839,0,0,1.070159912109375
0.110857785,0,0,1.2952631711959839,0,0,1.9874399900436401
0.110994043,0,0,1.2952631711959839,0,0,1.9874399900436401
0.111143023,0,0,1.2952631711959839,0,0,0.2293200045824051
0.111290725,0,0,1.2952631711959839,0,0,0.2293200045824051
0.111436797,0,0,1.2952631711959839,0,0,1.375920057296753
0.111583203,0,0,1.2952631711959839,0,0,1.375920057296753
0.111729535,0,0,1.2952631711959839,0,0,1.070159912109375
0.111875756,0,0,1.2952631711959839,0,0,1.070159912109375
0.112022143,0,0,1.2952631711959839,0,0,0.7644000053405762
0.112168456,0,0,1.414973258972168,0,0,0.7644000053405762
0.112315566,0,0,1.414973258972168,0,0,0.7644000053405762
0.112463786,0,0,1.414973258972168,0,0,-0.305759996175766
0.112654729,0,0,1.414973258972168,0,0,9.478560447692871
0.112774931,0,0,1.414973258972168,0,0,1.8345600366592407
0.112940318,0,0,1.414973258972168,0,0,1.8345600366592407
0.113098224,0,0,1.414973258972168,0,0,0.5350799560546875
0.113248352,0,0,1.434126853942871,0,0,0.5350799560546875
0.113396591,0,0,1.434126853942871,0,0,0.305759996175766
0.113543553,0,0,1.434126853942871,0,0,0.305759996175766
0.113689792,0,0,1.434126853942871,0,0,0.611519992351532
0.113836142,0,0,1.434126853942871,0,0,0.611519992351532
0.113982529,0,0,1.434126853942871,0,0,0.5350799560546875
0.114138731,0,0,1.5155296325683594,0,0,0.5350799560546875
0.114281785,0,0,1.5155296325683594,0,0,0.5350799560546875
0.114428024,0,0,1.5155296325683594,0,0,0.9937199950218201
0.114575171,0,0,1.5155296325683594,0,0,0.9937199950218201
0.114725206,0,0,1.5155296325683594,0,0,1.8345600366592407
0.11487889,0,0,1.5155296325683594,0,0,1.8345600366592407
0.115032055,0,0,1.5155296325683594,0,0,1.6816799640655518
0.115179572,0,0,1.5466543436050415,0,0,1.6816799640655518
0.115324904,0,0,1.5466543436050415,0,0,0.9937199950218201
0.115469754,0,0,1.5466543436050415,0,0,0.9937199950218201
0.115614734,0,0,1.5466543436050415,0,0,0.9172800183296204
0.115759677,0,0,1.5466543436050415,0,0,0.9172800183296204
0.115904675,0,0,1.5466543436050415,0,0,0.9172800183296204
0.116049192,0,0,1.5466543436050415,0,0,0.9172800183296204
0.116194061,0,0,1.580173134803772,0,0,0.9172800183296204
0.116338893,0,0,1.580173134803772,0,0,1.375920057296753
0.116484854,0,0,1.580173134803772,0,0,1.375920057296753
0.116628723,0,0,1.580173134803772,0,0,0.6879600286483765
0.116773221,0,0,1.580173134803772,0,0,0.6879600286483765
0.116918201,0,0,1.580173134803772,0,0,1.223039984703064
0.117062644,0,0,1.580173134803772,0,0,1.223039984703064
0.117207346,0,0,1.5682021379470825,0,0,0.305759996175766
0.117352363,0,0,1.5682021379470825,0,0,0.305759996175766
0.117497214,0,0,1.5682021379470825,0,0,0.305759996175766
0.117641916,0,0,1.5682021379470825,0,0,0.305759996175766
0.117786766,0,0,1.5682021379470825,0,0,0.305759996175766
0.117931746,0,0,1.5682021379470825,0,0,0.0764399990439415
0.118076504,0,0,1.5682021379470825,0,0,0.0764399990439415
0.118221428,0,0,1.5538369417190552,0,0,1.223039984703064
0.118366278,0,0,1.5538369417190552,0,0,1.223039984703064
0.118511184,0,0,1.5538369417190552,0,0,0.3822000026702881
0.118663664,0,0,1.5538369417190552,0,0,0.3822000026702881
0.118807811,0,0,1.5538369417190552,0,0,0.3822000026702881
0.118954976,0,0,1.5538369417190552,0,0,1.070159912109375
0.119110326,0,0,1.5538369417190552,0,0,1.070159912109375
0.11926575,0,0,1.335964560508728,0,0,-0.3822000026702881
0.1194336,0,0,1.335964560508728,0,0,-0.3822000026702881
0.11956558,0,0,1.335964560508728,0,0,-0.611519992351532
0.119712264,0,0,1.335964560508728,0,0,-0.611519992351532
0.119858577,0,0,1.335964560508728,0,0,1.375920057296753
0.120004779,0,0,1.335964560508728,0,0,1.375920057296753
0.12015137,0,0,1.3527239561080933,0,0,0.9172800183296204
0.120304609,0,0,1.3527239561080933,0,0,0.9172800183296204
0.120443978,0,0,1.3527239561080933,0,0,0.0764399990439415
0.120590458,0,0,1.3527239561080933,0,0,0.0764399990439415
0.120739493,0,0,1.3527239561080933,0,0,0.0764399990439415
0.120893492,0,0,1.3527239561080933,0,0,-0.6879600286483765
0.121047509,0,0,1.3527239561080933,0,0,9.096360206604004
0.121195544,0,0,1.3120225667953491,0,0,1.758120059967041
0.121342357,0,0,1.3120225667953491,0,0,1.758120059967041
0.121488671,0,0,1.3120225667953491,0,0,0.9172800183296204
0.121635225,0,0,1.3120225667953491,0,0,0.9172800183296204
0.121781371,0,0,1.3120225667953491,0,0,1.452359914779663
0.121928184,0,0,1.3120225667953491,0,0,1.452359914779663
0.122074498,0,0,1.3120225667953491,0,0,0.7644000053405762
0.122221126,0,0,1.3694833517074585,0,0,0.7644000053405762
0.122367383,0,0,1.3694833517074585,0,0,0.7644000053405762
0.122513845,0,0,1.3694833517074585,0,0,1.223039984703064
0.12266051,0,0,1.3694833517074585,0,0,1.223039984703064
0.122807045,0,0,1.3694833517074585,0,0,-0.152879998087883
0.122953155,0,0,1.3694833517074585,0,0,-0.152879998087883
0.123099524,0,0,1.3694833517074585,0,0,0
0.123256207,0,0,1.4532804489135742,0,0,0
0.123398168,0,0,1.4532804489135742,0,0,0
0.123545704,0,0,1.4532804489135742,0,0,0
0.123691962,0,0,1.4532804489135742,0,0,0.6879600286483765
0.123838127,0,0,1.4532804489135742,0,0,0.6879600286483765
0.123984384,0,0,1.4532804489135742,0,0,0.6879600286483765
0.124130938,0,0,1.4652514457702637,0,0,0.9172800183296204
0.124277344,0,0,1.4652514457702637,0,0,0.9172800183296204
0.124423528,0,0,1.4652514457702637,0,0,0
0.124570119,0,0,1.4652514457702637,0,0,0
0.124716395,0,0,1.4652514457702637,0,0,0.0764399990439415
0.124863134,0,0,1.4652514457702637,0,0,0.0764399990439415
0.125009281,0,0,1.4652514457702637,0,0,0.5350799560546875
0.125155668,0,0,1.558625340461731,0,0,0.5350799560546875
0.125302055,0,0,1.558625340461731,0,0,0.6879600286483765
0.125448109,0,0,1.558625340461731,0,0,0.6879600286483765
0.125594682,0,0,1.558625340461731,0,0,0.6879600286483765
0.125740791,0,0,1.558625340461731,0,0,0.4586400091648102
0.125925845,0,0,1.558625340461731,0,0,0.4586400091648102
0.126033973,0,0,1.558625340461731,0,0,0.9937199950218201
0.12617999,0,0,1.5682021379470825,0,0,0.9937199950218201
0.12632647,0,0,1.5682021379470825,0,0,0.4586400091648102
0.126472598,0,0,1.5682021379470825,0,0,0.4586400091648102
0.126618893,0,0,1.5682021379470825,0,0,0.611519992351532
0.126766984,0,0,1.5682021379470825,0,0,0.611519992351532
0.126913297,0,0,1.5682021379470825,0,0,0.4586400091648102
0.127059666,0,0,1.5682021379470825,0,0,0.4586400091648102
0.127205813,0,0,1.534683346748352,0,0,0.4586400091648102
0.127351996,0,0,1.534683346748352,0,0,1.8345600366592407
0.127498328,0,0,1.534683346748352,0,0,1.8345600366592407
0.127644808,0,0,1.534683346748352,0,0,1.8345600366592407
0.127794936,0,0,1.534683346748352,0,0,1.8345600366592407
0.127939823,0,0,1.534683346748352,0,0,0.305759996175766
0.128086155,0,0,1.534683346748352,0,0,0.305759996175766
0.128232598,0,0,1.5610195398330688,0,0,0.9937199950218201
0.128379022,0,0,1.5610195398330688,0,0,0.9937199950218201
0.128525391,0,0,1.5610195398330688,0,0,0.9172800183296204
0.128671797,0,0,1.5610195398330688,0,0,0.9172800183296204
0.12881811,0,0,1.5610195398330688,0,0,0.9172800183296204
0.128964608,0,0,1.5610195398330688,0,0,-0.4586400091648102
0.129110903,0,0,1.5610195398330688,0,0,-0.4586400091648102
0.129256957,0,0,1.482010841369629,0,0,0.0764399990439415
0.129403381,0,0,1.482010841369629,0,0,0.0764399990439415
0.12954975,0,0,1.482010841369629,0,0,0.2293200045824051
0.129708674,0,0,1.482010841369629,0,0,0.2293200045824051
0.129842451,0,0,1.482010841369629,0,0,0.6879600286483765
0.129988616,0,0,1.482010841369629,0,0,0.6879600286483765
0.130134966,0,0,1.4101848602294922,0,0,0.6879600286483765
0.130281353,0,0,1.4101848602294922,0,0,1.070159912109375
0.130427704,0,0,1.4101848602294922,0,0,1.070159912109375
0.13057411,0,0,1.4101848602294922,0,0,0.611519992351532
0.130720571,0,0,1.4101848602294922,0,0,0.611519992351532
0.130867347,0,0,1.4101848602294922,0,0,0.5350799560546875
0.131013327,0,0,1.4101848602294922,0,0,0.5350799560546875
0.131160029,0,0,1.4077905416488647,0,0,0.4586400091648102
0.131306565,0,0,1.4077905416488647,0,0,0.4586400091648102
0.131452822,0,0,1.4077905416488647,0,0,0.9172800183296204
0.131599284,0,0,1.4077905416488647,0,0,0.9172800183296204
0.131745393,0,0,1.4077905416488647,0,0,0.9172800183296204
0.131891873,0,0,1.4077905416488647,0,0,2.3696401119232178
0.132038334,0,0,1.4077905416488647,0,0,2.3696401119232178
0.132184888,0,0,1.335964560508728,0,0,1.6816799640655518
0.132335072,0,0,1.335964560508728,0,0,1.6816799640655518
0.132479811,0,0,1.335964560508728,0,0,0
0.13262618,0,0,1.335964560508728,0,0,0
0.132772493,0,0,1.335964560508728,0,0,0.8408399820327759
0.132918714,0,0,1.335964560508728,0,0,0.8408399820327759
0.133065157,0,0,1.335964560508728,0,0,1.223039984703064
0.133211581,0,0,1.3766659498214722,0,0,1.223039984703064
0.133357876,0,0,1.3766659498214722,0,0,1.223039984703064
0.133504374,0,0,1.3766659498214722,0,0,0
0.133650558,0,0,1.3766659498214722,0,0,0
0.133796871,0,0,1.3766659498214722,0,0,0
0.133943129,0,0,1.3766659498214722,0,0,0
0.13408972,0,0,1.3766659498214722,0,0,0.3822000026702881
0.134235903,0,0,1.3670891523361206,0,0,0.3822000026702881
0.134382291,0,0,1.3670891523361206,0,0,0.5350799560546875
0.134528789,0,0,1.3670891523361206,0,0,0.5350799560546875
0.13467525,0,0,1.3670891523361206,0,0,0.9172800183296204
0.134822601,0,0,1.3670891523361206,0,0,0.9172800183296204
0.134969729,0,0,1.3670891523361206,0,0,0.9172800183296204
0.135115894,0,0,1.3670891523361206,0,0,1.5288000106811523
0.135262318,0,0,1.4293384552001953,0,0,1.5288000106811523
0.135408576,0,0,1.4293384552001953,0,0,0
0.135555074,0,0,1.4293384552001953,0,0,0
0.135701165,0,0,1.4293384552001953,0,0,0.3822000026702881
0.135847775,0,0,1.4293384552001953,0,0,0.3822000026702881
0.135994033,0,0,1.4293384552001953,0,0,0.5350799560546875
0.13614042,0,0,1.5083470344543457,0,0,0.5350799560546875
0.136286752,0,0,1.5083470344543457,0,0,0.5350799560546875
0.136433343,0,0,1.5083470344543457,0,0,0.6879600286483765
0.136579452,0,0,1.5083470344543457,0,0,0.6879600286483765
0.136725784,0,0,1.5083470344543457,0,0,1.375920057296753
0.136875708,0,0,1.5083470344543457,0,0,1.375920057296753
0.137020429,0,0,1.5083470344543457,0,0,0
0.137166668,0,0,1.5825673341751099,0,0,0
0.137313018,0,0,1.5825673341751099,0,0,0.8408399820327759
0.137459609,0,0,1.5825673341751099,0,0,0.8408399820327759
0.137605793,0,0,1.5825673341751099,0,0,0.9172800183296204
0.13775218,0,0,1.5825673341751099,0,0,0.9172800183296204
0.137898568,0,0,1.5825673341751099,0,0,0.9172800183296204
0.138044862,0,0,1.5825673341751099,0,0,0.9172800183296204
0.138191268,0,0,1.5897499322891235,0,0,0.9172800183296204
0.138337544,0,0,1.5897499322891235,0,0,-29.582279205322266
0.138484098,0,0,1.5897499322891235,0,0,-29.582279205322266
0.138630115,0,0,1.5897499322891235,0,0,0
0.138777706,0,0,1.5897499322891235,0,0,0
0.138924038,0,0,1.5897499322891235,0,0,0.2293200045824051
0.139076388,0,0,1.5897499322891235,0,0,0.2293200045824051
0.139217276,0,0,1.5921441316604614,0,0,1.2994799613952637
0.139363274,0,0,1.5921441316604614,0,0,1.2994799613952637
0.139509754,0,0,1.5921441316604614,0,0,1.2994799613952637
0.13965616,0,0,1.5921441316604614,0,0,1.375920057296753
0.139802325,0,0,1.5921441316604614,0,0,1.375920057296753
0.139948712,0,0,1.5921441316604614,0,0,0.5350799560546875
0.140095099,0,0,1.5921441316604614,0,0,0.5350799560546875
0.14024132,0,0,1.6089035272598267,0,0,0.6879600286483765
0.140387707,0,0,1.6089035272598267,0,0,0.6879600286483765
0.140534095,0,0,1.6089035272598267,0,0,0.4586400091648102
0.140680501,0,0,1.6089035272598267,0,0,0.4586400091648102
0.140826684,0,0,1.6089035272598267,0,0,0.6879600286483765
0.140973183,0,0,1.6089035272598267,0,0,0.6879600286483765
0.141119737,0,0,1.6089035272598267,0,0,0.6879600286483765
0.141266179,0,0,1.3479355573654175,0,0,0.5350799560546875
0.141415826,0,0,1.3479355573654175,0,0,0.5350799560546875
0.141560769,0,0,1.3479355573654175,0,0,9.631440162658691
0.141706971,0,0,1.3479355573654175,0,0,-0.152879998087883
0.141853488,0,0,1.3479355573654175,0,0,1.070159912109375
0.141999783,0,0,1.3479355573654175,0,0,1.070159912109375
0.142146207,0,0,1.338358759880066,0,0,1.452359914779663
0.142292594,0,0,1.338358759880066,0,0,1.452359914779663
0.142439037,0,0,1.338358759880066,0,0,0.9172800183296204
0.142585147,0,0,1.338358759880066,0,0,0.9172800183296204
0.142731423,0,0,1.338358759880066,0,0,0.9172800183296204
0.142878403,0,0,1.338358759880066,0,0,0.305759996175766
0.143024512,0,0,1.338358759880066,0,0,0.305759996175766
0.143170955,0,0,1.3239935636520386,0,0,0
0.143317287,0,0,1.3239935636520386,0,0,0
0.143463785,0,0,1.3239935636520386,0,0,0.0764399990439415
0.143609839,0,0,1.3239935636520386,0,0,0.0764399990439415
0.143756282,0,0,1.3239935636520386,0,0,0.5350799560546875
0.143902632,0,0,1.3239935636520386,0,0,0.5350799560546875
0.144048835,0,0,1.3239935636520386,0,0,0.5350799560546875
0.144195166,0,0,1.3646949529647827,0,0,0.6879600286483765
0.144341739,0,0,1.3646949529647827,0,0,0.6879600286483765
0.144488089,0,0,1.3646949529647827,0,0,0.0764399990439415
0.144634199,0,0,1.3646949529647827,0,0,0.0764399990439415
0.144780679,0,0,1.3646949529647827,0,0,0.5350799560546875
0.144927029,0,0,1.3646949529647827,0,0,0.5350799560546875
0.145073786,0,0,1.3646949529647827,0,0,0.7644000053405762
0.145219729,0,0,1.460463047027588,0,0,0.7644000053405762
0.145366265,0,0,1.460463047027588,0,0,0.6879600286483765
0.145512597,0,0,1.460463047027588,0,0,0.6879600286483765
0.145658873,0,0,1.460463047027588,0,0,0.6879600286483765
0.145805334,0,0,1.460463047027588,0,0,2.06387996673584
0.145955221,0,0,1.460463047027588,0,0,2.06387996673584
0.146099979,0,0,1.460463047027588,0,0,0
0.146246459,0,0,1.4628572463989258,0,0,0
0.146392772,0,0,1.4628572463989258,0,0,0.8408399820327759
0.146539345,0,0,1.4628572463989258,0,0,0.8408399820327759
0.146685825,0,0,1.4628572463989258,0,0,0.8408399820327759
0.14683323,0,0,1.4628572463989258,0,0,0.8408399820327759
0.146980044,0,0,1.4628572463989258,0,0,0.8408399820327759
0.14712619,0,0,1.4628572463989258,0,0,0.8408399820327759
0.147272707,0,0,1.5322890281677246,0,0,0.8408399820327759
0.14741915,0,0,1.5322890281677246,0,0,0.9937199950218201
0.147565426,0,0,1.5322890281677246,0,0,0.9937199950218201
0.147711814,0,0,1.5322890281677246,0,0,0.5350799560546875
0.147858238,0,0,1.5322890281677246,0,0,0.5350799560546875
0.148004773,0,0,1.5322890281677246,0,0,0.305759996175766
0.148151105,0,0,1.5466543436050415,0,0,0.305759996175766
0.148297567,0,0,1.5466543436050415,0,0,0.305759996175766
0.148458157,0,0,1.5466543436050415,0,0,0.305759996175766
0.148590582,0,0,1.5466543436050415,0,0,1.452359914779663
0.14873671,0,0,1.5466543436050415,0,0,1.452359914779663
0.14888306,0,0,1.5466543436050415,0,0,1.452359914779663
0.149029596,0,0,1.5466543436050415,0,0,1.605239987373352
0.149175872,0,0,1.5059528350830078,0,0,1.605239987373352
0.149322222,0,0,1.5059528350830078,0,0,1.070159912109375
0.149468498,0,0,1.5059528350830078,0,0,1.070159912109375
0.14961496,0,0,1.5059528350830078,0,0,0.3822000026702881
0.149761551,0,0,1.5059528350830078,0,0,0.3822000026702881
0.149907864,0,0,1.5059528350830078,0,0,0.5350799560546875
0.150054344,0,0,1.5059528350830078,0,0,0.5350799560546875
0.150200694,0,0,1.5203180313110352,0,0,0.5350799560546875
0.150347193,0,0,1.5203180313110352,0,0,0.6879600286483765
0.150497265,0,0,1.5203180313110352,0,0,0.6879600286483765
0.150641856,0,0,1.5203180313110352,0,0,0.6879600286483765
0.150857076,0,0,1.5203180313110352,0,0,0.8408399820327759
0.150937779,0,0,1.5203180313110352,0,0,0.8408399820327759
0.151082907,0,0,1.5203180313110352,0,0,0.8408399820327759
0.151229331,0,0,1.4245500564575195,0,0,0.2293200045824051
0.151375422,0,0,1.4245500564575195,0,0,0.2293200045824051
0.151521958,0,0,1.4245500564575195,0,0,0.6879600286483765
0.151668252,0,0,1.4245500564575195,0,0,0.6879600286483765
0.151814769,0,0,1.4245500564575195,0,0,0.6879600286483765
0.151961064,0,0,1.4245500564575195,0,0,0.7644000053405762
0.152107544,0,0,1.4245500564575195,0,0,0.7644000053405762
0.15225382,0,0,1.3503297567367554,0,0,-0.2293200045824051
0.152400004,0,0,1.3503297567367554,0,0,-0.2293200045824051
0.152546354,0,0,1.3503297567367554,0,0,0.305759996175766
0.152692723,0,0,1.3503297567367554,0,0,0.305759996175766
0.152839314,0,0,1.3503297567367554,0,0,0.6879600286483765
0.152985516,0,0,1.3503297567367554,0,0,0.6879600286483765
0.153132107,0,0,1.3503297567367554,0,0,0.9937199950218201
0.153278328,0,0,1.501164436340332,0,0,0.9937199950218201
0.153424641,0,0,1.501164436340332,0,0,0.9937199950218201
0.153570936,0,0,1.501164436340332,0,0,1.452359914779663
0.153717249,0,0,1.501164436340332,0,0,1.452359914779663
0.153863284,0,0,1.501164436340332,0,0,2.06387996673584
0.154009505,0,0,1.501164436340332,0,0,2.06387996673584
0.154155985,0,0,1.3718775510787964,0,0,1.1466000080108643
0.154302261,0,0,1.3718775510787964,0,0,1.1466000080108643
0.154448667,0,0,1.3718775510787964,0,0,0.9937199950218201
0.154594943,0,0,1.3718775510787964,0,0,0.9937199950218201
0.154753682,0,0,1.3718775510787964,0,0,0.8408399820327759
0.154888718,0,0,1.3718775510787964,0,0,0.8408399820327759
0.155039216,0,0,1.3718775510787964,0,0,0.8408399820327759
0.155183974,0,0,1.278503656387329,0,0,0.9172800183296204
0.155330231,0,0,1.278503656387329,0,0,0.9172800183296204
0.155476637,0,0,1.278503656387329,0,0,0.611519992351532
0.155622858,0,0,1.278503656387329,0,0,0.611519992351532
0.155768967,0,0,1.278503656387329,0,0,0
0.155915429,0,0,1.278503656387329,0,0,0
0.156061798,0,0,1.278503656387329,0,0,0.4586400091648102
0.156208111,0,0,1.3024457693099976,0,0,0.4586400091648102
0.156354776,0,0,1.3024457693099976,0,0,0.7644000053405762
0.156501034,0,0,1.3024457693099976,0,0,0.7644000053405762
0.156647347,0,0,1.3024457693099976,0,0,0.7644000053405762
0.156793901,0,0,1.3024457693099976,0,0,1.5288000106811523
0.156940029,0,0,1.3024457693099976,0,0,1.5288000106811523
0.157086546,0,0,1.3024457693099976,0,0,0
0.1572326,0,0,1.3766659498214722,0,0,0
0.157379098,0,0,1.3766659498214722,0,0,0.2293200045824051
0.157525411,0,0,1.3766659498214722,0,0,0.2293200045824051
0.157671725,0,0,1.3766659498214722,0,0,0.5350799560546875
0.157818093,0,0,1.3766659498214722,0,0,0.5350799560546875
0.157964555,0,0,1.3766659498214722,0,0,0.5350799560546875
0.158110942,0,0,1.3766659498214722,0,0,0.7644000053405762
0.158257533,0,0,1.577778935432434,0,0,0.7644000053405762
0.158404087,0,0,1.577778935432434,0,0,1.452359914779663
0.158550567,0,0,1.577778935432434,0,0,1.452359914779663
0.158697028,0,0,1.577778935432434,0,0,1.1466000080108643
0.158844619,0,0,1.577778935432434,0,0,1.1466000080108643
0.158988173,0,0,1.577778935432434,0,0,0.9937199950218201
0.159132894,0,0,1.577778935432434,0,0,0.9937199950218201
0.159277763,0,0,1.5538369417190552,0,0,0.8408399820327759
0.159422872,0,0,1.5538369417190552,0,0,0.8408399820327759
0.159571075,0,0,1.5538369417190552,0,0,0.8408399820327759
0.159714443,0,0,1.5538369417190552,0,0,2.3696401119232178
0.159859238,0,0,1.5538369417190552,0,0,2.3696401119232178
0.16000407,0,0,1.5538369417190552,0,0,0
0.160148846,0,0,1.455674648284912,0,0,0
0.160293696,0,0,1.455674648284912,0,0,1.070159912109375
0.160438602,0,0,1.455674648284912,0,0,1.070159912109375
0.160583508,0,0,1.455674648284912,0,0,0.4586400091648102
0.160728358,0,0,1.455674648284912,0,0,0.4586400091648102
0.160873264,0,0,1.455674648284912,0,0,0.4586400091648102
0.161017911,0,0,1.455674648284912,0,0,0.3822000026702881
0.161163668,0,0,1.403002142906189,0,0,0.3822000026702881
0.161307685,0,0,1.403002142906189,0,0,0
0.16145248,0,0,1.403002142906189,0,0,0
0.161597405,0,0,1.403002142906189,0,0,0.7644000053405762
0.16174231,0,0,1.403002142906189,0,0,0.7644000053405762
0.161887179,0,0,1.403002142906189,0,0,0.3822000026702881
0.162031733,0,0,1.403002142906189,0,0,0.3822000026702881
0.162176639,0,0,1.5298948287963867,0,0,0.611519992351532
0.162321526,0,0,1.5298948287963867,0,0,0.611519992351532
0.162466154,0,0,1.5298948287963867,0,0,0.611519992351532
0.162611301,0,0,1.5298948287963867,0,0,-29.582279205322266
0.162769355,0,0,1.5298948287963867,0,0,-0.2293200045824051
0.162916038,0,0,1.5298948287963867,0,0,0
0.163062296,0,0,1.5298948287963867,0,0,0
0.163209054,0,0,1.3862427473068237,0,0,0.4586400091648102
0.163355608,0,0,1.3862427473068237,0,0,0.4586400091648102
0.16350194,0,0,1.3862427473068237,0,0,0.4586400091648102
0.163648512,0,0,1.3862427473068237,0,0,0.4586400091648102
0.163795029,0,0,1.3862427473068237,0,0,0.8408399820327759
0.163941583,0,0,1.3862427473068237,0,0,0.8408399820327759
0.1640911,0,0,1.3862427473068237,0,0,0.8408399820327759
0.164236024,0,0,1.4269442558288574,0,0,0.4586400091648102
0.164382504,0,0,1.4269442558288574,0,0,0.4586400091648102
0.164529095,0,0,1.4269442558288574,0,0,1.605239987373352
0.16467539,0,0,1.4269442558288574,0,0,1.605239987373352
0.164821666,0,0,1.4269442558288574,0,0,1.452359914779663
0.164968146,0,0,1.4269442558288574,0,0,1.452359914779663
0.165114255,0,0,1.4269442558288574,0,0,1.1466000080108643
0.165260698,0,0,1.3910311460494995,0,0,1.1466000080108643
0.165406882,0,0,1.3910311460494995,0,0,0.5350799560546875
0.165553251,0,0,1.3910311460494995,0,0,0.5350799560546875
0.165699582,0,0,1.3910311460494995,0,0,0.5350799560546875
0.16584584,0,0,1.3910311460494995,0,0,1.605239987373352
0.16599232,0,0,1.3910311460494995,0,0,1.605239987373352
0.166138856,0,0,1.3910311460494995,0,0,1.070159912109375
0.166285317,0,0,1.292868971824646,0,0,1.070159912109375
0.166431575,0,0,1.292868971824646,0,0,1.1466000080108643
0.166578036,0,0,1.292868971824646,0,0,1.1466000080108643
0.166724423,0,0,1.292868971824646,0,0,0.7644000053405762
0.166871829,0,0,1.292868971824646,0,0,0.7644000053405762
0.167017791,0,0,1.292868971824646,0,0,0.7644000053405762
0.167164344,0,0,1.41257905960083,0,0,0.9937199950218201
0.16731075,0,0,1.41257905960083,0,0,0.9937199950218201
0.167457341,0,0,1.41257905960083,0,0,0.611519992351532
0.16760371,0,0,1.41257905960083,0,0,0.611519992351532
0.167749968,0,0,1.41257905960083,0,0,0.9172800183296204
0.167896392,0,0,1.41257905960083,0,0,0.9172800183296204
0.168042909,0,0,1.41257905960083,0,0,0.305759996175766
0.168189241,0,0,1.41257905960083,0,0,0.305759996175766
0.168335684,0,0,1.41257905960083,0,0,0.305759996175766
0.168482275,0,0,1.41257905960083,0,0,0.305759996175766
0.168632255,0,0,1.41257905960083,0,0,0.305759996175766
0.16877692,0,0,1.41257905960083,0,0,0.5350799560546875
0.16892327,0,0,1.41257905960083,0,0,0.5350799560546875
0.169069768,0,0,1.41257905960083,0,0,1.070159912109375
0.169216156,0,0,1.4891934394836426,0,0,1.070159912109375
0.169368858,0,0,1.4891934394836426,0,0,1.9109998941421509
0.16950919,0,0,1.4891934394836426,0,0,1.9109998941421509
0.16965554,0,0,1.4891934394836426,0,0,1.5288000106811523
0.169801668,0,0,1.4891934394836426,0,0,1.5288000106811523
0.169948185,0,0,1.4891934394836426,0,0,0.9172800183296204
0.170094498,0,0,1.4891934394836426,0,0,0.9172800183296204
0.17024083,0,0,1.5418659448623657,0,0,0.9172800183296204
0.170387143,0,0,1.5418659448623657,0,0,0
0.170533512,0,0,1.5418659448623657,0,0,0
0.17067977,0,0,1.5418659448623657,0,0,0
0.170827249,0,0,1.5418659448623657,0,0,0
0.170973952,0,0,1.5418659448623657,0,0,0
0.171120154,0,0,1.5418659448623657,0,0,0
0.171266578,0,0,1.577778935432434,0,0,0.0764399990439415
0.171412817,0,0,1.577778935432434,0,0,0.0764399990439415
0.171559149,0,0,1.577778935432434,0,0,0.6879600286483765
0.171705684,0,0,1.577778935432434,0,0,0.6879600286483765
0.171852016,0,0,1.577778935432434,0,0,0.6879600286483765
0.171998589,0,0,1.577778935432434,0,0,0
0.172145124,0,0,1.577778935432434,0,0,0
0.172291289,0,0,1.5945383310317993,0,0,0.611519992351532
0.172438102,0,0,1.5945383310317993,0,0,0.611519992351532
0.172584582,0,0,1.5945383310317993,0,0,0.611519992351532
0.172730859,0,0,1.5945383310317993,0,0,0.611519992351532
0.17287719,0,0,1.5945383310317993,0,0,0.6879600286483765
0.173023633,0,0,1.5945383310317993,0,0,0.6879600286483765
0.173173428,0,0,1.5969325304031372,0,0,0.7644000053405762
0.173320056,0,0,1.5969325304031372,0,0,0.7644000053405762
0.173465128,0,0,1.5969325304031372,0,0,0.7644000053405762
0.173611775,0,0,1.5969325304031372,0,0,0
0.17375807,0,0,1.5969325304031372,0,0,0
0.173904309,0,0,1.5969325304031372,0,0,1.223039984703064
0.174050807,0,0,1.5969325304031372,0,0,1.223039984703064
0.174197065,0,0,1.460463047027588,0,0,1.070159912109375
0.174343286,0,0,1.460463047027588,0,0,1.070159912109375
0.174489691,0,0,1.460463047027588,0,0,1.070159912109375
0.174635819,0,0,1.460463047027588,0,0,1.070159912109375
0.174783781,0,0,1.460463047027588,0,0,1.070159912109375
0.174930279,0,0,1.460463047027588,0,0,1.2994799613952637
0.175076833,0,0,1.460463047027588,0,0,1.2994799613952637
0.175223498,0,0,1.3623007535934448,0,0,0.3822000026702881
0.175369645,0,0,1.3623007535934448,0,0,0.3822000026702881
0.175516088,0,0,1.3623007535934448,0,0,0.7644000053405762
0.175662531,0,0,1.3623007535934448,0,0,0.7644000053405762
0.175808973,0,0,1.3623007535934448,0,0,0.305759996175766
0.17595525,0,0,1.3623007535934448,0,0,0.305759996175766
0.176101563,0,0,1.3623007535934448,0,0,0.7644000053405762
0.176247932,0,0,1.4245500564575195,0,0,0.7644000053405762
0.176394375,0,0,1.4245500564575195,0,0,0.7644000053405762
0.176540966,0,0,1.4245500564575195,0,0,2.2167599201202393
0.176687186,0,0,1.4245500564575195,0,0,2.2167599201202393
0.176833796,0,0,1.4245500564575195,0,0,1.758120059967041
0.176980183,0,0,1.4245500564575195,0,0,1.758120059967041
0.177126459,0,0,1.4245500564575195,0,0,1.375920057296753
0.177272884,0,0,1.3646949529647827,0,0,1.375920057296753
0.177419215,0,0,1.3646949529647827,0,0,1.1466000080108643
0.177565788,0,0,1.3646949529647827,0,0,1.1466000080108643
0.177715786,0,0,1.3646949529647827,0,0,1.223039984703064
0.177860599,0,0,1.3646949529647827,0,0,1.223039984703064
0.178006876,0,0,1.3646949529647827,0,0,1.223039984703064
0.178153281,0,0,1.3646949529647827,0,0,0.4586400091648102
0.178300002,0,0,1.3527239561080933,0,0,0.4586400091648102
0.178446204,0,0,1.3527239561080933,0,0,0.9172800183296204
0.178592999,0,0,1.3527239561080933,0,0,0.9172800183296204
0.178748182,0,0,1.3527239561080933,0,0,0.5350799560546875
0.178886922,0,0,1.3527239561080933,0,0,0.5350799560546875
0.179033531,0,0,1.3527239561080933,0,0,0.6879600286483765
0.179180122,0,0,1.5083470344543457,0,0,0.6879600286483765
0.179326565,0,0,1.5083470344543457,0,0,0.611519992351532
0.179472767,0,0,1.5083470344543457,0,0,0.611519992351532
0.179619395,0,0,1.5083470344543457,0,0,0.611519992351532
0.179765597,0,0,1.5083470344543457,0,0,0.9172800183296204
0.179912151,0,0,1.5083470344543457,0,0,0.9172800183296204
0.180058687,0,0,1.5083470344543457,0,0,1.6816799640655518
0.180204574,0,0,1.534683346748352,0,0,1.6816799640655518
0.180351258,0,0,1.534683346748352,0,0,1.1466000080108643
0.180497867,0,0,1.534683346748352,0,0,1.1466000080108643
0.180644495,0,0,1.534683346748352,0,0,1.070159912109375
0.180790772,0,0,1.534683346748352,0,0,1.070159912109375
0.180936974,0,0,1.534683346748352,0,0,1.070159912109375
0.181083454,0,0,1.534683346748352,0,0,1.070159912109375
0.181230026,0,0,1.522712230682373,0,0,1.070159912109375
0.181376321,0,0,1.522712230682373,0,0,0
0.181522856,0,0,1.522712230682373,0,0,0
0.181669373,0,0,1.522712230682373,0,0,0.152879998087883
0.181815853,0,0,1.522712230682373,0,0,0.152879998087883
0.181962333,0,0,1.522712230682373,0,0,0.0764399990439415
0.18210885,0,0,1.522712230682373,0,0,0.0764399990439415
0.182258737,0,0,1.5203180313110352,0,0,0.5350799560546875
0.182403587,0,0,1.5203180313110352,0,0,0.5350799560546875
0.182550253,0,0,1.5203180313110352,0,0,0.5350799560546875
0.182696455,0,0,1.5203180313110352,0,0,0.305759996175766
0.182844046,0,0,1.5203180313110352,0,0,0.305759996175766
0.182990637,0,0,1.5203180313110352,0,0,2.14031982421875
0.183136968,0,0,1.5203180313110352,0,0,2.14031982421875
0.183283134,0,0,1.534683346748352,0,0,1.6816799640655518
0.183429743,0,0,1.534683346748352,0,0,1.6816799640655518
0.183576279,0,0,1.534683346748352,0,0,1.375920057296753
0.183722666,0,0,1.534683346748352,0,0,1.375920057296753
0.183868887,0,0,1.534683346748352,0,0,0.9172800183296204
0.18401544,0,0,1.534683346748352,0,0,0.9172800183296204
0.184162031,0,0,1.522712230682373,0,0,0.9172800183296204
0.18430853,0,0,1.522712230682373,0,0,1.223039984703064
0.184454732,0,0,1.522712230682373,0,0,1.223039984703064
0.18460123,0,0,1.522712230682373,0,0,0.3822000026702881
0.184747673,0,0,1.522712230682373,0,0,0.3822000026702881
0.184894338,0,0,1.522712230682373,0,0,0.4586400091648102
0.185040726,0,0,1.522712230682373,0,0,0.4586400091648102
0.185187113,0,0,1.4173674583435059,0,0,1.1466000080108643
0.185333556,0,0,1.4173674583435059,0,0,1.1466000080108643
0.185479851,0,0,1.4173674583435059,0,0,1.1466000080108643
0.185626386,0,0,1.4173674583435059,0,0,1.1466000080108643
0.185772922,0,0,1.4173674583435059,0,0,1.1466000080108643
0.185919253,0,0,1.4173674583435059,0,0,0.6879600286483765
0.186065511,0,0,1.4173674583435059,0,0,0.6879600286483765
0.186211954,0,0,1.3527239561080933,0,0,0.6879600286483765
0.186358212,0,0,1.3527239561080933,0,0,0.6879600286483765
0.186504488,0,0,1.3527239561080933,0,0,0.7644000053405762
0.186651171,0,0,1.3527239561080933,0,0,0.7644000053405762
0.186802022,0,0,1.3527239561080933,0,0,0.9937199950218201
0.18694702,0,0,1.3527239561080933,0,0,0.9937199950218201
0.187093741,0,0,1.3527239561080933,0,0,0.2293200045824051
0.187240313,0,0,1.3239935636520386,0,0,0.2293200045824051
0.187386367,0,0,1.3239935636520386,0,0,0.2293200045824051
0.18753294,0,0,1.3239935636520386,0,0,1.6816799640655518
0.187679345,0,0,1.3239935636520386,0,0,1.6816799640655518
0.187825844,0,0,1.3239935636520386,0,0,1.1466000080108643
0.187972027,0,0,1.3239935636520386,0,0,1.1466000080108643
0.188118193,0,0,1.3239935636520386,0,0,0.9937199950218201
0.188264691,0,0,1.3431471586227417,0,0,0.9937199950218201
0.18841106,0,0,1.3431471586227417,0,0,1.070159912109375
0.188557243,0,0,1.3431471586227417,0,0,1.070159912109375
0.188703686,0,0,1.3431471586227417,0,0,0.8408399820327759
0.188850036,0,0,1.3431471586227417,0,0,0.8408399820327759
0.188996461,0,0,1.3431471586227417,0,0,0.8408399820327759
0.18914307,0,0,1.3431471586227417,0,0,0
0.189289217,0,0,1.3623007535934448,0,0,0
0.189435771,0,0,1.3623007535934448,0,0,0.2293200045824051
0.189582325,0,0,1.3623007535934448,0,0,0.2293200045824051
0.189728657,0,0,1.3623007535934448,0,0,0.2293200045824051
0.189875007,0,0,1.3623007535934448,0,0,0.2293200045824051
0.190021265,0,0,1.3623007535934448,0,0,0.5350799560546875
0.19016767,0,0,1.4197616577148438,0,0,0.5350799560546875
0.190314076,0,0,1.4197616577148438,0,0,0.5350799560546875
0.190460501,0,0,1.4197616577148438,0,0,0.5350799560546875
0.190606851,0,0,1.4197616577148438,0,0,0.5350799560546875
0.190763923,0,0,1.4197616577148438,0,0,0
0.190909348,0,0,1.4197616577148438,0,0,0
0.191055605,0,0,1.4197616577148438,0,0,0.3822000026702881
0.191202085,0,0,1.5155296325683594,0,0,0.3822000026702881
0.19135225,0,0,1.5155296325683594,0,0,0.7644000053405762
0.191496915,0,0,1.5155296325683594,0,0,0.7644000053405762
0.191643395,0,0,1.5155296325683594,0,0,0.4586400091648102
0.191789708,0,0,1.5155296325683594,0,0,0.4586400091648102
0.191936299,0,0,1.5155296325683594,0,0,0.152879998087883
0.192082742,0,0,1.5155296325683594,0,0,0.152879998087883
0.192228815,0,0,1.5610195398330688,0,0,0.152879998087883
0.192375184,0,0,1.5610195398330688,0,0,1.758120059967041
0.19252233,0,0,1.5610195398330688,0,0,1.758120059967041
0.19266818,0,0,1.5610195398330688,0,0,1.605239987373352
0.192814475,0,0,1.5610195398330688,0,0,1.605239987373352
0.192960992,0,0,1.5610195398330688,0,0,0.9172800183296204
0.193107435,0,0,1.5610195398330688,0,0,0.9172800183296204
0.193253989,0,0,1.5897499322891235,0,0,0.4586400091648102
0.193400413,0,0,1.5897499322891235,0,0,0.4586400091648102
0.193546727,0,0,1.5897499322891235,0,0,0.4586400091648102
0.193692818,0,0,1.5897499322891235,0,0,0.9937199950218201
0.193839223,0,0,1.5897499322891235,0,0,0.9937199950218201
0.193985703,0,0,1.5897499322891235,0,0,0
0.194132054,0,0,1.5897499322891235,0,0,0
0.194278256,0,0,1.5322890281677246,0,0,0.152879998087883
0.194431513,0,0,1.5322890281677246,0,0,0.152879998087883
0.194571345,0,0,1.5322890281677246,0,0,1.605239987373352
0.194717325,0,0,1.5322890281677246,0,0,1.605239987373352
0.194866286,0,0,1.5322890281677246,0,0,1.223039984703064
0.195011729,0,0,1.5322890281677246,0,0,1.223039984703064
0.195158191,0,0,1.5322890281677246,0,0,1.223039984703064
0.195304615,0,0,1.4700398445129395,0,0,1.9109998941421509
0.195450965,0,0,1.4700398445129395,0,0,1.9109998941421509
0.195597519,0,0,1.4700398445129395,0,0,1.452359914779663
0.195743832,0,0,1.4700398445129395,0,0,1.452359914779663
0.195893831,0,0,1.4700398445129395,0,0,1.375920057296753
0.196038663,0,0,1.4700398445129395,0,0,1.375920057296753
0.196185105,0,0,1.3527239561080933,0,0,1.1466000080108643
0.196331548,0,0,1.3527239561080933,0,0,1.1466000080108643
0.196477862,0,0,1.3527239561080933,0,0,1.223039984703064
0.196624508,0,0,1.3527239561080933,0,0,1.223039984703064
0.196770507,0,0,1.3527239561080933,0,0,1.223039984703064
0.196917135,0,0,1.3527239561080933,0,0,0
0.19706354,0,0,1.3527239561080933,0,0,0
0.197210187,0,0,1.381454348564148,0,0,0.305759996175766
0.197356482,0,0,1.381454348564148,0,0,0.305759996175766
0.19750298,0,0,1.381454348564148,0,0,0.3822000026702881
0.197649367,0,0,1.381454348564148,0,0,0.3822000026702881
0.197795829,0,0,1.381454348564148,0,0,0.8408399820327759
0.197942327,0,0,1.381454348564148,0,0,0.8408399820327759
0.19808877,0,0,1.381454348564148,0,0,0.305759996175766
0.198235343,0,0,1.436521053314209,0,0,0.305759996175766
0.1983816,0,0,1.436521053314209,0,0,0.305759996175766
0.198528043,0,0,1.436521053314209,0,0,0.0764399990439415
0.198674505,0,0,1.436521053314209,0,0,0.0764399990439415
0.198821725,0,0,1.436521053314209,0,0,0.3822000026702881
0.19896789,0,0,1.436521053314209,0,0,0.3822000026702881
0.199114426,0,0,1.436521053314209,0,0,0.152879998087883
0.19926085,0,0,1.3646949529647827,0,0,0.152879998087883
0.199407108,0,0,1.3646949529647827,0,0,0.7644000053405762
0.199553514,0,0,1.3646949529647827,0,0,0.7644000053405762
0.199700031,0,0,1.3646949529647827,0,0,0.7644000053405762
0.199846455,0,0,1.3646949529647827,0,0,0.6879600286483765
0.199992953,0,0,1.3646949529647827,0,0,0.6879600286483765
0.200139359,0,0,1.3646949529647827,0,0,1.223039984703064
0.200285969,0,0,1.335964560508728,0,0,1.223039984703064
0.200436208,0,0,1.335964560508728,0,0,1.1466000080108643
0.20058104,0,0,1.335964560508728,0,0,1.1466000080108643
0.20072739,0,0,1.335964560508728,0,0,0.4586400091648102
0.200873759,0,0,1.335964560508728,0,0,0.4586400091648102
0.201020035,0,0,1.335964560508728,0,0,0.9172800183296204
0.201166626,0,0,1.335964560508728,0,0,0.9172800183296204
0.201313198,0,0,1.3718775510787964,0,0,0.9172800183296204
0.201459623,0,0,1.3718775510787964,0,0,1.070159912109375
0.201606121,0,0,1.3718775510787964,0,0,1.070159912109375
0.201752434,0,0,1.3718775510787964,0,0,0.305759996175766
0.201898933,0,0,1.3718775510787964,0,0,0.305759996175766
0.202045394,0,0,1.3718775510787964,0,0,0.6879600286483765
0.202191763,0,0,1.4389152526855469,0,0,0.6879600286483765
0.202338039,0,0,1.4389152526855469,0,0,0.9937199950218201
0.20248463,0,0,1.4389152526855469,0,0,0.9937199950218201
0.202631054,0,0,1.4389152526855469,0,0,0.8408399820327759
0.202779645,0,0,1.4389152526855469,0,0,0.8408399820327759
0.20292544,0,0,1.4389152526855469,0,0,0.8408399820327759
0.203071661,0,0,1.4389152526855469,0,0,0.8408399820327759
0.203218233,0,0,1.501164436340332,0,0,0.8408399820327759
0.203364787,0,0,1.501164436340332,0,0,1.1466000080108643
0.203511175,0,0,1.501164436340332,0,0,1.1466000080108643
0.203657599,0,0,1.501164436340332,0,0,1.2994799613952637
0.203804097,0,0,1.501164436340332,0,0,1.2994799613952637
0.203950485,0,0,1.501164436340332,0,0,1.070159912109375
0.20409702,0,0,1.501164436340332,0,0,1.070159912109375
0.204243537,0,0,1.5059528350830078,0,0,1.2994799613952637
0.204389906,0,0,1.5059528350830078,0,0,1.2994799613952637
0.204536719,0,0,1.5059528350830078,0,0,1.2994799613952637
0.20468294,0,0,1.5059528350830078,0,0,0
0.204829568,0,0,1.5059528350830078,0,0,0
0.204979585,0,0,1.5059528350830078,0,0,0
0.205124194,0,0,1.5059528350830078,0,0,0
0.205270637,0,0,1.4891934394836426,0,0,0.305759996175766
0.205417006,0,0,1.4891934394836426,0,0,0.305759996175766
0.205563486,0,0,1.4891934394836426,0,0,0.7644000053405762
0.205709855,0,0,1.4891934394836426,0,0,0.7644000053405762
0.205856316,0,0,1.4891934394836426,0,0,0.7644000053405762
0.206003,0,0,1.4891934394836426,0,0,0.7644000053405762
0.20614922,0,0,1.4891934394836426,0,0,0.7644000053405762
0.206295756,0,0,1.501164436340332,0,0,2.5989599227905273
0.206442217,0,0,1.501164436340332,0,0,2.5989599227905273
0.206588919,0,0,1.501164436340332,0,0,1.8345600366592407
0.206748732,0,0,1.501164436340332,0,0,1.8345600366592407
0.206881916,0,0,1.501164436340332,0,0,0.0764399990439415
0.207028896,0,0,1.501164436340332,0,0,0.0764399990439415
0.20717482,0,0,1.501164436340332,0,0,1.070159912109375
0.207321096,0,0,1.4389152526855469,0,0,1.070159912109375
0.207467373,0,0,1.4389152526855469,0,0,0.9937199950218201
0.207614038,0,0,1.4389152526855469,0,0,0.9937199950218201
0.207760499,0,0,1.4389152526855469,0,0,0.9937199950218201
0.207906868,0,0,1.4389152526855469,0,0,-0.2293200045824051
0.208053366,0,0,1.4389152526855469,0,0,-29.582279205322266
0.208199568,0,0,1.3694833517074585,0,0,0.5350799560546875
0.208346104,0,0,1.3694833517074585,0,0,0.5350799560546875
0.208492436,0,0,1.3694833517074585,0,0,1.1466000080108643
0.208638786,0,0,1.3694833517074585,0,0,1.1466000080108643
0.208785173,0,0,1.3694833517074585,0,0,0.8408399820327759
0.208931764,0,0,1.3694833517074585,0,0,0.8408399820327759
0.209078133,0,0,1.3694833517074585,0,0,0.8408399820327759
0.209224632,0,0,1.3455413579940796,0,0,1.070159912109375
0.209371,0,0,1.3455413579940796,0,0,1.070159912109375
0.209521128,0,0,1.3455413579940796,0,0,0.8408399820327759
0.20966583,0,0,1.3455413579940796,0,0,0.8408399820327759
0.209812366,0,0,1.3455413579940796,0,0,0.3822000026702881
0.209958735,0,0,1.3455413579940796,0,0,0.3822000026702881
0.210105196,0,0,1.3455413579940796,0,0,0.3822000026702881
0.210251676,0,0,1.2880805730819702,0,0,0.3822000026702881
0.210398415,0,0,1.2880805730819702,0,0,0.6879600286483765
0.210544821,0,0,1.2880805730819702,0,0,0.6879600286483765
0.210690968,0,0,1.2880805730819702,0,0,0.6879600286483765
0.210838892,0,0,1.2880805730819702,0,0,0.6879600286483765
0.210985427,0,0,1.2880805730819702,0,0,0.6879600286483765
0.211131815,0,0,1.2880805730819702,0,0,1.1466000080108643
0.211278109,0,0,1.3263877630233765,0,0,1.1466000080108643
0.211424534,0,0,1.3263877630233765,0,0,1.2994799613952637
0.211570884,0,0,1.3263877630233765,0,0,1.2994799613952637
0.211717253,0,0,1.3263877630233765,0,0,0.8408399820327759
0.211863918,0,0,1.3263877630233765,0,0,0.8408399820327759
0.212010101,0,0,1.3263877630233765,0,0,0.9172800183296204
0.212156563,0,0,1.3263877630233765,0,0,0.9172800183296204
0.212303154,0,0,1.4269442558288574,0,0,0.9172800183296204
0.212449597,0,0,1.4269442558288574,0,0,0.8408399820327759
0.212596058,0,0,1.4269442558288574,0,0,0.8408399820327759
0.21274239,0,0,1.4269442558288574,0,0,0.2293200045824051
0.212888851,0,0,1.4269442558288574,0,0,0.2293200045824051
0.21303522,0,0,1.4269442558288574,0,0,0.2293200045824051
0.213181904,0,0,1.4269442558288574,0,0,0.2293200045824051
0.213328161,0,0,1.5155296325683594,0,0,0.4586400091648102
0.213474789,0,0,1.5155296325683594,0,0,0.4586400091648102
0.213621269,0,0,1.5155296325683594,0,0,0.5350799560546875
0.213767471,0,0,1.5155296325683594,0,0,0.5350799560546875
0.213913988,0,0,1.5155296325683594,0,0,0.5350799560546875
0.21407169,0,0,1.5155296325683594,0,0,1.6816799640655518
0.214209133,0,0,1.556231141090393,0,0,1.6816799640655518
0.214355224,0,0,1.556231141090393,0,0,1.070159912109375
0.214501482,0,0,1.556231141090393,0,0,1.070159912109375
0.214648221,0,0,1.556231141090393,0,0,1.375920057296753
0.214795701,0,0,1.556231141090393,0,0,1.375920057296753
0.214942329,0,0,1.556231141090393,0,0,1.070159912109375
0.215088902,0,0,1.556231141090393,0,0,1.070159912109375
0.215235252,0,0,1.6065093278884888,0,0,0.6879600286483765
0.215381806,0,0,1.6065093278884888,0,0,0.6879600286483765
0.215528267,0,0,1.6065093278884888,0,0,0.6879600286483765
0.215674636,0,0,1.6065093278884888,0,0,1.605239987373352
0.215821134,0,0,1.6065093278884888,0,0,1.605239987373352
0.215967744,0,0,1.6065093278884888,0,0,0.5350799560546875
0.216114335,0,0,1.6065093278884888,0,0,0.5350799560546875
0.216260685,0,0,1.556231141090393,0,0,0.9172800183296204
0.216407221,0,0,1.556231141090393,0,0,0.9172800183296204
0.216553738,0,0,1.556231141090393,0,0,0.6879600286483765
0.216700106,0,0,1.556231141090393,0,0,0.6879600286483765
0.216846142,0,0,1.556231141090393,0,0,0.6879600286483765
0.216992622,0,0,1.556231141090393,0,0,0.5350799560546875
0.217139009,0,0,1.556231141090393,0,0,0.5350799560546875
0.21728547,0,0,1.4963760375976563,0,0,1.605239987373352
0.217431987,0,0,1.4963760375976563,0,0,1.605239987373352
0.217578523,0,0,1.4963760375976563,0,0,1.223039984703064
0.217725003,0,0,1.4963760375976563,0,0,1.223039984703064
0.217871409,0,0,1.4963760375976563,0,0,1.1466000080108643
0.218017907,0,0,1.4963760375976563,0,0,1.1466000080108643
0.218164554,0,0,1.4963760375976563,0,0,1.070159912109375
0.218310867,0,0,1.4700398445129395,0,0,1.070159912109375
0.21845705,0,0,1.4700398445129395,0,0,1.070159912109375
0.218607308,0,0,1.4700398445129395,0,0,0.5350799560546875
0.218763917,0,0,1.4700398445129395,0,0,0.5350799560546875
0.218910934,0,0,1.4700398445129395,0,0,0.3822000026702881
0.219057303,0,0,1.4700398445129395,0,0,0.3822000026702881
0.21920395,0,0,1.3742717504501343,0,0,0.6879600286483765
0.219356244,0,0,1.3742717504501343,0,0,0.6879600286483765
0.21949665,0,0,1.3742717504501343,0,0,1.1466000080108643
0.219642982,0,0,1.3742717504501343,0,0,1.1466000080108643
0.219789518,0,0,1.3742717504501343,0,0,0.7644000053405762
0.219935627,0,0,1.3742717504501343,0,0,0.7644000053405762
0.2200822,0,0,1.3742717504501343,0,0,0.7644000053405762
0.220228883,0,0,1.4101848602294922,0,0,0.6879600286483765
0.220375067,0,0,1.4101848602294922,0,0,0.6879600286483765
0.220526306,0,0,1.4101848602294922,0,0,1.9109998941421509
0.220680452,0,0,1.4101848602294922,0,0,1.9109998941421509
0.22083534,0,0,1.4101848602294922,0,0,1.6816799640655518
0.220986931,0,0,1.4101848602294922,0,0,1.6816799640655518
0.221135836,0,0,1.4101848602294922,0,0,0
0.221283001,0,0,1.3335703611373901,0,0,0
0.221429074,0,0,1.3335703611373901,0,0,0.4586400091648102
0.221575646,0,0,1.3335703611373901,0,0,0.4586400091648102
0.221721849,0,0,1.3335703611373901,0,0,0.8408399820327759
0.221868421,0,0,1.3335703611373901,0,0,0.8408399820327759
0.222014623,0,0,1.3335703611373901,0,0,0.8408399820327759
0.222161177,0,0,1.3335703611373901,0,0,1.223039984703064
0.222307527,0,0,1.3886369466781616,0,0,1.223039984703064
0.222453933,0,0,1.3886369466781616,0,0,1.223039984703064
0.222600413,0,0,1.3886369466781616,0,0,1.223039984703064
0.222747597,0,0,1.3886369466781616,0,0,1.6816799640655518
0.222910706,0,0,1.3886369466781616,0,0,1.6816799640655518
0.223057186,0,0,1.3886369466781616,0,0,0.152879998087883
0.223210536,0,0,1.4413094520568848,0,0,0.152879998087883
0.223354609,0,0,1.4413094520568848,0,0,0.3822000026702881
0.223509922,0,0,1.4413094520568848,0,0,0.3822000026702881
0.223647643,0,0,1.4413094520568848,0,0,0.9937199950218201
0.223793623,0,0,1.4413094520568848,0,0,0.9937199950218201
0.223939954,0,0,1.4413094520568848,0,0,0.9937199950218201
0.224086434,0,0,1.4413094520568848,0,0,0.5350799560546875
0.224232821,0,0,1.4963760375976563,0,0,0.5350799560546875
0.224378987,0,0,1.4963760375976563,0,0,0.0764399990439415
0.224525503,0,0,1.4963760375976563,0,0,0.0764399990439415
0.224671817,0,0,1.4963760375976563,0,0,0
0.224817963,0,0,1.4963760375976563,0,0,0
0.224964721,0,0,1.4963760375976563,0,0,0.5350799560546875
0.225110923,0,0,1.4963760375976563,0,0,0.5350799560546875
0.225257107,0,0,1.482010841369629,0,0,0.5350799560546875
0.22540355,0,0,1.482010841369629,0,0,0.5350799560546875
0.225550067,0,0,1.482010841369629,0,0,0.5350799560546875
0.225696417,0,0,1.482010841369629,0,0,0.2293200045824051
0.225842637,0,0,1.482010841369629,0,0,0.2293200045824051
0.225989006,0,0,1.482010841369629,0,0,0.5350799560546875
0.226135282,0,0,1.482010841369629,0,0,0.5350799560546875
0.22628167,0,0,1.4508862495422363,0,0,0.2293200045824051
0.226427798,0,0,1.4508862495422363,0,0,0.2293200045824051
0.226574278,0,0,1.4508862495422363,0,0,0.7644000053405762
0.226720795,0,0,1.4508862495422363,0,0,0.7644000053405762
0.226867552,0,0,1.4508862495422363,0,0,0.7644000053405762
0.227013569,0,0,1.4508862495422363,0,0,1.223039984703064
0.227160123,0,0,1.4508862495422363,0,0,1.223039984703064
0.22730664,0,0,1.6041151285171509,0,0,1.9109998941421509
0.22745275,0,0,1.6041151285171509,0,0,1.9109998941421509
0.227599359,0,0,1.6041151285171509,0,0,1.223039984703064
0.227749302,0,0,1.6041151285171509,0,0,1.223039984703064
0.227894226,0,0,1.6041151285171509,0,0,0.9937199950218201
0.228040484,0,0,1.6041151285171509,0,0,0.9937199950218201
0.228186816,0,0,1.6041151285171509,0,0,0.9172800183296204
0.228333259,0,0,1.6184803247451782,0,0,0.9172800183296204
0.228480016,0,0,1.6184803247451782,0,0,0.9172800183296204
0.228626107,0,0,1.6184803247451782,0,0,0.4586400091648102
0.228772513,0,0,1.6184803247451782,0,0,0.4586400091648102
0.228918882,0,0,1.6184803247451782,0,0,0
0.229065343,0,0,1.6184803247451782,0,0,0
0.229211657,0,0,1.434126853942871,0,0,0.305759996175766
0.229358248,0,0,1.434126853942871,0,0,0.305759996175766
0.229504616,0,0,1.434126853942871,0,0,0.152879998087883
0.229651115,0,0,1.434126853942871,0,0,0.152879998087883
0.22979741,0,0,1.434126853942871,0,0,0.5350799560546875
0.229944112,0,0,1.434126853942871,0,0,0.5350799560546875
0.230090332,0,0,1.434126853942871,0,0,0.5350799560546875
0.230236905,0,0,1.3072341680526733,0,0,1.452359914779663
0.2303832,0,0,1.3072341680526733,0,0,1.452359914779663
0.230529698,0,0,1.3072341680526733,0,0,0.305759996175766
0.230676048,0,0,1.3072341680526733,0,0,0.305759996175766
0.230823676,0,0,1.3072341680526733,0,0,0.4586400091648102
0.230970193,0,0,1.3072341680526733,0,0,0.4586400091648102
0.231116655,0,0,1.3072341680526733,0,0,0.9172800183296204
0.231263042,0,0,1.3982137441635132,0,0,0.9172800183296204
0.231409503,0,0,1.3982137441635132,0,0,0.9172800183296204
0.23155602,0,0,1.3982137441635132,0,0,0.9172800183296204
0.2317025,0,0,1.3982137441635132,0,0,0.9172800183296204
0.231849054,0,0,1.3982137441635132,0,0,0.2293200045824051
0.231995516,0,0,1.3982137441635132,0,0,0.2293200045824051
0.232141995,0,0,1.3982137441635132,0,0,1.2994799613952637
0.232292049,0,0,1.2617442607879639,0,0,1.2994799613952637
0.232436733,0,0,1.2617442607879639,0,0,0.611519992351532
0.232583194,0,0,1.2617442607879639,0,0,0.611519992351532
0.2327296,0,0,1.2617442607879639,0,0,0.5350799560546875
0.232881876,0,0,1.2617442607879639,0,0,0.5350799560546875
0.233022616,0,0,1.2617442607879639,0,0,0.5350799560546875
0.233168707,0,0,1.2617442607879639,0,0,1.375920057296753
0.233315186,0,0,1.2832920551300049,0,0,1.375920057296753
0.23346137,0,0,1.2832920551300049,0,0,0
0.233608165,0,0,1.2832920551300049,0,0,0
0.233754552,0,0,1.2832920551300049,0,0,0.305759996175766
0.233901106,0,0,1.2832920551300049,0,0,0.305759996175766
0.23404753,0,0,1.2832920551300049,0,0,0.6879600286483765
0.234193862,0,0,1.2832920551300049,0,0,0.6879600286483765
0.234340379,0,0,1.3958195447921753,0,0,0.9172800183296204
0.234486711,0,0,1.3958195447921753,0,0,0.9172800183296204
0.234632987,0,0,1.3958195447921753,0,0,0.9172800183296204
0.234780467,0,0,1.3958195447921753,0,0,0.7644000053405762
0.234927502,0,0,1.3958195447921753,0,0,0.7644000053405762
0.235073779,0,0,1.3958195447921753,0,0,1.452359914779663
0.235220092,0,0,1.4963760375976563,0,0,1.452359914779663
0.235366812,0,0,1.4963760375976563,0,0,1.1466000080108643
0.235513329,0,0,1.4963760375976563,0,0,1.1466000080108643
0.235659698,0,0,1.4963760375976563,0,0,1.1466000080108643
0.235806123,0,0,1.4963760375976563,0,0,1.1466000080108643
0.235952584,0,0,1.4963760375976563,0,0,0.9172800183296204
0.236098897,0,0,1.4963760375976563,0,0,0.9172800183296204
0.236245303,0,0,1.5275006294250488,0,0,0.9172800183296204
0.236391672,0,0,1.5275006294250488,0,0,1.223039984703064
0.236538022,0,0,1.5275006294250488,0,0,1.223039984703064
0.236684409,0,0,1.5275006294250488,0,0,0.611519992351532
0.236834241,0,0,1.5275006294250488,0,0,0.611519992351532
0.236979351,0,0,1.5275006294250488,0,0,1.375920057296753
0.237125571,0,0,1.5275006294250488,0,0,1.375920057296753
0.23727207,0,0,1.525106430053711,0,0,0.5350799560546875
0.237418346,0,0,1.525106430053711,0,0,0.5350799560546875
0.237564974,0,0,1.525106430053711,0,0,0.5350799560546875
0.237711602,0,0,1.525106430053711,0,0,0.5350799560546875
0.237856675,0,0,1.525106430053711,0,0,0.5350799560546875
0.238002951,0,0,1.525106430053711,0,0,2.2167599201202393
0.238149449,0,0,1.525106430053711,0,0,2.2167599201202393
0.238295411,0,0,1.5538369417190552,0,0,1.5288000106811523
0.238441724,0,0,1.5538369417190552,0,0,1.5288000106811523
0.238588259,0,0,1.5538369417190552,0,0,1.452359914779663
0.238734665,0,0,1.5538369417190552,0,0,1.452359914779663
0.238882682,0,0,1.5538369417190552,0,0,1.070159912109375
0.239028921,0,0,1.5538369417190552,0,0,1.070159912109375
0.239175234,0,0,1.5538369417190552,0,0,0.9172800183296204
0.239321603,0,0,1.5610195398330688,0,0,0.9172800183296204
0.239468213,0,0,1.5610195398330688,0,0,0.9172800183296204
0.239614933,0,0,1.5610195398330688,0,0,0
0.239761135,0,0,1.5610195398330688,0,0,0
0.239907615,0,0,1.5610195398330688,0,0,0.5350799560546875
0.240054132,0,0,1.5610195398330688,0,0,0.5350799560546875
0.240200594,0,0,1.5610195398330688,0,0,0.305759996175766
0.24034687,0,0,1.3958195447921753,0,0,0.305759996175766
0.240493424,0,0,1.3958195447921753,0,0,0.8408399820327759
0.240639756,0,0,1.3958195447921753,0,0,0.8408399820327759
0.240785939,0,0,1.3958195447921753,0,0,0.8408399820327759
0.240932289,0,0,1.3958195447921753,0,0,1.1466000080108643
0.241079066,0,0,1.3958195447921753,0,0,1.1466000080108643
0.241225453,0,0,1.316810965538025,0,0,0.305759996175766
0.241375544,0,0,1.316810965538025,0,0,0.305759996175766
0.24152032,0,0,1.316810965538025,0,0,1.9109998941421509
0.241667041,0,0,1.316810965538025,0,0,1.9109998941421509
0.241813539,0,0,1.316810965538025,0,0,0.9172800183296204
0.241959723,0,0,1.316810965538025,0,0,0.9172800183296204
0.242106092,0,0,1.316810965538025,0,0,0.7644000053405762
0.242258812,0,0,1.3862427473068237,0,0,0.7644000053405762
0.242398903,0,0,1.3862427473068237,0,0,0.7644000053405762
0.242545198,0,0,1.3862427473068237,0,0,0.3822000026702881
0.242691641,0,0,1.3862427473068237,0,0,0.3822000026702881
0.242838806,0,0,1.3862427473068237,0,0,1.1466000080108643
0.242985601,0,0,1.3862427473068237,0,0,1.1466000080108643
0.243131747,0,0,1.3862427473068237,0,0,1.452359914779663
0.243278449,0,0,1.3000515699386597,0,0,1.452359914779663
0.243424689,0,0,1.3000515699386597,0,0,1.070159912109375
0.243570965,0,0,1.3000515699386597,0,0,1.070159912109375
0.243717259,0,0,1.3000515699386597,0,0,1.1466000080108643
0.243863573,0,0,1.3000515699386597,0,0,1.1466000080108643
0.244010367,0,0,1.3000515699386597,0,0,1.1466000080108643
0.244156829,0,0,1.3000515699386597,0,0,0.7644000053405762
0.244303383,0,0,1.4389152526855469,0,0,0.7644000053405762
0.244463214,0,0,1.4389152526855469,0,0,0.8408399820327759
0.244596139,0,0,1.4389152526855469,0,0,0.8408399820327759
0.244742119,0,0,1.4389152526855469,0,0,0
0.244888265,0,0,1.4389152526855469,0,0,0
0.245034986,0,0,1.4389152526855469,0,0,0.3822000026702881
0.245181058,0,0,1.4389152526855469,0,0,0.3822000026702881
0.245327353,0,0,1.4269442558288574,0,0,0.6879600286483765
0.245473852,0,0,1.4269442558288574,0,0,0.6879600286483765
0.245620128,0,0,1.4269442558288574,0,0,0.6879600286483765
0.245766441,0,0,1.4269442558288574,0,0,1.452359914779663
0.245916643,0,0,1.4269442558288574,0,0,1.452359914779663
0.246061086,0,0,1.4269442558288574,0,0,1.2994799613952637
0.246207659,0,0,1.4269442558288574,0,0,1.2994799613952637
0.246354027,0,0,1.4700398445129395,0,0,1.2994799613952637
0.246500563,0,0,1.4700398445129395,0,0,1.2994799613952637
0.246646913,0,0,1.4700398445129395,0,0,0.9937199950218201
0.246794374,0,0,1.4700398445129395,0,0,0.9937199950218201
0.246941002,0,0,1.4700398445129395,0,0,0.9937199950218201
0.247087519,0,0,1.4700398445129395,0,0,0.9937199950218201
0.24723387,0,0,1.5298948287963867,0,0,0.9937199950218201
0.247380183,0,0,1.5298948287963867,0,0,-0.4586400091648102
0.247526848,0,0,1.5298948287963867,0,0,-0.4586400091648102
0.247673124,0,0,1.5298948287963867,0,0,0.305759996175766
0.247819678,0,0,1.5298948287963867,0,0,0.305759996175766
0.24796601,0,0,1.5298948287963867,0,0,0.305759996175766
0.248112249,0,0,1.5298948287963867,0,0,0.305759996175766
0.248258618,0,0,1.5658079385757446,0,0,0.8408399820327759
0.248404764,0,0,1.5658079385757446,0,0,0.8408399820327759
0.24855143,0,0,1.5658079385757446,0,0,0.8408399820327759
0.248697502,0,0,1.5658079385757446,0,0,0.6879600286483765
0.248844149,0,0,1.5658079385757446,0,0,0.6879600286483765
0.248990777,0,0,1.5658079385757446,0,0,0.2293200045824051
0.249136923,0,0,1.5658079385757446,0,0,0.2293200045824051
0.249283366,0,0,1.5753847360610962,0,0,0.611519992351532
0.249429753,0,0,1.5753847360610962,0,0,0.611519992351532
0.249576085,0,0,1.5753847360610962,0,0,0.7644000053405762
0.249722343,0,0,1.5753847360610962,0,0,0.7644000053405762
0.24986886,0,0,1.5753847360610962,0,0,0.7644000053405762
0.250015117,0,0,1.5753847360610962,0,0,0.7644000053405762
0.250161449,0,0,1.5753847360610962,0,0,0.7644000053405762
0.250307837,0,0,1.5610195398330688,0,0,1.9109998941421509
0.250457705,0,0,1.5610195398330688,0,0,1.9109998941421509
0.250602519,0,0,1.5610195398330688,0,0,1.1466000080108643
0.250760461,0,0,1.5610195398330688,0,0,1.1466000080108643
0.250907404,0,0,1.5610195398330688,0,0,1.2994799613952637
0.25105368,0,0,1.5610195398330688,0,0,1.2994799613952637
0.251200086,0,0,1.5610195398330688,0,0,1.223039984703064
0.251346251,0,0,1.4891934394836426,0,0,1.223039984703064
0.251492768,0,0,1.4891934394836426,0,0,0.9937199950218201
0.251645785,0,0,1.4891934394836426,0,0,0.9937199950218201
0.251785691,0,0,1.4891934394836426,0,0,0.9937199950218201
0.251932171,0,0,1.4891934394836426,0,0,0.9172800183296204
0.252078817,0,0,1.4891934394836426,0,0,0.9172800183296204
0.252224927,0,0,1.335964560508728,0,0,0.305759996175766
0.252371277,0,0,1.335964560508728,0,0,0.305759996175766
0.252517572,0,0,1.335964560508728,0,0,0.7644000053405762
0.252664293,0,0,1.335964560508728,0,0,0.7644000053405762
0.252810606,0,0,1.335964560508728,0,0,0.4586400091648102
0.252957215,0,0,1.335964560508728,0,0,0.4586400091648102
0.253103455,0,0,1.335964560508728,0,0,0.5350799560546875
0.253249768,0,0,1.3766659498214722,0,0,0.5350799560546875
0.253396025,0,0,1.3766659498214722,0,0,0.5350799560546875
0.253542431,0,0,1.3766659498214722,0,0,1.452359914779663
0.253689022,0,0,1.3766659498214722,0,0,1.452359914779663
0.253835632,0,0,1.3766659498214722,0,0,1.375920057296753
0.253982093,0,0,1.3766659498214722,0,0,1.375920057296753
0.25412811,0,0,1.3766659498214722,0,0,0.9172800183296204
0.254274664,0,0,1.3239935636520386,0,0,0.9172800183296204
0.254420959,0,0,1.3239935636520386,0,0,0.6879600286483765
0.254567457,0,0,1.3239935636520386,0,0,0.6879600286483765
0.254713863,0,0,1.3239935636520386,0,0,0.5350799560546875
0.254860936,0,0,1.3239935636520386,0,0,0.5350799560546875
0.255011434,0,0,1.3239935636520386,0,0,0.5350799560546875
0.255156321,0,0,1.3239935636520386,0,0,0
0.255302838,0,0,1.4389152526855469,0,0,0
0.255449318,0,0,1.4389152526855469,0,0,-0.305759996175766
0.255595854,0,0,1.4389152526855469,0,0,-0.305759996175766
0.255742259,0,0,1.4389152526855469,0,0,0.305759996175766
0.255888721,0,0,1.4389152526855469,0,0,0.305759996175766
0.256035034,0,0,1.4389152526855469,0,0,0.152879998087883
0.256181366,0,0,1.4389152526855469,0,0,0.152879998087883
0.256327642,0,0,1.436521053314209,0,0,0.305759996175766
0.256473992,0,0,1.436521053314209,0,0,0.305759996175766
0.256620342,0,0,1.436521053314209,0,0,0.305759996175766
0.256766841,0,0,1.436521053314209,0,0,0.305759996175766
0.256913302,0,0,1.436521053314209,0,0,0.305759996175766
0.25705956,0,0,1.436521053314209,0,0,0.2293200045824051
0.257205984,0,0,1.436521053314209,0,0,0.2293200045824051
0.257352335,0,0,1.53707754611969,0,0,0.3822000026702881
0.257498833,0,0,1.53707754611969,0,0,0.3822000026702881
0.257645294,0,0,1.53707754611969,0,0,0.5350799560546875
0.257791552,0,0,1.53707754611969,0,0,0.5350799560546875
0.257938106,0,0,1.53707754611969,0,0,0.5350799560546875
0.258084308,0,0,1.53707754611969,0,0,0.6879600286483765
0.258230807,0,0,1.5825673341751099,0,0,0.6879600286483765
0.258377287,0,0,1.5825673341751099,0,0,2.06387996673584
0.258523618,0,0,1.5825673341751099,0,0,2.06387996673584
0.258670061,0,0,1.5825673341751099,0,0,1.452359914779663
0.258817671,0,0,1.5825673341751099,0,0,1.452359914779663
0.258964188,0,0,1.5825673341751099,0,0,0.611519992351532
0.259110834,0,0,1.5825673341751099,0,0,0.611519992351532
0.259257258,0,0,1.6112977266311646,0,0,0.7644000053405762
0.259403442,0,0,1.6112977266311646,0,0,0.7644000053405762
0.259553533,0,0,1.6112977266311646,0,0,0.7644000053405762
0.259698457,0,0,1.6112977266311646,0,0,1.070159912109375
0.259845252,0,0,1.6112977266311646,0,0,1.070159912109375
0.259991269,0,0,1.6112977266311646,0,0,0.2293200045824051
0.260137749,0,0,1.6112977266311646,0,0,0.2293200045824051
0.260284229,0,0,1.5873557329177856,0,0,0.611519992351532
0.260430616,0,0,1.5873557329177856,0,0,0.611519992351532
0.260577078,0,0,1.5873557329177856,0,0,0.5350799560546875
0.260723243,0,0,1.5873557329177856,0,0,0.5350799560546875
0.260869686,0,0,1.5873557329177856,0,0,0.9172800183296204
0.261023202,0,0,1.5873557329177856,0,0,0.9172800183296204
0.261162682,0,0,1.5873557329177856,0,0,0.9172800183296204
0.261308792,0,0,1.5849615335464478,0,0,2.6754000186920166
0.261455235,0,0,1.5849615335464478,0,0,2.6754000186920166
0.261601678,0,0,1.5849615335464478,0,0,1.452359914779663
0.261748158,0,0,1.5849615335464478,0,0,1.452359914779663
0.261894304,0,0,1.5849615335464478,0,0,1.5288000106811523
0.26204071,0,0,1.5849615335464478,0,0,1.5288000106811523
0.262187245,0,0,1.5849615335464478,0,0,1.1466000080108643
0.262333503,0,0,1.4197616577148438,0,0,1.1466000080108643
0.262479872,0,0,1.4197616577148438,0,0,0.611519992351532
0.262626296,0,0,1.4197616577148438,0,0,0.611519992351532
0.262774109,0,0,1.4197616577148438,0,0,0.611519992351532
0.262920515,0,0,1.4197616577148438,0,0,-0.305759996175766
0.263066977,0,0,1.4197616577148438,0,0,-0.305759996175766
0.263213549,0,0,1.4197616577148438,0,0,0.2293200045824051
0.263359974,0,0,1.3934253454208374,0,0,0.2293200045824051
0.263506324,0,0,1.3934253454208374,0,0,0.4586400091648102
0.26365273,0,0,1.3934253454208374,0,0,0.4586400091648102
0.263799247,0,0,1.3934253454208374,0,0,0.2293200045824051
0.263945541,0,0,1.3934253454208374,0,0,0.2293200045824051
0.26409578,0,0,1.3934253454208374,0,0,0.9172800183296204
0.264240594,0,0,1.5059528350830078,0,0,0.9172800183296204
0.264386962,0,0,1.5059528350830078,0,0,0.9172800183296204
0.264533368,0,0,1.5059528350830078,0,0,1.758120059967041
0.264679626,0,0,1.5059528350830078,0,0,1.758120059967041
0.264826198,0,0,1.5059528350830078,0,0,1.452359914779663
0.264972752,0,0,1.5059528350830078,0,0,1.452359914779663
0.26511914,0,0,1.5059528350830078,0,0,1.070159912109375
0.265265657,0,0,1.4389152526855469,0,0,1.070159912109375
0.265412044,0,0,1.4389152526855469,0,0,0.611519992351532
0.265558468,0,0,1.4389152526855469,0,0,0.611519992351532
0.265704763,0,0,1.4389152526855469,0,0,0.611519992351532
0.26585115,0,0,1.4389152526855469,0,0,0.611519992351532
0.265997445,0,0,1.4389152526855469,0,0,0.611519992351532
0.266143869,0,0,1.4389152526855469,0,0,1.6816799640655518
0.266290349,0,0,1.3766659498214722,0,0,1.6816799640655518
0.266436811,0,0,1.3766659498214722,0,0,0.9172800183296204
0.266583179,0,0,1.3766659498214722,0,0,0.9172800183296204
0.266729604,0,0,1.3766659498214722,0,0,1.070159912109375
0.266876269,0,0,1.3766659498214722,0,0,1.070159912109375
0.267022675,0,0,1.3766659498214722,0,0,0.9172800183296204
0.267169099,0,0,1.3766659498214722,0,0,0.9172800183296204
0.267315283,0,0,1.4197616577148438,0,0,0.9172800183296204
0.267461763,0,0,1.4197616577148438,0,0,0.9172800183296204
0.267608168,0,0,1.4197616577148438,0,0,0.9172800183296204
0.267754278,0,0,1.4197616577148438,0,0,-0.305759996175766
0.267900776,0,0,1.4197616577148438,0,0,-0.305759996175766
0.268047219,0,0,1.4197616577148438,0,0,-0.152879998087883
0.268193625,0,0,1.4197616577148438,0,0,-0.152879998087883
0.268340142,0,0,1.534683346748352,0,0,0
0.268486474,0,0,1.534683346748352,0,0,0
0.268636305,0,0,1.534683346748352,0,0,0.305759996175766
0.268780971,0,0,1.534683346748352,0,0,0.305759996175766
0.268927488,0,0,1.534683346748352,0,0,0.305759996175766
0.269073838,0,0,1.534683346748352,0,0,2.14031982421875
0.269220447,0,0,1.534683346748352,0,0,2.14031982421875
0.269366835,0,0,1.5753847360610962,0,0,1.6816799640655518
0.269520129,0,0,1.5753847360610962,0,0,1.6816799640655518
0.26966022,0,0,1.5753847360610962,0,0,0.6879600286483765
0.269806497,0,0,1.5753847360610962,0,0,0.6879600286483765
0.269952902,0,0,1.5753847360610962,0,0,1.2994799613952637
0.270099105,0,0,1.5753847360610962,0,0,1.2994799613952637
0.270245936,0,0,1.558625340461731,0,0,1.070159912109375
0.270397879,0,0,1.558625340461731,0,0,1.070159912109375
0.270538896,0,0,1.558625340461731,0,0,1.070159912109375
0.270685024,0,0,1.558625340461731,0,0,-0.611519992351532
0.270832467,0,0,1.558625340461731,0,0,-0.611519992351532
0.270979299,0,0,1.558625340461731,0,0,-0.3822000026702881
0.271125705,0,0,1.558625340461731,0,0,-0.3822000026702881
0.271271962,0,0,1.5897499322891235,0,0,0.305759996175766
0.27141872,0,0,1.5897499322891235,0,0,0.305759996175766
0.2715652,0,0,1.5897499322891235,0,0,0.2293200045824051
0.271711291,0,0,1.5897499322891235,0,0,0.2293200045824051
0.271857715,0,0,1.5897499322891235,0,0,0.9172800183296204
0.272004232,0,0,1.5897499322891235,0,0,0.9172800183296204
0.272150712,0,0,1.5897499322891235,0,0,0.9172800183296204
0.272296951,0,0,1.5131354331970215,0,0,0.5350799560546875
0.272443468,0,0,1.5131354331970215,0,0,0.5350799560546875
0.272590041,0,0,1.5131354331970215,0,0,0.611519992351532
0.272736391,0,0,1.5131354331970215,0,0,0.611519992351532
0.27288276,0,0,1.5131354331970215,0,0,0.611519992351532
0.273029203,0,0,1.5131354331970215,0,0,0.611519992351532
0.273179071,0,0,1.5131354331970215,0,0,0.7644000053405762
0.273323959,0,0,1.434126853942871,0,0,0.7644000053405762
0.27347042,0,0,1.434126853942871,0,0,0.8408399820327759
0.273616733,0,0,1.434126853942871,0,0,0.8408399820327759
0.273763084,0,0,1.434126853942871,0,0,0.8408399820327759
0.273909341,0,0,1.434126853942871,0,0,1.2994799613952637
0.274055803,0,0,1.434126853942871,0,0,1.2994799613952637
0.27420206,0,0,1.434126853942871,0,0,1.375920057296753
0.27434817,0,0,1.3694833517074585,0,0,1.375920057296753
0.274494668,0,0,1.3694833517074585,0,0,1.1466000080108643
0.274640833,0,0,1.3694833517074585,0,0,1.1466000080108643
0.274788609,0,0,1.3694833517074585,0,0,0.9172800183296204
0.274935163,0,0,1.3694833517074585,0,0,0.9172800183296204
0.275081495,0,0,1.3694833517074585,0,0,0.9172800183296204
0.275228068,0,0,1.3694833517074585,0,0,1.1466000080108643
0.275374325,0,0,1.3479355573654175,0,0,1.1466000080108643
0.275520879,0,0,1.3479355573654175,0,0,0.611519992351532
0.275667193,0,0,1.3479355573654175,0,0,0.611519992351532
0.275813784,0,0,1.3479355573654175,0,0,0.6879600286483765
0.275960319,0,0,1.3479355573654175,0,0,0.6879600286483765
0.276106651,0,0,1.3479355573654175,0,0,0.5350799560546875
0.276253094,0,0,1.3551181554794312,0,0,0.5350799560546875
0.276399314,0,0,1.3551181554794312,0,0,0.305759996175766
0.276545794,0,0,1.3551181554794312,0,0,0.305759996175766
0.276692274,0,0,1.3551181554794312,0,0,0.305759996175766
0.276838958,0,0,1.3551181554794312,0,0,1.9874399900436401
0.276985512,0,0,1.3551181554794312,0,0,1.9874399900436401
0.27713188,0,0,1.3551181554794312,0,0,1.452359914779663
0.27727812,0,0,1.3910311460494995,0,0,1.452359914779663
0.277424322,0,0,1.3910311460494995,0,0,1.223039984703064
0.277570728,0,0,1.3910311460494995,0,0,1.223039984703064
0.277720874,0,0,1.3910311460494995,0,0,0.3822000026702881
0.277865687,0,0,1.3910311460494995,0,0,0.3822000026702881
0.27801226,0,0,1.3910311460494995,0,0,1.2994799613952637
0.278158332,0,0,1.3910311460494995,0,0,1.2994799613952637
0.278304886,0,0,1.434126853942871,0,0,1.2994799613952637
0.278451255,0,0,1.434126853942871,0,0,0.0764399990439415
0.278597754,0,0,1.434126853942871,0,0,0.0764399990439415
0.2787434,0,0,1.434126853942871,0,0,0.0764399990439415
0.278900991,0,0,1.434126853942871,0,0,0.0764399990439415
0.279047415,0,0,1.434126853942871,0,0,0.305759996175766
0.279193599,0,0,1.434126853942871,0,0,0.305759996175766
0.279340134,0,0,1.45806884765625,0,0,0.7644000053405762
0.279486466,0,0,1.45806884765625,0,0,0.7644000053405762
0.279633131,0,0,1.45806884765625,0,0,0.8408399820327759
0.279785556,0,0,1.45806884765625,0,0,0.8408399820327759
0.27992598,0,0,1.45806884765625,0,0,0.8408399820327759
0.280072201,0,0,1.45806884765625,0,0,0.5350799560546875
0.280218569,0,0,1.45806884765625,0,0,0.5350799560546875
0.280365216,0,0,1.5658079385757446,0,0,0.5350799560546875
0.280511492,0,0,1.5658079385757446,0,0,0.5350799560546875
0.280657768,0,0,1.5658079385757446,0,0,0.611519992351532
0.280803952,0,0,1.5658079385757446,0,0,0.611519992351532
0.280950487,0,0,1.5658079385757446,0,0,0.6879600286483765
0.28109719,0,0,1.5658079385757446,0,0,0.6879600286483765
0.281243466,0,0,1.5490485429763794,0,0,0.7644000053405762
0.28138989,0,0,1.5490485429763794,0,0,0.7644000053405762
0.281536333,0,0,1.5490485429763794,0,0,0.7644000053405762
0.281682887,0,0,1.5490485429763794,0,0,2.3696401119232178
0.2818292,0,0,1.5490485429763794,0,0,2.3696401119232178
0.281975495,0,0,1.5490485429763794,0,0,1.452359914779663
0.282122197,0,0,1.5490485429763794,0,0,1.452359914779663
0.282272158,0,0,1.5275006294250488,0,0,1.223039984703064
0.282416712,0,0,1.5275006294250488,0,0,1.223039984703064
0.282563229,0,0,1.5275006294250488,0,0,0.9937199950218201
0.28270945,0,0,1.5275006294250488,0,0,0.9937199950218201
0.282856245,0,0,1.5275006294250488,0,0,1.070159912109375
0.283000947,0,0,1.5275006294250488,0,0,1.070159912109375
0.283145945,0,0,1.5275006294250488,0,0,1.070159912109375
0.283290684,0,0,1.5634137392044067,0,0,1.8345600366592407
0.283436016,0,0,1.5634137392044067,0,0,1.8345600366592407
0.283580811,0,0,1.5634137392044067,0,0,1.452359914779663
0.283725735,0,0,1.5634137392044067,0,0,1.452359914779663
0.283870474,0,0,1.5634137392044067,0,0,0.9172800183296204
0.28401564,0,0,1.5634137392044067,0,0,0.9172800183296204
0.284160527,0,0,1.5634137392044067,0,0,0.9937199950218201
0.284305433,0,0,1.5107412338256836,0,0,0.9937199950218201
0.284450227,0,0,1.5107412338256836,0,0,0.9937199950218201
0.284595059,0,0,1.5107412338256836,0,0,1.758120059967041
0.284739873,0,0,1.5107412338256836,0,0,1.758120059967041
0.284884778,0,0,1.5107412338256836,0,0,0.9937199950218201
0.28502974,0,0,1.5107412338256836,0,0,0.9937199950218201
0.285174701,0,0,1.5107412338256836,0,0,0
0.2853197,0,0,1.3886369466781616,0,0,0
0.285464494,0,0,1.3886369466781616,0,0,1.223039984703064
0.285609289,0,0,1.3886369466781616,0,0,1.223039984703064
0.285754065,0,0,1.3886369466781616,0,0,1.223039984703064
0.285899101,0,0,1.3886369466781616,0,0,0
0.286043988,0,0,1.3886369466781616,0,0,0
0.286188746,0,0,1.3886369466781616,0,0,1.070159912109375
0.286333966,0,0,1.357512354850769,0,0,1.070159912109375
0.286478854,0,0,1.357512354850769,0,0,0
0.286624019,0,0,1.357512354850769,0,0,0
0.28678011,0,0,1.357512354850769,0,0,0.9937199950218201
0.286925127,0,0,1.357512354850769,0,0,0.9937199950218201
0.287071384,0,0,1.357512354850769,0,0,1.452359914779663
0.287217735,0,0,1.357512354850769,0,0,1.452359914779663
0.287364011,0,0,1.3718775510787964,0,0,1.452359914779663
0.28751012,0,0,1.3718775510787964,0,0,0.0764399990439415
0.2876561,0,0,1.3718775510787964,0,0,0.0764399990439415
0.287802525,0,0,1.3718775510787964,0,0,0.9172800183296204
0.287948412,0,0,1.3718775510787964,0,0,0.9172800183296204
0.288094744,0,0,1.3718775510787964,0,0,1.223039984703064
0.28824089,0,0,1.3886369466781616,0,0,1.223039984703064
0.288387204,0,0,1.3886369466781616,0,0,0.9172800183296204
0.288533128,0,0,1.3886369466781616,0,0,0.9172800183296204
0.288679478,0,0,1.3886369466781616,0,0,1.223039984703064
0.28882581,0,0,1.3886369466781616,0,0,1.223039984703064
0.288971771,0,0,1.3886369466781616,0,0,1.223039984703064
0.289123584,0,0,1.3886369466781616,0,0,-0.3822000026702881
0.289264268,0,0,1.3287819623947144,0,0,-0.3822000026702881
0.289410396,0,0,1.3287819623947144,0,0,0.0764399990439415
0.289556339,0,0,1.3287819623947144,0,0,0.0764399990439415
0.289702615,0,0,1.3287819623947144,0,0,1.223039984703064
0.289848651,0,0,1.3287819623947144,0,0,1.223039984703064
0.289994816,0,0,1.3287819623947144,0,0,1.1466000080108643
0.290140833,0,0,1.3287819623947144,0,0,1.1466000080108643
0.290286887,0,0,1.3982137441635132,0,0,1.1466000080108643
0.290433367,0,0,1.3982137441635132,0,0,1.5288000106811523
0.290579513,0,0,1.3982137441635132,0,0,1.5288000106811523
0.290725771,0,0,1.3982137441635132,0,0,0.305759996175766
0.290872455,0,0,1.3982137441635132,0,0,0.305759996175766
0.291018323,0,0,1.3982137441635132,0,0,0
0.29116447,0,0,1.3982137441635132,0,0,0
0.291314487,0,0,1.5107412338256836,0,0,1.070159912109375
0.291459041,0,0,1.5107412338256836,0,0,1.070159912109375
0.291605539,0,0,1.5107412338256836,0,0,0.152879998087883
0.291751723,0,0,1.5107412338256836,0,0,0.152879998087883
0.291897758,0,0,1.5107412338256836,0,0,0.152879998087883
0.292043979,0,0,1.5107412338256836,0,0,0.0764399990439415
0.292190274,0,0,1.5107412338256836,0,0,0.0764399990439415
0.292336439,0,0,1.625662922859192,0,0,0
0.292482622,0,0,1.625662922859192,0,0,0
0.292629102,0,0,1.625662922859192,0,0,0.3822000026702881
0.292775045,0,0,1.625662922859192,0,0,0.3822000026702881
0.292921247,0,0,1.625662922859192,0,0,0.7644000053405762
0.293067172,0,0,1.625662922859192,0,0,0.7644000053405762
0.293213522,0,0,1.625662922859192,0,0,0.2293200045824051
0.293359576,0,0,1.558625340461731,0,0,0.2293200045824051
0.293505834,0,0,1.558625340461731,0,0,0.2293200045824051
0.293652017,0,0,1.558625340461731,0,0,1.605239987373352
0.293798034,0,0,1.558625340461731,0,0,1.605239987373352
0.293944292,0,0,1.558625340461731,0,0,0.4586400091648102
0.294090512,0,0,1.558625340461731,0,0,0.4586400091648102
0.294236566,0,0,1.558625340461731,0,0,0.4586400091648102
0.294382954,0,0,1.4508862495422363,0,0,0.4586400091648102
0.294529008,0,0,1.4508862495422363,0,0,0.7644000053405762
0.294675358,0,0,1.4508862495422363,0,0,0.7644000053405762
0.294822801,0,0,1.4508862495422363,0,0,0.7644000053405762
0.294969003,0,0,1.4508862495422363,0,0,0.9937199950218201
0.295115483,0,0,1.4508862495422363,0,0,0.9937199950218201
0.295261537,0,0,1.3934253454208374,0,0,1.9109998941421509
0.29540748,0,0,1.3934253454208374,0,0,1.9109998941421509
0.295553756,0,0,1.3934253454208374,0,0,1.2994799613952637
0.295700106,0,0,1.3934253454208374,0,0,1.2994799613952637
0.295849919,0,0,1.3934253454208374,0,0,0.9937199950218201
0.295994325,0,0,1.3934253454208374,0,0,0.9937199950218201
0.296140731,0,0,1.3934253454208374,0,0,1.452359914779663
0.296286618,0,0,1.3838485479354858,0,0,1.452359914779663
0.296432895,0,0,1.3838485479354858,0,0,1.452359914779663
0.296579282,0,0,1.3838485479354858,0,0,1.223039984703064
0.296725595,0,0,1.3838485479354858,0,0,1.223039984703064
0.296871649,0,0,1.3838485479354858,0,0,1.070159912109375
0.297017759,0,0,1.3838485479354858,0,0,1.070159912109375
0.297163979,0,0,1.3838485479354858,0,0,1.605239987373352
0.297310237,0,0,1.359906554222107,0,0,1.605239987373352
0.297456772,0,0,1.359906554222107,0,0,0.8408399820327759
0.297602752,0,0,1.359906554222107,0,0,0.8408399820327759
0.297748954,0,0,1.359906554222107,0,0,1.2994799613952637
0.297895194,0,0,1.359906554222107,0,0,1.2994799613952637
0.298041396,0,0,1.359906554222107,0,0,1.2994799613952637
0.298187746,0,0,1.359906554222107,0,0,-29.582279205322266
0.298334096,0,0,1.292868971824646,0,0,-0.2293200045824051
0.298486372,0,0,1.292868971824646,0,0,0
0.298626593,0,0,1.292868971824646,0,0,0
0.298773906,0,0,1.292868971824646,0,0,0.2293200045824051
0.298920553,0,0,1.292868971824646,0,0,0.2293200045824051
0.299066811,0,0,1.292868971824646,0,0,0.305759996175766
0.299212679,0,0,1.292868971824646,0,0,0.305759996175766
0.2993589,0,0,1.3694833517074585,0,0,0.6879600286483765
0.299505047,0,0,1.3694833517074585,0,0,0.6879600286483765
0.29965123,0,0,1.3694833517074585,0,0,0.6879600286483765
0.299797543,0,0,1.3694833517074585,0,0,0.5350799560546875
0.299943801,0,0,1.3694833517074585,0,0,0.5350799560546875
0.300090151,0,0,1.3694833517074585,0,0,0.5350799560546875
0.300236372,0,0,1.3694833517074585,0,0,0.5350799560546875
0.30038613,0,0,1.4652514457702637,0,0,0.7644000053405762
0.300532795,0,0,1.4652514457702637,0,0,0.7644000053405762
0.300685978,0,0,1.4652514457702637,0,0,1.1466000080108643
0.300954568,0,0,1.4652514457702637,0,0,1.1466000080108643
0.300985697,0,0,1.4652514457702637,0,0,2.3696401119232178
0.301130011,0,0,1.4652514457702637,0,0,2.3696401119232178
0.301275787,0,0,1.455674648284912,0,0,2.3696401119232178
0.30142223,0,0,1.455674648284912,0,0,0
0.301568432,0,0,1.455674648284912,0,0,0
0.301714838,0,0,1.455674648284912,0,0,0.305759996175766
0.301861021,0,0,1.455674648284912,0,0,0.305759996175766
0.302007464,0,0,1.455674648284912,0,0,1.223039984703064
0.302153685,0,0,1.455674648284912,0,0,1.223039984703064
0.30229985,0,0,1.5275006294250488,0,0,0.8408399820327759
0.302445904,0,0,1.5275006294250488,0,0,0.8408399820327759
0.302592513,0,0,1.5275006294250488,0,0,0.9172800183296204
0.302751456,0,0,1.5275006294250488,0,0,0.9172800183296204
0.302886455,0,0,1.5275006294250488,0,0,0.9172800183296204
0.303032786,0,0,1.5275006294250488,0,0,0.152879998087883
0.303179248,0,0,1.5275006294250488,0,0,0.152879998087883
0.303325635,0,0,1.5418659448623657,0,0,0.5350799560546875
0.3034718,0,0,1.5418659448623657,0,0,0.5350799560546875
0.303618187,0,0,1.5418659448623657,0,0,0.9172800183296204
0.303764501,0,0,1.5418659448623657,0,0,0.9172800183296204
0.303910981,0,0,1.5418659448623657,0,0,0.0764399990439415
0.304057146,0,0,1.5418659448623657,0,0,0.0764399990439415
0.304203681,0,0,1.5418659448623657,0,0,0.0764399990439415
0.304349791,0,0,1.50355863571167,0,0,0.3822000026702881
0.304496196,0,0,1.50355863571167,0,0,0.3822000026702881
0.304642584,0,0,1.50355863571167,0,0,1.070159912109375
0.30478886,0,0,1.50355863571167,0,0,1.070159912109375
0.304941377,0,0,1.50355863571167,0,0,0.611519992351532
0.305085283,0,0,1.50355863571167,0,0,0.611519992351532
0.305231651,0,0,1.50355863571167,0,0,1.223039984703064
0.305377872,0,0,1.558625340461731,0,0,1.223039984703064
0.30552413,0,0,1.558625340461731,0,0,0.9172800183296204
0.305670573,0,0,1.558625340461731,0,0,0.9172800183296204
0.305816849,0,0,1.558625340461731,0,0,0.9172800183296204
0.305963144,0,0,1.558625340461731,0,0,1.223039984703064
0.306109235,0,0,1.558625340461731,0,0,1.223039984703064
0.306255844,0,0,1.501164436340332,0,0,0.2293200045824051
0.306401768,0,0,1.501164436340332,0,0,0.2293200045824051
0.306548119,0,0,1.501164436340332,0,0,0.305759996175766
0.306694265,0,0,1.501164436340332,0,0,0.305759996175766
0.306841764,0,0,1.501164436340332,0,0,1.2994799613952637
0.306988188,0,0,1.501164436340332,0,0,1.2994799613952637
0.307134631,0,0,1.501164436340332,0,0,0.152879998087883
0.307280796,0,0,1.3287819623947144,0,0,0.152879998087883
0.307426943,0,0,1.3287819623947144,0,0,0.152879998087883
0.307573385,0,0,1.3287819623947144,0,0,0.4586400091648102
0.307719606,0,0,1.3287819623947144,0,0,0.4586400091648102
0.307866086,0,0,1.3287819623947144,0,0,0.5350799560546875
0.308012214,0,0,1.3287819623947144,0,0,0.5350799560546875
0.308158472,0,0,1.3287819623947144,0,0,0.611519992351532
0.30830497,0,0,1.3215993642807007,0,0,0.611519992351532
0.308451117,0,0,1.3215993642807007,0,0,0.9937199950218201
0.308597282,0,0,1.3215993642807007,0,0,0.9937199950218201
0.308743447,0,0,1.3215993642807007,0,0,0.3822000026702881
0.308889556,0,0,1.3215993642807007,0,0,0.3822000026702881
0.309035814,0,0,1.3215993642807007,0,0,0.3822000026702881
0.309181757,0,0,1.3215993642807007,0,0,1.375920057296753
0.309328107,0,0,1.278503656387329,0,0,1.375920057296753
0.309477939,0,0,1.278503656387329,0,0,0.7644000053405762
0.30962253,0,0,1.278503656387329,0,0,0.7644000053405762
0.309768732,0,0,1.278503656387329,0,0,1.452359914779663
0.309914953,0,0,1.278503656387329,0,0,1.452359914779663
0.310061155,0,0,1.278503656387329,0,0,0.611519992351532
0.310207413,0,0,1.278503656387329,0,0,0.611519992351532
0.310354096,0,0,1.3623007535934448,0,0,0.5350799560546875
0.310500169,0,0,1.3623007535934448,0,0,0.5350799560546875
0.31064663,0,0,1.3623007535934448,0,0,0.5350799560546875
0.310794017,0,0,1.3623007535934448,0,0,1.452359914779663
0.31094109,0,0,1.3623007535934448,0,0,1.452359914779663
0.311088496,0,0,1.3623007535934448,0,0,0.9172800183296204
0.311234716,0,0,1.3623007535934448,0,0,0.9172800183296204
0.311380844,0,0,1.359906554222107,0,0,0.2293200045824051
0.311527584,0,0,1.359906554222107,0,0,0.2293200045824051
0.311673563,0,0,1.359906554222107,0,0,0.7644000053405762
0.311819932,0,0,1.359906554222107,0,0,0.7644000053405762
0.311966227,0,0,1.359906554222107,0,0,0.7644000053405762
0.31211254,0,0,1.359906554222107,0,0,0.8408399820327759
0.312258705,0,0,1.4676456451416016,0,0,0.8408399820327759
0.312404963,0,0,1.4676456451416016,0,0,0.611519992351532
0.312551573,0,0,1.4676456451416016,0,0,0.611519992351532
