Time,AccelX1,AccelY1,AccelZ1,AccelX2,AccelY2,AccelZ2
0.000160406,0,0,1.4077905416488647,0,0,0.6879600286483765
0.00136319,0,0,1.4077905416488647,0,0,0.9937199950218201
0.002586215,0,0,1.4077905416488647,0,0,0.4586400091648102
0.00385348,0,0,1.4077905416488647,0,0,1.1466000080108643
0.005108542,0,0,1.4197616577148438,0,0,0.9172800183296204
0.00634727,0,0,1.4197616577148438,0,0,0.9172800183296204
0.007585628,0,0,1.4197616577148438,0,0,0.9937199950218201
0.008835357,0,0,1.4197616577148438,0,0,0.5350799560546875
0.010088251,0,0,1.4197616577148438,0,0,0.7644000053405762
0.011339387,0,0,1.4197616577148438,0,0,0.611519992351532
0.012591912,0,0,1.4197616577148438,0,0,0.7644000053405762
0.013840177,0,0,1.4724340438842773,0,0,0.5350799560546875
0.015087239,0,0,1.4724340438842773,0,0,0.9937199950218201
0.016344263,0,0,1.4724340438842773,0,0,0.9172800183296204
0.017591084,0,0,1.4724340438842773,0,0,0.9172800183296204
0.01884522,0,0,1.4724340438842773,0,0,0.8408399820327759
0.020087115,0,0,1.4724340438842773,0,0,0.8408399820327759
0.021342713,0,0,1.4724340438842773,0,0,0.6879600286483765
0.022588571,0,0,1.4293384552001953,0,0,0.9172800183296204
0.023839651,0,0,1.4293384552001953,0,0,0.9172800183296204
0.025091472,0,0,1.4293384552001953,0,0,0.305759996175766
0.026338441,0,0,1.4293384552001953,0,0,0.9937199950218201
0.027586762,0,0,1.4293384552001953,0,0,0.7644000053405762
0.028836638,0,0,1.4293384552001953,0,0,1.070159912109375
0.030092793,0,0,1.5298948287963867,0,0,0.8408399820327759
0.031338965,0,0,1.5298948287963867,0,0,0.8408399820327759
0.032589768,0,0,1.5298948287963867,0,0,0.7644000053405762
0.033836292,0,0,1.5298948287963867,0,0,0.8408399820327759
0.03508928,0,0,1.5298948287963867,0,0,0.7644000053405762
0.03633586,0,0,1.5298948287963867,0,0,0.9172800183296204
0.037585847,0,0,1.5298948287963867,0,0,0.9172800183296204
0.038840039,0,0,1.5083470344543457,0,0,0.9937199950218201
0.0400896,0,0,1.5083470344543457,0,0,0.8408399820327759
0.041357865,0,0,1.5083470344543457,0,0,0.8408399820327759
0.042587594,0,0,1.5083470344543457,0,0,0.9172800183296204
0.043837007,0,0,1.5083470344543457,0,0,0.9172800183296204
0.045087161,0,0,1.5083470344543457,0,0,0.6879600286483765
0.046337056,0,0,1.6112977266311646,0,0,0.611519992351532
0.04759421,0,0,1.6112977266311646,0,0,0.9937199950218201
0.048837457,0,0,1.6112977266311646,0,0,0.8408399820327759
0.050087149,0,0,1.6112977266311646,0,0,0.611519992351532
0.051348229,0,0,1.6112977266311646,0,0,1.070159912109375
0.052586605,0,0,1.6112977266311646,0,0,0.9172800183296204
0.053842889,0,0,1.6112977266311646,0,0,0.6879600286483765
0.055090839,0,0,1.4844050407409668,0,0,0.611519992351532
0.056338623,0,0,1.4844050407409668,0,0,0.7644000053405762
0.057586185,0,0,1.4844050407409668,0,0,0.4586400091648102
0.058845339,0,0,1.4844050407409668,0,0,0.9172800183296204
0.060091567,0,0,1.4844050407409668,0,0,0.7644000053405762
0.061339166,0,0,1.4844050407409668,0,0,0.7644000053405762
0.06258869,0,0,1.4844050407409668,0,0,0.611519992351532
0.063840493,0,0,1.3192051649093628,0,0,0.8408399820327759
0.065118776,0,0,1.3192051649093628,0,0,0.8408399820327759
0.066343746,0,0,1.3192051649093628,0,0,0.611519992351532
0.067605085,0,0,1.3192051649093628,0,0,0.7644000053405762
0.068845313,0,0,1.3192051649093628,0,0,0.152879998087883
0.070094819,0,0,1.3192051649093628,0,0,0.6879600286483765
0.071340788,0,0,1.3192051649093628,0,0,0.9172800183296204
0.072585054,0,0,1.3670891523361206,0,0,0.7644000053405762
0.073846541,0,0,1.3670891523361206,0,0,0.9172800183296204
0.075088047,0,0,1.3670891523361206,0,0,0.6879600286483765
0.076337016,0,0,1.3670891523361206,0,0,0.611519992351532
0.077592263,0,0,1.3670891523361206,0,0,0.5350799560546875
0.078869843,0,0,1.3670891523361206,0,0,0.9172800183296204
0.080134719,0,0,1.2665326595306396,0,0,0.7644000053405762
0.081365929,0,0,1.2665326595306396,0,0,1.1466000080108643
0.082587658,0,0,1.2665326595306396,0,0,0.8408399820327759
0.083836867,0,0,1.2665326595306396,0,0,1.070159912109375
0.085087447,0,0,1.2665326595306396,0,0,0.9172800183296204
0.086337083,0,0,1.2665326595306396,0,0,0.8408399820327759
0.087586941,0,0,1.2665326595306396,0,0,0.7644000053405762
0.088836817,0,0,1.3215993642807007,0,0,0.5350799560546875
0.090086916,0,0,1.3215993642807007,0,0,0.9937199950218201
0.091336737,0,0,1.3215993642807007,0,0,0.8408399820327759
0.092586854,0,0,1.3215993642807007,0,0,0.8408399820327759
0.093836916,0,0,1.3215993642807007,0,0,0.8408399820327759
0.095086866,0,0,1.3215993642807007,0,0,0.9172800183296204
0.096336817,0,0,1.3215993642807007,0,0,0.9172800183296204
0.097586915,0,0,1.3215993642807007,0,0,0.8408399820327759
0.098837218,0,0,1.3934253454208374,0,0,0.7644000053405762
0.10008689,0,0,1.3934253454208374,0,0,0.7644000053405762
0.101337007,0,0,1.3934253454208374,0,0,0.611519992351532
0.102586754,0,0,1.3934253454208374,0,0,0.8408399820327759
0.103836964,0,0,1.3934253454208374,0,0,0.611519992351532
0.105088803,0,0,1.3934253454208374,0,0,0.5350799560546875
0.106336958,0,0,1.3934253454208374,0,0,0.7644000053405762
0.107586964,0,0,1.5466543436050415,0,0,1.070159912109375
0.10883697,0,0,1.5466543436050415,0,0,0.8408399820327759
0.11008942,0,0,1.5466543436050415,0,0,0.8408399820327759
0.111343333,0,0,1.5466543436050415,0,0,1.1466000080108643
0.112587265,0,0,1.5466543436050415,0,0,0.6879600286483765
0.113869308,0,0,1.5466543436050415,0,0,0.7644000053405762
0.115118148,0,0,1.5466543436050415,0,0,0.9172800183296204
0.116350543,0,0,1.5897499322891235,0,0,0.9172800183296204
0.117603012,0,0,1.5897499322891235,0,0,1.070159912109375
0.118854092,0,0,1.5897499322891235,0,0,1.070159912109375
0.121055662,0,0,1.5897499322891235,0,0,0.8408399820327759
0.121344437,0,0,1.5897499322891235,0,0,0.611519992351532
0.122609869,0,0,1.5897499322891235,0,0,0.8408399820327759
0.123932912,0,0,1.5897499322891235,0,0,0.7644000053405762
0.125100159,0,0,1.534683346748352,0,0,0.9172800183296204
0.126350147,0,0,1.534683346748352,0,0,1.1466000080108643
0.127589986,0,0,1.534683346748352,0,0,1.1466000080108643
0.128840011,0,0,1.534683346748352,0,0,0.8408399820327759
0.130148072,0,0,1.534683346748352,0,0,0.611519992351532
0.131365226,0,0,1.534683346748352,0,0,0.9172800183296204
0.132605232,0,0,1.534683346748352,0,0,0.6879600286483765
0.133875497,0,0,1.534683346748352,0,0,0.6879600286483765
0.135105448,0,0,1.534683346748352,0,0,1.070159912109375
0.136356399,0,0,1.534683346748352,0,0,0.8408399820327759
0.137606775,0,0,1.534683346748352,0,0,0.5350799560546875
0.138862596,0,0,1.534683346748352,0,0,0.9937199950218201
0.140127398,0,0,1.534683346748352,0,0,0.9937199950218201
0.141359238,0,0,1.534683346748352,0,0,0.9937199950218201
0.142605633,0,0,1.534683346748352,0,0,0.8408399820327759
0.143854842,0,0,1.5298948287963867,0,0,1.1466000080108643
0.145118348,0,0,1.5298948287963867,0,0,0.3822000026702881
0.146353151,0,0,1.5298948287963867,0,0,0.8408399820327759
0.147601527,0,0,1.5298948287963867,0,0,0.8408399820327759
0.148859774,0,0,1.5298948287963867,0,0,0.611519992351532
0.150093113,0,0,1.5298948287963867,0,0,0.9937199950218201
0.151345342,0,0,1.5298948287963867,0,0,0.611519992351532
0.152586311,0,0,1.41257905960083,0,0,0.7644000053405762
0.153844761,0,0,1.41257905960083,0,0,0.6879600286483765
0.155092582,0,0,1.41257905960083,0,0,0.6879600286483765
0.156337236,0,0,1.41257905960083,0,0,0.5350799560546875
0.157587224,0,0,1.41257905960083,0,0,0.9172800183296204
0.1588371,0,0,1.41257905960083,0,0,0.9937199950218201
0.160087051,0,0,1.41257905960083,0,0,0.7644000053405762
0.161360575,0,0,1.41257905960083,0,0,0.9172800183296204
0.162588044,0,0,1.41257905960083,0,0,0.611519992351532
0.16383768,0,0,1.41257905960083,0,0,0.9172800183296204
0.165087371,0,0,1.41257905960083,0,0,0.9172800183296204
0.166337007,0,0,1.41257905960083,0,0,0.9172800183296204
0.167587031,0,0,1.41257905960083,0,0,0.8408399820327759
0.168836908,0,0,1.41257905960083,0,0,0.8408399820327759
0.170086062,0,0,1.4532804489135742,0,0,0.6879600286483765
0.171335809,0,0,1.4532804489135742,0,0,1.1466000080108643
0.172587241,0,0,1.4532804489135742,0,0,0.9172800183296204
0.173844599,0,0,1.4532804489135742,0,0,0.9172800183296204
0.175087734,0,0,1.4532804489135742,0,0,0.8408399820327759
0.176337018,0,0,1.4532804489135742,0,0,0.8408399820327759
0.177587061,0,0,1.4532804489135742,0,0,0.611519992351532
0.178836789,0,0,1.4532804489135742,0,0,0.8408399820327759
0.18008687,0,0,1.3503297567367554,0,0,0.9172800183296204
0.181336968,0,0,1.3503297567367554,0,0,0.9172800183296204
0.182586956,0,0,1.3503297567367554,0,0,0.7644000053405762
0.183837165,0,0,1.3503297567367554,0,0,0.9172800183296204
0.185086912,0,0,1.3503297567367554,0,0,0.611519992351532
0.186336955,0,0,1.3503297567367554,0,0,0.611519992351532
0.187586813,0,0,1.3503297567367554,0,0,0.8408399820327759
0.188836967,0,0,1.3287819623947144,0,0,0.611519992351532
0.190087177,0,0,1.3287819623947144,0,0,1.070159912109375
0.19133672,0,0,1.3287819623947144,0,0,0.8408399820327759
0.192586893,0,0,1.3287819623947144,0,0,0.9172800183296204
0.193840473,0,0,1.3287819623947144,0,0,0.611519992351532
0.195087035,0,0,1.3287819623947144,0,0,0.6879600286483765
0.196337485,0,0,1.3287819623947144,0,0,0.8408399820327759
0.197586862,0,0,1.4460978507995605,0,0,0.7644000053405762
0.198836775,0,0,1.4460978507995605,0,0,0.6879600286483765
0.200086818,0,0,1.4460978507995605,0,0,0.5350799560546875
0.201336824,0,0,1.4460978507995605,0,0,0.9937199950218201
0.202586775,0,0,1.4460978507995605,0,0,0.9172800183296204
0.203836892,0,0,1.4460978507995605,0,0,0.9937199950218201
0.205086916,0,0,1.4460978507995605,0,0,0.8408399820327759
0.206337126,0,0,1.525106430053711,0,0,0.5350799560546875
0.20758678,0,0,1.525106430053711,0,0,0.8408399820327759
0.208836786,0,0,1.525106430053711,0,0,0.9172800183296204
0.210086755,0,0,1.525106430053711,0,0,0.9937199950218201
0.211336761,0,0,1.525106430053711,0,0,0.611519992351532
0.212586971,0,0,1.525106430053711,0,0,1.070159912109375
0.213836959,0,0,1.525106430053711,0,0,0.9172800183296204
0.215086891,0,0,1.5466543436050415,0,0,0.9937199950218201
0.216337045,0,0,1.5466543436050415,0,0,0.9937199950218201
0.217596551,0,0,1.5466543436050415,0,0,0.8408399820327759
0.21883739,0,0,1.5466543436050415,0,0,0.611519992351532
0.220087433,0,0,1.5466543436050415,0,0,0.9937199950218201
0.221337199,0,0,1.5466543436050415,0,0,0.6879600286483765
0.222587094,0,0,1.5466543436050415,0,0,1.070159912109375
0.223837007,0,0,1.6184803247451782,0,0,0.8408399820327759
0.22508742,0,0,1.6184803247451782,0,0,0.8408399820327759
0.226337075,0,0,1.6184803247451782,0,0,1.2994799613952637
0.22758684,0,0,1.6184803247451782,0,0,0.9937199950218201
0.228837161,0,0,1.6184803247451782,0,0,0.6879600286483765
0.230086722,0,0,1.6184803247451782,0,0,0.7644000053405762
0.23133684,0,0,1.6184803247451782,0,0,0.7644000053405762
0.232589105,0,0,1.6184803247451782,0,0,0.3822000026702881
0.233837111,0,0,1.6160861253738403,0,0,0.8408399820327759
0.235087024,0,0,1.6160861253738403,0,0,0.7644000053405762
0.236336827,0,0,1.6160861253738403,0,0,0.8408399820327759
0.237586907,0,0,1.6160861253738403,0,0,0.8408399820327759
0.238836783,0,0,1.6160861253738403,0,0,0.7644000053405762
0.240087141,0,0,1.6160861253738403,0,0,0.9172800183296204
0.241336795,0,0,1.6160861253738403,0,0,0.7644000053405762
0.242586987,0,0,1.53707754611969,0,0,0.7644000053405762
0.243836881,0,0,1.53707754611969,0,0,0.4586400091648102
0.245087073,0,0,1.53707754611969,0,0,0.8408399820327759
0.246337153,0,0,1.53707754611969,0,0,0.8408399820327759
0.24758727,0,0,1.53707754611969,0,0,1.223039984703064
0.248836906,0,0,1.53707754611969,0,0,0.8408399820327759
0.250086782,0,0,1.53707754611969,0,0,0.9172800183296204
0.251336807,0,0,1.335964560508728,0,0,0.6879600286483765
0.252586961,0,0,1.335964560508728,0,0,0.611519992351532
0.253865911,0,0,1.335964560508728,0,0,0.6879600286483765
0.255112324,0,0,1.335964560508728,0,0,0.611519992351532
0.256356775,0,0,1.335964560508728,0,0,1.070159912109375
0.257613688,0,0,1.335964560508728,0,0,0.7644000053405762
0.258861176,0,0,1.335964560508728,0,0,1.070159912109375
0.260113849,0,0,1.3431471586227417,0,0,0.5350799560546875
0.261366484,0,0,1.3431471586227417,0,0,0.611519992351532
0.26261725,0,0,1.3431471586227417,0,0,0.9172800183296204
0.2638937,0,0,1.3431471586227417,0,0,0.8408399820327759
0.265117743,0,0,1.3431471586227417,0,0,0.7644000053405762
0.266361601,0,0,1.3431471586227417,0,0,0.5350799560546875
0.267611848,0,0,1.3431471586227417,0,0,0.9172800183296204
0.269020075,0,0,1.314416766166687,0,0,0.8408399820327759
0.270124212,0,0,1.314416766166687,0,0,0.7644000053405762
0.271369588,0,0,1.314416766166687,0,0,0.5350799560546875
0.27261415,0,0,1.314416766166687,0,0,0.8408399820327759
0.273865415,0,0,1.314416766166687,0,0,0.6879600286483765
0.27511331,0,0,1.314416766166687,0,0,0.7644000053405762
0.276364872,0,0,1.314416766166687,0,0,0.6879600286483765
0.277607248,0,0,1.314416766166687,0,0,0.611519992351532
0.278866236,0,0,1.2713210582733154,0,0,0.7644000053405762
0.28008839,0,0,1.2713210582733154,0,0,0.8408399820327759
0.281336229,0,0,1.2713210582733154,0,0,0.7644000053405762
0.282585032,0,0,1.2713210582733154,0,0,0.7644000053405762
0.283835093,0,0,1.2713210582733154,0,0,0.611519992351532
0.285085525,0,0,1.2713210582733154,0,0,0.7644000053405762
0.286334957,0,0,1.2713210582733154,0,0,0.7644000053405762
0.287584834,0,0,1.3000515699386597,0,0,0.611519992351532
0.288835006,0,0,1.3000515699386597,0,0,0.7644000053405762
0.290085605,0,0,1.3000515699386597,0,0,0.611519992351532
0.291334796,0,0,1.3000515699386597,0,0,1.070159912109375
0.292584691,0,0,1.3000515699386597,0,0,0.9937199950218201
0.293836734,0,0,1.3000515699386597,0,0,0.6879600286483765
0.295085388,0,0,1.3000515699386597,0,0,0.7644000053405762
0.296335209,0,0,1.4269442558288574,0,0,0.6879600286483765
0.297586419,0,0,1.4269442558288574,0,0,0.4586400091648102
0.298834944,0,0,1.4269442558288574,0,0,0.6879600286483765
0.300084894,0,0,1.4269442558288574,0,0,1.070159912109375
0.301334993,0,0,1.4269442558288574,0,0,0.7644000053405762
0.302585073,0,0,1.4269442558288574,0,0,0.9937199950218201
0.303834949,0,0,1.4269442558288574,0,0,0.9172800183296204
0.305087622,0,0,1.6376339197158813,0,0,0.9172800183296204
0.306335924,0,0,1.6376339197158813,0,0,0.9937199950218201
0.307668874,0,0,1.6376339197158813,0,0,0.7644000053405762
0.308838103,0,0,1.6376339197158813,0,0,0.8408399820327759
0.310090813,0,0,1.6376339197158813,0,0,0.7644000053405762
0.311335356,0,0,1.6376339197158813,0,0,0.7644000053405762
0.312585029,0,0,1.6376339197158813,0,0,0.9937199950218201
0.313838349,0,0,1.5538369417190552,0,0,0.8408399820327759
0.31508517,0,0,1.5538369417190552,0,0,0.8408399820327759
0.316334695,0,0,1.5538369417190552,0,0,0.7644000053405762
0.317585349,0,0,1.5538369417190552,0,0,0.611519992351532
0.318834837,0,0,1.5538369417190552,0,0,0.7644000053405762
0.32008475,0,0,1.5538369417190552,0,0,0.7644000053405762
0.321362274,0,0,1.5538369417190552,0,0,0.5350799560546875
0.322587151,0,0,1.50355863571167,0,0,0.8408399820327759
0.323836231,0,0,1.50355863571167,0,0,0.9172800183296204
0.325086163,0,0,1.50355863571167,0,0,0.6879600286483765
0.326335891,0,0,1.50355863571167,0,0,0.8408399820327759
0.327585934,0,0,1.50355863571167,0,0,0.5350799560546875
0.328836311,0,0,1.50355863571167,0,0,0.5350799560546875
0.330219038,0,0,1.50355863571167,0,0,0.9937199950218201
0.331372971,0,0,1.5682021379470825,0,0,0.7644000053405762
0.332588385,0,0,1.5682021379470825,0,0,0.9172800183296204
0.333836317,0,0,1.5682021379470825,0,0,0.7644000053405762
0.335085971,0,0,1.5682021379470825,0,0,0.9172800183296204
0.336336125,0,0,1.5682021379470825,0,0,0.9172800183296204
0.337585927,0,0,1.5682021379470825,0,0,0.7644000053405762
0.338835711,0,0,1.5682021379470825,0,0,0.6879600286483765
0.340085699,0,0,1.5682021379470825,0,0,0.611519992351532
0.341336112,0,0,1.5322890281677246,0,0,1.1466000080108643
0.342586229,0,0,1.5322890281677246,0,0,0.7644000053405762
0.343835828,0,0,1.5322890281677246,0,0,0.9937199950218201
0.345086093,0,0,1.5322890281677246,0,0,0.7644000053405762
0.346335933,0,0,1.5322890281677246,0,0,0.9172800183296204
0.347585976,0,0,1.381454348564148,0,0,1.1466000080108643
0.348841741,0,0,1.381454348564148,0,0,0.9172800183296204
0.350086525,0,0,1.381454348564148,0,0,0.6879600286483765
0.351335938,0,0,1.381454348564148,0,0,0.9172800183296204
0.352585666,0,0,1.381454348564148,0,0,0.4586400091648102
0.353836024,0,0,1.3407529592514038,0,0,0.9172800183296204
0.355085808,0,0,1.3407529592514038,0,0,0.8408399820327759
0.356335629,0,0,1.3407529592514038,0,0,0.8408399820327759
0.35758582,0,0,1.3407529592514038,0,0,0.6879600286483765
0.35883566,0,0,1.3407529592514038,0,0,0.8408399820327759
0.360085721,0,0,1.3407529592514038,0,0,0.9172800183296204
0.361335912,0,0,1.3407529592514038,0,0,0.7644000053405762
0.362585844,0,0,1.3862427473068237,0,0,0.8408399820327759
0.363835739,0,0,1.3862427473068237,0,0,0.4586400091648102
0.365086431,0,0,1.3862427473068237,0,0,0.9937199950218201
0.366335714,0,0,1.3862427473068237,0,0,0.6879600286483765
0.367769163,0,0,1.3862427473068237,0,0,0.7644000053405762
0.368884615,0,0,1.3862427473068237,0,0,0.7644000053405762
0.370138991,0,0,1.3862427473068237,0,0,0.9172800183296204
0.371382886,0,0,1.2880805730819702,0,0,0.7644000053405762
0.372596744,0,0,1.2880805730819702,0,0,0.9172800183296204
0.373846306,0,0,1.2880805730819702,0,0,0.6879600286483765
0.375087146,0,0,1.2880805730819702,0,0,0.7644000053405762
0.376336244,0,0,1.2880805730819702,0,0,0.9937199950218201
0.377586232,0,0,1.2880805730819702,0,0,0.9172800183296204
0.378835812,0,0,1.2880805730819702,0,0,1.070159912109375
0.380085873,0,0,1.2880805730819702,0,0,0.7644000053405762
0.381336805,0,0,1.3958195447921753,0,0,0.7644000053405762
0.382585923,0,0,1.3958195447921753,0,0,0.7644000053405762
0.38383591,0,0,1.3958195447921753,0,0,0.6879600286483765
0.385086194,0,0,1.3958195447921753,0,0,1.1466000080108643
0.386335867,0,0,1.3958195447921753,0,0,0.6879600286483765
0.387591687,0,0,1.3958195447921753,0,0,0.9172800183296204
0.388836175,0,0,1.3958195447921753,0,0,0.6879600286483765
0.390087977,0,0,1.4724340438842773,0,0,0.9172800183296204
0.391336557,0,0,1.4724340438842773,0,0,0.8408399820327759
0.39258723,0,0,1.4724340438842773,0,0,0.9172800183296204
0.393837533,0,0,1.4724340438842773,0,0,0.9172800183296204
0.395087576,0,0,1.4724340438842773,0,0,0.8408399820327759
0.3963371,0,0,1.4724340438842773,0,0,0.6879600286483765
0.397586828,0,0,1.4724340438842773,0,0,0.9937199950218201
0.399503846,0,0,1.5897499322891235,0,0,0.8408399820327759
0.400096766,0,0,1.5897499322891235,0,0,0.7644000053405762
0.401338106,0,0,1.5897499322891235,0,0,0.9937199950218201
0.402587186,0,0,1.5897499322891235,0,0,0.8408399820327759
0.403837248,0,0,1.5897499322891235,0,0,0.9172800183296204
0.40508705,0,0,1.5897499322891235,0,0,0.5350799560546875
0.406337093,0,0,1.5897499322891235,0,0,0.6879600286483765
0.407587229,0,0,1.6160861253738403,0,0,0.3822000026702881
0.408836698,0,0,1.6160861253738403,0,0,1.070159912109375
0.410087407,0,0,1.6160861253738403,0,0,0.9172800183296204
0.411337117,0,0,1.6160861253738403,0,0,0.8408399820327759
0.412587197,0,0,1.6160861253738403,0,0,0.7644000053405762
0.413836981,0,0,1.6160861253738403,0,0,0.8408399820327759
0.415087098,0,0,1.6160861253738403,0,0,0.7644000053405762
0.416337234,0,0,1.6304513216018677,0,0,0.4586400091648102
0.417587018,0,0,1.6304513216018677,0,0,0.9172800183296204
0.418837209,0,0,1.6304513216018677,0,0,0.3822000026702881
0.420283102,0,0,1.6304513216018677,0,0,0.7644000053405762
0.421339814,0,0,1.6304513216018677,0,0,0.6879600286483765
0.42258706,0,0,1.6304513216018677,0,0,0.9172800183296204
0.423835696,0,0,1.6304513216018677,0,0,0.9172800183296204
0.425087498,0,0,1.5969325304031372,0,0,0.7644000053405762
0.426341875,0,0,1.5969325304031372,0,0,0.7644000053405762
0.42758777,0,0,1.5969325304031372,0,0,0.5350799560546875
0.428836979,0,0,1.5969325304031372,0,0,0.9937199950218201
0.430087152,0,0,1.5969325304031372,0,0,0.611519992351532
0.43133701,0,0,1.5969325304031372,0,0,1.070159912109375
0.432587201,0,0,1.5969325304031372,0,0,0.7644000053405762
0.433837244,0,0,1.6328455209732056,0,0,0.9172800183296204
0.435087102,0,0,1.6328455209732056,0,0,1.070159912109375
0.436336923,0,0,1.6328455209732056,0,0,0.6879600286483765
0.437586429,0,0,1.6328455209732056,0,0,0.7644000053405762
0.438837343,0,0,1.6328455209732056,0,0,0.7644000053405762
0.440087163,0,0,1.6328455209732056,0,0,0.8408399820327759
0.441337688,0,0,1.6328455209732056,0,0,0.7644000053405762
0.442587305,0,0,1.4939818382263184,0,0,1.070159912109375
0.443836996,0,0,1.4939818382263184,0,0,0.611519992351532
0.445090002,0,0,1.4939818382263184,0,0,0.9937199950218201
0.44633686,0,0,1.4939818382263184,0,0,0.9172800183296204
0.447587755,0,0,1.4939818382263184,0,0,0.9172800183296204
0.448837224,0,0,1.4939818382263184,0,0,0.6879600286483765
0.450087156,0,0,1.4939818382263184,0,0,0.9937199950218201
0.451337199,0,0,1.4939818382263184,0,0,0.7644000053405762
0.452587057,0,0,1.4748282432556152,0,0,0.9937199950218201
0.45384086,0,0,1.4748282432556152,0,0,0.6879600286483765
0.45508731,0,0,1.4748282432556152,0,0,0.9172800183296204
0.45633702,0,0,1.4748282432556152,0,0,0.9172800183296204
0.457586211,0,0,1.4748282432556152,0,0,0.8408399820327759
0.458835532,0,0,1.4748282432556152,0,0,0.9937199950218201
0.460087631,0,0,1.4748282432556152,0,0,0.611519992351532
0.461337063,0,0,1.479616641998291,0,0,1.070159912109375
0.462660086,0,0,1.479616641998291,0,0,0.5350799560546875
0.463849408,0,0,1.479616641998291,0,0,0.8408399820327759
0.465096877,0,0,1.479616641998291,0,0,0.8408399820327759
0.466337827,0,0,1.479616641998291,0,0,0.8408399820327759
0.467587241,0,0,1.479616641998291,0,0,0.8408399820327759
0.468837173,0,0,1.479616641998291,0,0,0.6879600286483765
0.470088068,0,0,1.37906014919281,0,0,0.6879600286483765
0.471337185,0,0,1.37906014919281,0,0,0.4586400091648102
0.472587284,0,0,1.37906014919281,0,0,0.6879600286483765
0.473836623,0,0,1.37906014919281,0,0,0.7644000053405762
0.475115832,0,0,1.37906014919281,0,0,0.8408399820327759
0.476337209,0,0,1.37906014919281,0,0,0.7644000053405762
0.477586845,0,0,1.37906014919281,0,0,0.9172800183296204
0.478836295,0,0,1.4173674583435059,0,0,1.1466000080108643
0.480085949,0,0,1.4173674583435059,0,0,0.7644000053405762
0.481337455,0,0,1.4173674583435059,0,0,0.7644000053405762
0.482587202,0,0,1.4173674583435059,0,0,0.7644000053405762
0.483837005,0,0,1.4173674583435059,0,0,0.9172800183296204
0.485086974,0,0,1.4173674583435059,0,0,0.8408399820327759
0.486337424,0,0,1.4173674583435059,0,0,0.9172800183296204
0.48758643,0,0,1.4652514457702637,0,0,0.9172800183296204
0.488836418,0,0,1.4652514457702637,0,0,0.9172800183296204
0.490087239,0,0,1.4652514457702637,0,0,0.7644000053405762
0.491336985,0,0,1.4652514457702637,0,0,0.6879600286483765
0.492587343,0,0,1.4652514457702637,0,0,0.7644000053405762
0.493837127,0,0,1.4652514457702637,0,0,0.9172800183296204
0.4950873,0,0,1.4652514457702637,0,0,0.611519992351532
0.496337047,0,0,1.4652514457702637,0,0,0.8408399820327759
0.497587071,0,0,1.5705963373184204,0,0,0.6879600286483765
0.498837077,0,0,1.5705963373184204,0,0,0.7644000053405762
0.500086991,0,0,1.5705963373184204,0,0,0.6879600286483765
0.501335293,0,0,1.5705963373184204,0,0,0.8408399820327759
0.502586151,0,0,1.5705963373184204,0,0,0.611519992351532
0.503840286,0,0,1.5705963373184204,0,0,0.611519992351532
0.505087107,0,0,1.5705963373184204,0,0,0.7644000053405762
0.506337113,0,0,1.6927006244659424,0,0,0.6879600286483765
0.507586953,0,0,1.6927006244659424,0,0,0.9937199950218201
0.508836996,0,0,1.6927006244659424,0,0,0.9172800183296204
0.51008728,0,0,1.6927006244659424,0,0,0.9172800183296204
0.511337045,0,0,1.6927006244659424,0,0,0.6879600286483765
0.512586847,0,0,1.6927006244659424,0,0,0.8408399820327759
0.513838076,0,0,1.6927006244659424,0,0,0.8408399820327759
0.515087563,0,0,1.6519991159439087,0,0,0.611519992351532
0.516337125,0,0,1.6519991159439087,0,0,0.8408399820327759
0.517587464,0,0,1.6519991159439087,0,0,0.8408399820327759
0.518837507,0,0,1.6519991159439087,0,0,0.9172800183296204
0.520087328,0,0,1.6519991159439087,0,0,0.9172800183296204
0.521336112,0,0,1.6519991159439087,0,0,1.223039984703064
0.522585933,0,0,1.6519991159439087,0,0,0.9937199950218201
0.523836013,0,0,1.6424223184585571,0,0,0.8408399820327759
0.525088037,0,0,1.6424223184585571,0,0,0.7644000053405762
0.526337303,0,0,1.6424223184585571,0,0,0.8408399820327759
0.527587216,0,0,1.6424223184585571,0,0,0.4586400091648102
0.528837167,0,0,1.6424223184585571,0,0,0.9937199950218201
0.530085321,0,0,1.6424223184585571,0,0,1.375920057296753
0.531337364,0,0,1.6424223184585571,0,0,0.8408399820327759
0.532587,0,0,1.580173134803772,0,0,0.9937199950218201
0.533837135,0,0,1.580173134803772,0,0,0.9172800183296204
0.53508716,0,0,1.580173134803772,0,0,0.8408399820327759
0.536337147,0,0,1.580173134803772,0,0,0.6879600286483765
0.537587116,0,0,1.580173134803772,0,0,0.8408399820327759
0.538836993,0,0,1.580173134803772,0,0,0.7644000053405762
0.540086888,0,0,1.580173134803772,0,0,0.611519992351532
0.541336968,0,0,1.580173134803772,0,0,0.7644000053405762
0.542588122,0,0,1.4508862495422363,0,0,1.223039984703064
0.543844017,0,0,1.4508862495422363,0,0,0.4586400091648102
0.545087227,0,0,1.4508862495422363,0,0,0.9172800183296204
0.546337066,0,0,1.4508862495422363,0,0,0.2293200045824051
0.547587035,0,0,1.4508862495422363,0,0,0.7644000053405762
0.548837023,0,0,1.4508862495422363,0,0,0.9172800183296204
0.550087473,0,0,1.4508862495422363,0,0,0.3822000026702881
0.551337053,0,0,1.400607943534851,0,0,0.9172800183296204
0.552587615,0,0,1.400607943534851,0,0,0.6879600286483765
0.553835325,0,0,1.400607943534851,0,0,1.070159912109375
0.555087219,0,0,1.400607943534851,0,0,0.7644000053405762
0.556337114,0,0,1.400607943534851,0,0,0.8408399820327759
0.557587176,0,0,1.400607943534851,0,0,0.6879600286483765
0.558836701,0,0,1.400607943534851,0,0,0.8408399820327759
0.56009741,0,0,1.3670891523361206,0,0,0.611519992351532
0.56133749,0,0,1.3670891523361206,0,0,0.6879600286483765
0.5625872,0,0,1.3670891523361206,0,0,0.8408399820327759
0.563836984,0,0,1.3670891523361206,0,0,0.9172800183296204
0.565091064,0,0,1.3670891523361206,0,0,0.9937199950218201
0.566337533,0,0,1.3670891523361206,0,0,0.7644000053405762
0.56758728,0,0,1.3670891523361206,0,0,0.8408399820327759
0.568837045,0,0,1.335964560508728,0,0,0.9172800183296204
0.570086236,0,0,1.335964560508728,0,0,0.8408399820327759
0.57133752,0,0,1.335964560508728,0,0,0.7644000053405762
0.572587397,0,0,1.335964560508728,0,0,0.6879600286483765
0.573837421,0,0,1.335964560508728,0,0,1.1466000080108643
0.575087316,0,0,1.335964560508728,0,0,0.9172800183296204
0.576337322,0,0,1.335964560508728,0,0,0.8408399820327759
0.577587254,0,0,1.3192051649093628,0,0,0.9172800183296204
0.578837131,0,0,1.3192051649093628,0,0,0.6879600286483765
0.580101229,0,0,1.3192051649093628,0,0,0.611519992351532
0.581497641,0,0,1.3192051649093628,0,0,0.8408399820327759
0.582594834,0,0,1.3192051649093628,0,0,0.2293200045824051
0.583837562,0,0,1.3192051649093628,0,0,0.6879600286483765
0.585087957,0,0,1.3192051649093628,0,0,0.9937199950218201
0.586337352,0,0,1.403002142906189,0,0,0.7644000053405762
0.587589025,0,0,1.403002142906189,0,0,0.7644000053405762
0.588836327,0,0,1.403002142906189,0,0,0.8408399820327759
0.590087648,0,0,1.403002142906189,0,0,0.8408399820327759
0.591337228,0,0,1.403002142906189,0,0,0.611519992351532
0.592587438,0,0,1.403002142906189,0,0,0.9172800183296204
0.593837314,0,0,1.403002142906189,0,0,0.611519992351532
0.595087339,0,0,1.5490485429763794,0,0,0.9172800183296204
0.596337382,0,0,1.5490485429763794,0,0,0.8408399820327759
0.597587499,0,0,1.5490485429763794,0,0,1.070159912109375
0.59883732,0,0,1.5490485429763794,0,0,0.8408399820327759
0.600087289,0,0,1.5490485429763794,0,0,0.5350799560546875
0.601337424,0,0,1.5490485429763794,0,0,0.9172800183296204
0.602586893,0,0,1.5490485429763794,0,0,1.070159912109375
0.603835585,0,0,1.5394717454910278,0,0,1.070159912109375
0.605087961,0,0,1.5394717454910278,0,0,0.8408399820327759
0.606337245,0,0,1.5394717454910278,0,0,0.9937199950218201
0.607587195,0,0,1.5394717454910278,0,0,0.6879600286483765
0.608837276,0,0,1.5394717454910278,0,0,0.9172800183296204
0.610087356,0,0,1.5394717454910278,0,0,1.070159912109375
0.611337177,0,0,1.5394717454910278,0,0,0.9937199950218201
0.612587497,0,0,1.5394717454910278,0,0,0.7644000053405762
0.613837244,0,0,1.5490485429763794,0,0,0.5350799560546875
0.615086009,0,0,1.5490485429763794,0,0,0.8408399820327759
0.616335701,0,0,1.5490485429763794,0,0,1.070159912109375
0.617587688,0,0,1.5490485429763794,0,0,0.7644000053405762
0.618837509,0,0,1.5490485429763794,0,0,0.7644000053405762
0.620089941,0,0,1.5490485429763794,0,0,0.7644000053405762
0.62133628,0,0,1.5490485429763794,0,0,0.7644000053405762
0.622586324,0,0,1.5969325304031372,0,0,1.070159912109375
0.623842626,0,0,1.5969325304031372,0,0,0.611519992351532
0.625087873,0,0,1.5969325304031372,0,0,1.070159912109375
0.626337305,0,0,1.5969325304031372,0,0,0.4586400091648102
0.627678069,0,0,1.5969325304031372,0,0,0.9937199950218201
0.62885552,0,0,1.5969325304031372,0,0,0.9937199950218201
0.630120508,0,0,1.5969325304031372,0,0,0.8408399820327759
0.63134281,0,0,1.4891934394836426,0,0,0.6879600286483765
0.632586427,0,0,1.4891934394836426,0,0,0.9937199950218201
0.633836193,0,0,1.4891934394836426,0,0,0.7644000053405762
0.63508618,0,0,1.4891934394836426,0,0,0.7644000053405762
0.636336038,0,0,1.4891934394836426,0,0,0.9172800183296204
0.637586211,0,0,1.4891934394836426,0,0,0.6879600286483765
0.638839161,0,0,1.4891934394836426,0,0,0.8408399820327759
0.640086371,0,0,1.3742717504501343,0,0,0.8408399820327759
0.641369155,0,0,1.3742717504501343,0,0,1.070159912109375
0.642587661,0,0,1.3742717504501343,0,0,0.9937199950218201
0.643836297,0,0,1.3742717504501343,0,0,1.070159912109375
0.645088321,0,0,1.3742717504501343,0,0,0.7644000053405762
0.646339161,0,0,1.3742717504501343,0,0,0.7644000053405762
0.64759137,0,0,1.3742717504501343,0,0,0.9172800183296204
0.648842784,0,0,1.4077905416488647,0,0,0.9937199950218201
0.65008929,0,0,1.4077905416488647,0,0,0.8408399820327759
0.651336018,0,0,1.4077905416488647,0,0,0.9172800183296204
0.65258595,0,0,1.4077905416488647,0,0,0.9172800183296204
0.653836363,0,0,1.4077905416488647,0,0,0.9937199950218201
0.655085907,0,0,1.4077905416488647,0,0,0.9937199950218201
0.656335931,0,0,1.4077905416488647,0,0,0.7644000053405762
0.657586141,0,0,1.4389152526855469,0,0,0.6879600286483765
0.658841017,0,0,1.4389152526855469,0,0,0.9172800183296204
0.660086468,0,0,1.4389152526855469,0,0,0.611519992351532
0.661337215,0,0,1.4389152526855469,0,0,0.8408399820327759
0.66258785,0,0,1.4389152526855469,0,0,0.6879600286483765
0.663841078,0,0,1.4389152526855469,0,0,0.9937199950218201
0.665086918,0,0,1.4389152526855469,0,0,0.8408399820327759
0.666334831,0,0,1.2737152576446533,0,0,0.5350799560546875
0.66758456,0,0,1.2737152576446533,0,0,0.6879600286483765
0.668834473,0,0,1.2737152576446533,0,0,0.8408399820327759
0.670086831,0,0,1.2737152576446533,0,0,0.611519992351532
0.671335948,0,0,1.2737152576446533,0,0,0.9172800183296204
0.67258601,0,0,1.2737152576446533,0,0,0.9937199950218201
0.673847219,0,0,1.2737152576446533,0,0,1.070159912109375
0.67508917,0,0,1.338358759880066,0,0,0.8408399820327759
0.676338213,0,0,1.338358759880066,0,0,0.7644000053405762
0.677590293,0,0,1.338358759880066,0,0,0.7644000053405762
0.678840855,0,0,1.338358759880066,0,0,0.6879600286483765
0.680086176,0,0,1.338358759880066,0,0,0.9172800183296204
0.681336145,0,0,1.338358759880066,0,0,0.5350799560546875
0.682585891,0,0,1.338358759880066,0,0,0.9172800183296204
0.683838323,0,0,1.338358759880066,0,0,0.7644000053405762
0.68508844,0,0,1.3862427473068237,0,0,0.7644000053405762
0.686338002,0,0,1.3862427473068237,0,0,0.8408399820327759
0.687588045,0,0,1.3862427473068237,0,0,0.7644000053405762
0.688841421,0,0,1.3862427473068237,0,0,0.7644000053405762
0.690092205,0,0,1.3862427473068237,0,0,0.7644000053405762
0.691339897,0,0,1.3862427473068237,0,0,0.9937199950218201
0.692586032,0,0,1.3862427473068237,0,0,1.070159912109375
0.693835927,0,0,1.558625340461731,0,0,1.070159912109375
0.695085767,0,0,1.558625340461731,0,0,0.8408399820327759
0.696335847,0,0,1.558625340461731,0,0,0.8408399820327759
0.697589705,0,0,1.558625340461731,0,0,0.7644000053405762
0.698836137,0,0,1.558625340461731,0,0,0.8408399820327759
0.70008592,0,0,1.558625340461731,0,0,0.8408399820327759
0.701335963,0,0,1.558625340461731,0,0,0.8408399820327759
0.702585784,0,0,1.5107412338256836,0,0,0.6879600286483765
0.703836179,0,0,1.5107412338256836,0,0,0.6879600286483765
0.705087759,0,0,1.5107412338256836,0,0,1.1466000080108643
0.706339228,0,0,1.5107412338256836,0,0,0.9172800183296204
0.707590845,0,0,1.5107412338256836,0,0,0.8408399820327759
0.708838574,0,0,1.5107412338256836,0,0,0.7644000053405762
0.710089709,0,0,1.5107412338256836,0,0,1.070159912109375
0.711335827,0,0,1.4389152526855469,0,0,1.070159912109375
0.71258974,0,0,1.4389152526855469,0,0,0.4586400091648102
0.713928893,0,0,1.4389152526855469,0,0,0.5350799560546875
0.715088678,0,0,1.4389152526855469,0,0,0.6879600286483765
0.716337443,0,0,1.4389152526855469,0,0,0.7644000053405762
0.717587542,0,0,1.4389152526855469,0,0,0.7644000053405762
0.718837492,0,0,1.4389152526855469,0,0,0.8408399820327759
0.720087295,0,0,1.5682021379470825,0,0,0.9172800183296204
0.72133706,0,0,1.5682021379470825,0,0,0.5350799560546875
0.722586474,0,0,1.5682021379470825,0,0,0.6879600286483765
0.723835813,0,0,1.5682021379470825,0,0,0.9937199950218201
0.725091337,0,0,1.5682021379470825,0,0,0.611519992351532
0.726337251,0,0,1.5682021379470825,0,0,0.9937199950218201
0.727587164,0,0,1.5682021379470825,0,0,0.9937199950218201
0.728837004,0,0,1.4939818382263184,0,0,0.9937199950218201
0.730087065,0,0,1.4939818382263184,0,0,0.7644000053405762
0.731337201,0,0,1.4939818382263184,0,0,0.6879600286483765
0.732586929,0,0,1.4939818382263184,0,0,0.8408399820327759
0.733837139,0,0,1.4939818382263184,0,0,0.6879600286483765
0.735086904,0,0,1.4939818382263184,0,0,0.9172800183296204
0.73634054,0,0,1.4939818382263184,0,0,0.6879600286483765
0.737586879,0,0,1.4939818382263184,0,0,1.1466000080108643
0.738835756,0,0,1.4245500564575195,0,0,0.611519992351532
0.740087558,0,0,1.4245500564575195,0,0,1.223039984703064
0.741337157,0,0,1.4245500564575195,0,0,0.8408399820327759
0.742586774,0,0,1.4245500564575195,0,0,0.9172800183296204
0.743837206,0,0,1.4245500564575195,0,0,0.8408399820327759
0.745087027,0,0,1.4245500564575195,0,0,0.6879600286483765
0.746337218,0,0,1.4245500564575195,0,0,0.6879600286483765
0.747586909,0,0,1.3527239561080933,0,0,0.7644000053405762
0.748837026,0,0,1.3527239561080933,0,0,0.9172800183296204
0.750087107,0,0,1.3527239561080933,0,0,0.7644000053405762
0.751336483,0,0,1.3527239561080933,0,0,1.070159912109375
0.752585304,0,0,1.3527239561080933,0,0,0.9172800183296204
0.753841865,0,0,1.3527239561080933,0,0,0.4586400091648102
0.75508739,0,0,1.3527239561080933,0,0,0.611519992351532
0.75633684,0,0,1.316810965538025,0,0,0.8408399820327759
0.757587087,0,0,1.316810965538025,0,0,0.6879600286483765
0.758836945,0,0,1.316810965538025,0,0,0.7644000053405762
0.760087044,0,0,1.316810965538025,0,0,0.6879600286483765
0.761337013,0,0,1.316810965538025,0,0,0.6879600286483765
0.762588926,0,0,1.316810965538025,0,0,0.8408399820327759
0.763836173,0,0,1.316810965538025,0,0,0.9937199950218201
0.765093123,0,0,1.2641384601593018,0,0,0.611519992351532
0.76633737,0,0,1.2641384601593018,0,0,0.4586400091648102
0.76758721,0,0,1.2641384601593018,0,0,1.1466000080108643
0.768837179,0,0,1.2641384601593018,0,0,0.8408399820327759
0.770086851,0,0,1.2641384601593018,0,0,0.7644000053405762
0.771336931,0,0,1.2641384601593018,0,0,0.8408399820327759
0.77258716,0,0,1.2641384601593018,0,0,0.8408399820327759
0.773837703,0,0,1.455674648284912,0,0,0.8408399820327759
0.775089079,0,0,1.455674648284912,0,0,0.4586400091648102
0.776337511,0,0,1.455674648284912,0,0,0.8408399820327759
0.777587258,0,0,1.455674648284912,0,0,0.7644000053405762
0.778837375,0,0,1.455674648284912,0,0,0.9172800183296204
0.780087011,0,0,1.455674648284912,0,0,0.9937199950218201
0.781337165,0,0,1.455674648284912,0,0,0.7644000053405762
0.782587004,0,0,1.455674648284912,0,0,0.7644000053405762
0.783836955,0,0,1.4748282432556152,0,0,0.8408399820327759
0.785086424,0,0,1.4748282432556152,0,0,0.9172800183296204
0.786335671,0,0,1.4748282432556152,0,0,0.6879600286483765
0.787587288,0,0,1.4748282432556152,0,0,0.9937199950218201
0.78883709,0,0,1.4748282432556152,0,0,0.6879600286483765
0.79008717,0,0,1.4748282432556152,0,0,0.8408399820327759
0.791337232,0,0,1.4748282432556152,0,0,0.8408399820327759
0.792587053,0,0,1.5203180313110352,0,0,0.9172800183296204
0.793837281,0,0,1.5203180313110352,0,0,0.8408399820327759
0.795086861,0,0,1.5203180313110352,0,0,0.6879600286483765
0.796337015,0,0,1.5203180313110352,0,0,0.8408399820327759
0.797587095,0,0,1.5203180313110352,0,0,0.6879600286483765
0.798837268,0,0,1.5203180313110352,0,0,0.7644000053405762
0.800086459,0,0,1.5203180313110352,0,0,0.9172800183296204
0.801337891,0,0,1.577778935432434,0,0,0.5350799560546875
0.802587416,0,0,1.577778935432434,0,0,0.8408399820327759
0.803843829,0,0,1.577778935432434,0,0,0.8408399820327759
0.805087354,0,0,1.577778935432434,0,0,0.6879600286483765
0.806337267,0,0,1.577778935432434,0,0,0.7644000053405762
0.807587422,0,0,1.577778935432434,0,0,0.8408399820327759
0.808837187,0,0,1.577778935432434,0,0,0.8408399820327759
0.810087174,0,0,1.577778935432434,0,0,0.6879600286483765
0.811338829,0,0,1.577778935432434,0,0,1.070159912109375
0.812585686,0,0,1.577778935432434,0,0,0.611519992351532
0.813853618,0,0,1.577778935432434,0,0,0.9937199950218201
0.815088143,0,0,1.577778935432434,0,0,0.9172800183296204
0.816337427,0,0,1.577778935432434,0,0,0.9172800183296204
0.817587211,0,0,1.577778935432434,0,0,0.9937199950218201
0.81883742,0,0,1.577778935432434,0,0,0.8408399820327759
0.820087241,0,0,1.5275006294250488,0,0,0.9172800183296204
0.821337488,0,0,1.5275006294250488,0,0,0.6879600286483765
0.82258729,0,0,1.5275006294250488,0,0,0.7644000053405762
0.82383663,0,0,1.5275006294250488,0,0,0.5350799560546875
0.825087376,0,0,1.5275006294250488,0,0,1.070159912109375
0.826337364,0,0,1.5275006294250488,0,0,0.8408399820327759
0.827587333,0,0,1.5275006294250488,0,0,0.8408399820327759
0.828838154,0,0,1.4987702369689941,0,0,0.9937199950218201
0.830096623,0,0,1.4987702369689941,0,0,0.5350799560546875
0.831363906,0,0,1.4987702369689941,0,0,0.8408399820327759
0.832620561,0,0,1.4987702369689941,0,0,0.7644000053405762
0.833839104,0,0,1.4987702369689941,0,0,0.611519992351532
0.835087054,0,0,1.4987702369689941,0,0,0.6879600286483765
0.836337264,0,0,1.4987702369689941,0,0,0.7644000053405762
0.837587178,0,0,1.3958195447921753,0,0,0.6879600286483765
0.838836091,0,0,1.3958195447921753,0,0,1.070159912109375
0.840086838,0,0,1.3958195447921753,0,0,0.6879600286483765
0.841337362,0,0,1.3958195447921753,0,0,0.9172800183296204
0.842586998,0,0,1.3958195447921753,0,0,0.611519992351532
0.843837134,0,0,1.3958195447921753,0,0,0.8408399820327759
0.845087047,0,0,1.3958195447921753,0,0,0.611519992351532
0.846336905,0,0,1.4389152526855469,0,0,0.7644000053405762
0.84758693,0,0,1.4389152526855469,0,0,1.1466000080108643
0.848836825,0,0,1.4389152526855469,0,0,0.9937199950218201
0.850086201,0,0,1.4389152526855469,0,0,0.6879600286483765
0.851335337,0,0,1.4389152526855469,0,0,0.8408399820327759
0.852591324,0,0,1.4389152526855469,0,0,0.7644000053405762
0.853837515,0,0,1.4389152526855469,0,0,0.7644000053405762
0.855087133,0,0,1.37906014919281,0,0,0.7644000053405762
0.856337139,0,0,1.37906014919281,0,0,0.611519992351532
0.857586904,0,0,1.37906014919281,0,0,0.6879600286483765
0.858837114,0,0,1.37906014919281,0,0,0.8408399820327759
0.860087009,0,0,1.37906014919281,0,0,0.9937199950218201
0.861337033,0,0,1.37906014919281,0,0,0.7644000053405762
0.862586947,0,0,1.37906014919281,0,0,0.611519992351532
0.863836045,0,0,1.37906014919281,0,0,0.7644000053405762
0.865091736,0,0,1.2665326595306396,0,0,0.6879600286483765
0.866337409,0,0,1.2665326595306396,0,0,1.070159912109375
0.867587045,0,0,1.2665326595306396,0,0,0.9937199950218201
0.868837162,0,0,1.2665326595306396,0,0,1.070159912109375
0.870087168,0,0,1.2665326595306396,0,0,0.6879600286483765
0.871336804,0,0,1.2665326595306396,0,0,1.070159912109375
0.872586921,0,0,1.2665326595306396,0,0,1.1466000080108643
0.873836334,0,0,1.3239935636520386,0,0,0.9172800183296204
0.875087322,0,0,1.3239935636520386,0,0,0.5350799560546875
0.876337513,0,0,1.3239935636520386,0,0,0.611519992351532
0.877586834,0,0,1.3239935636520386,0,0,0.611519992351532
0.878837118,0,0,1.3239935636520386,0,0,0.5350799560546875
0.880087179,0,0,1.3239935636520386,0,0,0.6879600286483765
0.881337482,0,0,1.3239935636520386,0,0,0.7644000053405762
0.882587062,0,0,1.37906014919281,0,0,0.7644000053405762
0.883837123,0,0,1.37906014919281,0,0,0.9172800183296204
0.885089018,0,0,1.37906014919281,0,0,0.9937199950218201
0.886336061,0,0,1.37906014919281,0,0,0.6879600286483765
0.887587345,0,0,1.37906014919281,0,0,0.9172800183296204
0.888837129,0,0,1.37906014919281,0,0,0.305759996175766
0.89008708,0,0,1.37906014919281,0,0,0.8408399820327759
0.891339512,0,0,1.5059528350830078,0,0,0.611519992351532
0.892587518,0,0,1.5059528350830078,0,0,0.9937199950218201
0.893837005,0,0,1.5059528350830078,0,0,0.9172800183296204
0.89508703,0,0,1.5059528350830078,0,0,0.7644000053405762
0.896337073,0,0,1.5059528350830078,0,0,0.611519992351532
0.897587023,0,0,1.5059528350830078,0,0,0.9172800183296204
0.898837066,0,0,1.5059528350830078,0,0,0.8408399820327759
0.900085795,0,0,1.5131354331970215,0,0,0.2293200045824051
0.901337375,0,0,1.5131354331970215,0,0,0.8408399820327759
0.902587214,0,0,1.5131354331970215,0,0,0.5350799560546875
0.903837053,0,0,1.5131354331970215,0,0,0.9937199950218201
0.905086911,0,0,1.5131354331970215,0,0,0.9172800183296204
0.906337047,0,0,1.5131354331970215,0,0,0.611519992351532
0.90758709,0,0,1.5131354331970215,0,0,1.070159912109375
0.908837059,0,0,1.5131354331970215,0,0,0.7644000053405762
0.910087065,0,0,1.3742717504501343,0,0,1.070159912109375
0.911336849,0,0,1.3742717504501343,0,0,0.611519992351532
0.912586911,0,0,1.3742717504501343,0,0,0.9172800183296204
0.913835731,0,0,1.3742717504501343,0,0,0.8408399820327759
0.915090793,0,0,1.3742717504501343,0,0,1.070159912109375
0.916337336,0,0,1.3742717504501343,0,0,0.9172800183296204
0.917587268,0,0,1.3742717504501343,0,0,0.7644000053405762
0.918837719,0,0,1.5514427423477173,0,0,0.611519992351532
0.920087225,0,0,1.5514427423477173,0,0,0.6879600286483765
0.921335916,0,0,1.5514427423477173,0,0,0.3822000026702881
0.922585792,0,0,1.5514427423477173,0,0,0.8408399820327759
0.923836113,0,0,1.5514427423477173,0,0,0.9172800183296204
0.925087786,0,0,1.5514427423477173,0,0,0.7644000053405762
0.926337014,0,0,1.5514427423477173,0,0,0.5350799560546875
0.927586928,0,0,1.5155296325683594,0,0,0.7644000053405762
0.928835674,0,0,1.5155296325683594,0,0,0.8408399820327759
0.930089291,0,0,1.5155296325683594,0,0,0.5350799560546875
0.931337131,0,0,1.5155296325683594,0,0,0.8408399820327759
0.932587063,0,0,1.5155296325683594,0,0,0.305759996175766
0.933837087,0,0,1.5155296325683594,0,0,0.9172800183296204
0.935087427,0,0,1.5155296325683594,0,0,1.070159912109375
0.936337007,0,0,1.3479355573654175,0,0,0.7644000053405762
0.937587013,0,0,1.3479355573654175,0,0,0.7644000053405762
0.938837037,0,0,1.3479355573654175,0,0,0.8408399820327759
0.940086877,0,0,1.3479355573654175,0,0,0.8408399820327759
0.941337198,0,0,1.3479355573654175,0,0,0.3822000026702881
0.942592741,0,0,1.3479355573654175,0,0,1.070159912109375
0.943837358,0,0,1.3479355573654175,0,0,0.7644000053405762
0.945087049,0,0,1.3742717504501343,0,0,1.070159912109375
0.946337018,0,0,1.3742717504501343,0,0,0.6879600286483765
0.947586765,0,0,1.3742717504501343,0,0,0.9172800183296204
0.948836938,0,0,1.3742717504501343,0,0,0.7644000053405762
0.950087147,0,0,1.3742717504501343,0,0,1.070159912109375
0.951335542,0,0,1.3742717504501343,0,0,0.9172800183296204
0.952587234,0,0,1.3742717504501343,0,0,0.9937199950218201
0.953836758,0,0,1.3742717504501343,0,0,0.8408399820327759
0.955087023,0,0,1.3982137441635132,0,0,0.7644000053405762
0.956336807,0,0,1.3982137441635132,0,0,0.9937199950218201
0.957586795,0,0,1.3982137441635132,0,0,0.6879600286483765
0.958836949,0,0,1.3982137441635132,0,0,0.9172800183296204
0.960086973,0,0,1.3982137441635132,0,0,0.9937199950218201
0.96133698,0,0,1.3982137441635132,0,0,0.611519992351532
0.962586189,0,0,1.3982137441635132,0,0,0.7644000053405762
0.963835177,0,0,1.338358759880066,0,0,0.5350799560546875
0.965089609,0,0,1.338358759880066,0,0,0.8408399820327759
0.966337078,0,0,1.338358759880066,0,0,0.9172800183296204
0.967587399,0,0,1.338358759880066,0,0,1.1466000080108643
0.968839127,0,0,1.338358759880066,0,0,0.6879600286483765
0.9700873,0,0,1.338358759880066,0,0,0.5350799560546875
0.971336972,0,0,1.338358759880066,0,0,0.8408399820327759
0.972586793,0,0,1.3646949529647827,0,0,0.6879600286483765
0.973840929,0,0,1.3646949529647827,0,0,0.611519992351532
0.975087509,0,0,1.3646949529647827,0,0,0.9172800183296204
0.976336867,0,0,1.3646949529647827,0,0,0.4586400091648102
0.977586503,0,0,1.3646949529647827,0,0,0.8408399820327759
0.978837083,0,0,1.3646949529647827,0,0,0.7644000053405762
0.980087015,0,0,1.3646949529647827,0,0,0.8408399820327759
0.981337372,0,0,1.4844050407409668,0,0,0.6879600286483765
0.98258699,0,0,1.4844050407409668,0,0,0.7644000053405762
0.983836922,0,0,1.4844050407409668,0,0,0.9937199950218201
0.98508715,0,0,1.4844050407409668,0,0,0.8408399820327759
0.986336804,0,0,1.4844050407409668,0,0,0.8408399820327759
0.987586977,0,0,1.4844050407409668,0,0,0.7644000053405762
0.988836946,0,0,1.4844050407409668,0,0,0.9937199950218201
0.990086915,0,0,1.5155296325683594,0,0,0.7644000053405762
0.99133655,0,0,1.5155296325683594,0,0,0.7644000053405762
0.992586242,0,0,1.5155296325683594,0,0,0.8408399820327759
0.993837414,0,0,1.5155296325683594,0,0,0.8408399820327759
0.995087143,0,0,1.5155296325683594,0,0,0.611519992351532
0.996337241,0,0,1.5155296325683594,0,0,0.5350799560546875
0.997587247,0,0,1.5155296325683594,0,0,0.9937199950218201
0.998837105,0,0,1.53707754611969,0,0,0.6879600286483765
1.000087222,0,0,1.53707754611969,0,0,0.9172800183296204
1.001339247,0,0,1.53707754611969,0,0,0.9937199950218201
1.002587309,0,0,1.53707754611969,0,0,0.9937199950218201
1.003836926,0,0,1.53707754611969,0,0,0.9937199950218201
1.005085172,0,0,1.53707754611969,0,0,1.1466000080108643
1.006337049,0,0,1.53707754611969,0,0,0.9172800183296204
1.007590814,0,0,1.5059528350830078,0,0,0.8408399820327759
1.008836931,0,0,1.5059528350830078,0,0,0.611519992351532
1.010087123,0,0,1.5059528350830078,0,0,0.7644000053405762
1.01133711,0,0,1.5059528350830078,0,0,0.9937199950218201
1.012587024,0,0,1.5059528350830078,0,0,0.9172800183296204
1.013836937,0,0,1.5059528350830078,0,0,1.2994799613952637
1.015087147,0,0,1.5849615335464478,0,0,0.8408399820327759
1.016336838,0,0,1.5849615335464478,0,0,0.8408399820327759
1.017596307,0,0,1.5849615335464478,0,0,0.611519992351532
1.018836628,0,0,1.5849615335464478,0,0,0.7644000053405762
1.020086282,0,0,1.5849615335464478,0,0,0.305759996175766
1.021337232,0,0,1.5849615335464478,0,0,0.8408399820327759
1.022592924,0,0,1.5849615335464478,0,0,0.9172800183296204
1.0238368,0,0,1.434126853942871,0,0,0.7644000053405762
1.025086769,0,0,1.434126853942871,0,0,0.6879600286483765
1.026337034,0,0,1.434126853942871,0,0,0.6879600286483765
1.027586837,0,0,1.434126853942871,0,0,0.5350799560546875
1.028836935,0,0,1.434126853942871,0,0,0.611519992351532
1.030087201,0,0,1.434126853942871,0,0,1.070159912109375
1.031336707,0,0,1.434126853942871,0,0,0.4586400091648102
1.0325869540000001,0,0,1.3766659498214722,0,0,0.9937199950218201
1.0338357,0,0,1.3766659498214722,0,0,0.7644000053405762
1.035085392,0,0,1.3766659498214722,0,0,0.6879600286483765
1.036337638,0,0,1.3766659498214722,0,0,0.9172800183296204
1.037587255,0,0,1.3766659498214722,0,0,0.611519992351532
1.038836965,0,0,1.3766659498214722,0,0,0.6879600286483765
1.040086916,0,0,1.3766659498214722,0,0,0.7644000053405762
1.04133694,0,0,1.3766659498214722,0,0,1.1466000080108643
1.042586928,0,0,1.4077905416488647,0,0,0.9172800183296204
1.043836934,0,0,1.4077905416488647,0,0,0.9937199950218201
1.045085329,0,0,1.4077905416488647,0,0,0.611519992351532
1.046339501,0,0,1.4077905416488647,0,0,0.9172800183296204
1.047587415,0,0,1.4077905416488647,0,0,0.7644000053405762
1.048837106,0,0,1.4077905416488647,0,0,0.6879600286483765
1.050087057,0,0,1.4077905416488647,0,0,0.6879600286483765
1.051336822,0,0,1.3694833517074585,0,0,0.9172800183296204
1.052587161,0,0,1.3694833517074585,0,0,0.6879600286483765
1.053842482,0,0,1.3694833517074585,0,0,0.9937199950218201
1.055087673,0,0,1.3934253454208374,0,0,0.6879600286483765
1.056335994,0,0,1.3934253454208374,0,0,0.6879600286483765
1.057586185,0,0,1.3934253454208374,0,0,0.8408399820327759
1.05883758,0,0,1.3934253454208374,0,0,0.7644000053405762
1.060086883,0,0,1.3934253454208374,0,0,0.8408399820327759
1.061337037,0,0,1.3934253454208374,0,0,0.9172800183296204
1.062586876,0,0,1.400607943534851,0,0,0.7644000053405762
1.063837142,0,0,1.400607943534851,0,0,0.5350799560546875
1.065091018,0,0,1.400607943534851,0,0,0.9172800183296204
1.06633758,0,0,1.400607943534851,0,0,1.223039984703064
1.067587419,0,0,1.400607943534851,0,0,0.9172800183296204
1.068835999,0,0,1.400607943534851,0,0,1.070159912109375
1.070085857,0,0,1.400607943534851,0,0,0.611519992351532
1.071337567,0,0,1.5083470344543457,0,0,0.611519992351532
1.072587295,0,0,1.5083470344543457,0,0,0.4586400091648102
1.073837783,0,0,1.5083470344543457,0,0,1.070159912109375
1.075087437,0,0,1.5083470344543457,0,0,0.5350799560546875
1.076337461,0,0,1.5083470344543457,0,0,0.9172800183296204
1.077587375,0,0,1.5921441316604614,0,0,0.7644000053405762
1.078835733,0,0,1.5921441316604614,0,0,1.070159912109375
1.080085998,0,0,1.5921441316604614,0,0,1.070159912109375
1.081353393,0,0,1.5921441316604614,0,0,0.9172800183296204
1.082725342,0,0,1.5921441316604614,0,0,0.9937199950218201
1.083843775,0,0,1.6136919260025024,0,0,0.3822000026702881
1.085093244,0,0,1.6136919260025024,0,0,0.9937199950218201
1.086337491,0,0,1.6136919260025024,0,0,0.9937199950218201
1.0875873679999999,0,0,1.6136919260025024,0,0,1.070159912109375
1.088837225,0,0,1.6136919260025024,0,0,0.6879600286483765
1.090087306,0,0,1.6136919260025024,0,0,0.9937199950218201
1.091337312,0,0,1.6136919260025024,0,0,1.1466000080108643
1.092586651,0,0,1.6328455209732056,0,0,0.6879600286483765
1.093837509,0,0,1.6328455209732056,0,0,0.6879600286483765
1.095087441,0,0,1.6328455209732056,0,0,0.8408399820327759
1.096337262,0,0,1.6328455209732056,0,0,0.5350799560546875
1.097587583,0,0,1.6328455209732056,0,0,0.9172800183296204
1.098837737,0,0,1.6328455209732056,0,0,0.8408399820327759
1.100087335,0,0,1.6328455209732056,0,0,0.7644000053405762
1.10133736,0,0,1.4891934394836426,0,0,0.611519992351532
1.102604755,0,0,1.4891934394836426,0,0,0.9937199950218201
1.103837372,0,0,1.4891934394836426,0,0,1.070159912109375
1.10508573,0,0,1.4891934394836426,0,0,0.3822000026702881
1.10633631,0,0,1.4891934394836426,0,0,0.8408399820327759
1.107587557,0,0,1.4891934394836426,0,0,0.611519992351532
1.108837081,0,0,1.4891934394836426,0,0,0.9172800183296204
1.11008755,0,0,1.41257905960083,0,0,1.1466000080108643
1.111337075,0,0,1.41257905960083,0,0,1.070159912109375
1.112587266,0,0,1.41257905960083,0,0,0.9937199950218201
1.113837161,0,0,1.41257905960083,0,0,0.611519992351532
1.11509063,0,0,1.41257905960083,0,0,0.6879600286483765
1.1163380059999999,0,0,1.41257905960083,0,0,0.7644000053405762
1.117585957,0,0,1.41257905960083,0,0,0.9172800183296204
1.118835537,0,0,1.3838485479354858,0,0,0.7644000053405762
1.120087358,0,0,1.3838485479354858,0,0,0.9172800183296204
1.121336123,0,0,1.3838485479354858,0,0,0.9172800183296204
1.122586037,0,0,1.3838485479354858,0,0,0.9172800183296204
1.123839135,0,0,1.3838485479354858,0,0,0.6879600286483765
1.125088067,0,0,1.3838485479354858,0,0,0.8408399820327759
1.126337203,0,0,1.3838485479354858,0,0,0.8408399820327759
1.127587376,0,0,1.3886369466781616,0,0,0.7644000053405762
1.128837419,0,0,1.3886369466781616,0,0,0.6879600286483765
1.130087703,0,0,1.3886369466781616,0,0,0.9172800183296204
1.131337394,0,0,1.4460978507995605,0,0,1.2994799613952637
1.132587307,0,0,1.4460978507995605,0,0,0.8408399820327759
1.133835961,0,0,1.4460978507995605,0,0,0.6879600286483765
1.135086301,0,0,1.4460978507995605,0,0,0.7644000053405762
1.136336214,0,0,1.4460978507995605,0,0,0.7644000053405762
1.137587591,0,0,1.4460978507995605,0,0,0.6879600286483765
1.138836912,0,0,1.4460978507995605,0,0,0.611519992351532
1.14008751,0,0,1.4460978507995605,0,0,0.6879600286483765
1.141336313,0,0,1.5418659448623657,0,0,0.7644000053405762
1.142587226,0,0,1.5418659448623657,0,0,0.9172800183296204
1.143837121,0,0,1.5418659448623657,0,0,0.9172800183296204
1.14508696,0,0,1.5418659448623657,0,0,0.7644000053405762
1.146336744,0,0,1.5418659448623657,0,0,0.8408399820327759
1.147586695,0,0,1.5418659448623657,0,0,0.8408399820327759
1.148923663,0,0,1.5418659448623657,0,0,0.9172800183296204
1.150087336,0,0,1.6208745241165161,0,0,0.9172800183296204
1.15133749,0,0,1.6208745241165161,0,0,0.611519992351532
1.152587163,0,0,1.6208745241165161,0,0,0.7644000053405762
1.153837336,0,0,1.6208745241165161,0,0,0.5350799560546875
1.155087286,0,0,1.6208745241165161,0,0,1.1466000080108643
1.156337052,0,0,1.6208745241165161,0,0,0.5350799560546875
1.157587169,0,0,1.6208745241165161,0,0,0.6879600286483765
1.158837101,0,0,1.577778935432434,0,0,0.8408399820327759
1.160086144,0,0,1.577778935432434,0,0,0.7644000053405762
1.161337261,0,0,1.577778935432434,0,0,0.8408399820327759
1.162590008,0,0,1.577778935432434,0,0,0.9937199950218201
1.163837199,0,0,1.577778935432434,0,0,0.9172800183296204
1.16511839,0,0,1.577778935432434,0,0,0.4586400091648102
1.166339896,0,0,1.577778935432434,0,0,1.1466000080108643
1.167586551,0,0,1.5107412338256836,0,0,0.9172800183296204
1.168836186,0,0,1.5107412338256836,0,0,0.7644000053405762
1.1700861,0,0,1.5107412338256836,0,0,0.6879600286483765
1.171336013,0,0,1.5107412338256836,0,0,0.611519992351532
1.172586075,0,0,1.5107412338256836,0,0,0.6879600286483765
1.173835821,0,0,1.5107412338256836,0,0,0.9937199950218201
1.175085902,0,0,1.5107412338256836,0,0,0.7644000053405762
1.176336093,0,0,1.5490485429763794,0,0,0.5350799560546875
1.177586173,0,0,1.5490485429763794,0,0,0.9937199950218201
1.178835846,0,0,1.5490485429763794,0,0,0.9937199950218201
1.180086037,0,0,1.5490485429763794,0,0,0.8408399820327759
1.181336024,0,0,1.5490485429763794,0,0,0.8408399820327759
1.182595697,0,0,1.5490485429763794,0,0,1.070159912109375
1.183837611,0,0,1.5490485429763794,0,0,0.5350799560546875
1.1850865800000001,0,0,1.3862427473068237,0,0,1.070159912109375
1.186335974,0,0,1.3862427473068237,0,0,0.7644000053405762
1.187585666,0,0,1.3862427473068237,0,0,0.9937199950218201
1.188835801,0,0,1.3862427473068237,0,0,0.7644000053405762
1.190086011,0,0,1.3862427473068237,0,0,0.9172800183296204
1.191335739,0,0,1.3862427473068237,0,0,0.9172800183296204
1.192585819,0,0,1.3862427473068237,0,0,0.6879600286483765
1.193835826,0,0,1.3335703611373901,0,0,1.1466000080108643
1.195082332,0,0,1.3335703611373901,0,0,0.305759996175766
1.196340689,0,0,1.3335703611373901,0,0,0.8408399820327759
1.197587362,0,0,1.3335703611373901,0,0,0.9172800183296204
1.198836109,0,0,1.3335703611373901,0,0,0.8408399820327759
1.200091152,0,0,1.3335703611373901,0,0,0.7644000053405762
1.201341862,0,0,1.3335703611373901,0,0,1.070159912109375
1.202586794,0,0,1.400607943534851,0,0,0.6879600286483765
1.203836466,0,0,1.400607943534851,0,0,0.4586400091648102
1.205086287,0,0,1.400607943534851,0,0,1.070159912109375
1.206336256,0,0,1.400607943534851,0,0,0.9172800183296204
1.207586225,0,0,1.400607943534851,0,0,0.8408399820327759
1.208835935,0,0,1.400607943534851,0,0,0.9172800183296204
1.210086034,0,0,1.3024457693099976,0,0,0.8408399820327759
1.211336077,0,0,1.3024457693099976,0,0,0.9172800183296204
1.212586046,0,0,1.3024457693099976,0,0,0.611519992351532
1.213836033,0,0,1.3024457693099976,0,0,0.8408399820327759
1.21508641,0,0,1.3024457693099976,0,0,0.9937199950218201
1.216336119,0,0,1.3024457693099976,0,0,0.9172800183296204
1.217586274,0,0,1.3024457693099976,0,0,0.9937199950218201
1.218836243,0,0,1.3024457693099976,0,0,0.7644000053405762
1.220086101,0,0,1.314416766166687,0,0,1.070159912109375
1.221336033,0,0,1.314416766166687,0,0,0.9172800183296204
1.22258602,0,0,1.314416766166687,0,0,0.7644000053405762
1.223836045,0,0,1.314416766166687,0,0,0.9937199950218201
1.225086236,0,0,1.314416766166687,0,0,0.5350799560546875
1.226335983,0,0,1.314416766166687,0,0,0.9172800183296204
1.227586192,0,0,1.314416766166687,0,0,0.611519992351532
1.22883605,0,0,1.4293384552001953,0,0,0.9937199950218201
1.230086149,0,0,1.4293384552001953,0,0,0.9937199950218201
1.231335988,0,0,1.4293384552001953,0,0,0.8408399820327759
1.23258642,0,0,1.4293384552001953,0,0,0.611519992351532
1.233836056,0,0,1.4293384552001953,0,0,0.9937199950218201
1.23508608,0,0,1.4293384552001953,0,0,0.8408399820327759
1.236336124,0,0,1.4293384552001953,0,0,0.7644000053405762
1.237585889,0,0,1.5634137392044067,0,0,0.9172800183296204
1.2388363390000001,0,0,1.5634137392044067,0,0,0.5350799560546875
1.2400886230000001,0,0,1.5634137392044067,0,0,0.6879600286483765
1.241336333,0,0,1.5634137392044067,0,0,0.8408399820327759
1.242585987,0,0,1.5634137392044067,0,0,0.6879600286483765
1.243835919,0,0,1.5634137392044067,0,0,0.8408399820327759
1.245086018,0,0,1.5634137392044067,0,0,0.9172800183296204
1.246336246,0,0,1.5394717454910278,0,0,0.9172800183296204
1.247586141,0,0,1.5394717454910278,0,0,0.5350799560546875
1.248836017,0,0,1.5394717454910278,0,0,1.070159912109375
1.250086227,0,0,1.5394717454910278,0,0,0.4586400091648102
1.251336141,0,0,1.5394717454910278,0,0,0.6879600286483765
1.252585998,0,0,1.5394717454910278,0,0,0.8408399820327759
1.253836041,0,0,1.5394717454910278,0,0,0.6879600286483765
1.255086085,0,0,1.4939818382263184,0,0,0.9172800183296204
1.256336072,0,0,1.4939818382263184,0,0,0.9937199950218201
1.257586152,0,0,1.4939818382263184,0,0,0.5350799560546875
1.258835806,0,0,1.4939818382263184,0,0,0.7644000053405762
1.260086053,0,0,1.4939818382263184,0,0,0.7644000053405762
1.261336022,0,0,1.4939818382263184,0,0,0.9172800183296204
1.2625923239999999,0,0,1.4939818382263184,0,0,0.9172800183296204
1.263836294,0,0,1.4867992401123047,0,0,0.6879600286483765
1.265086096,0,0,1.4867992401123047,0,0,0.611519992351532
1.266335991,0,0,1.4867992401123047,0,0,0.4586400091648102
1.267586163,0,0,1.4867992401123047,0,0,0.611519992351532
1.26883604,0,0,1.4867992401123047,0,0,0.5350799560546875
1.270086101,0,0,1.4867992401123047,0,0,0.8408399820327759
1.271336163,0,0,1.4867992401123047,0,0,0.611519992351532
1.27258604,0,0,1.4867992401123047,0,0,0.9937199950218201
1.273839397,0,0,1.5729905366897583,0,0,1.070159912109375
1.275085978,0,0,1.5729905366897583,0,0,1.070159912109375
1.276335947,0,0,1.5729905366897583,0,0,0.9172800183296204
1.277585953,0,0,1.5729905366897583,0,0,0.9172800183296204
1.278839718,0,0,1.5729905366897583,0,0,0.611519992351532
1.280086409,0,0,1.5729905366897583,0,0,0.6879600286483765
1.281410007,0,0,1.3958195447921753,0,0,0.9172800183296204
1.282589921,0,0,1.3958195447921753,0,0,0.6879600286483765
1.283836631,0,0,1.3958195447921753,0,0,0.9937199950218201
1.285086137,0,0,1.3958195447921753,0,0,0.7644000053405762
1.286334939,0,0,1.3958195447921753,0,0,0.6879600286483765
1.287584871,0,0,1.3958195447921753,0,0,0.9172800183296204
1.288834859,0,0,1.3958195447921753,0,0,0.6879600286483765
1.290086994,0,0,1.4508862495422363,0,0,0.611519992351532
1.291336056,0,0,1.4508862495422363,0,0,0.611519992351532
1.292585951,0,0,1.4508862495422363,0,0,1.070159912109375
1.293835901,0,0,1.4508862495422363,0,0,0.7644000053405762
1.295085982,0,0,1.4508862495422363,0,0,0.9937199950218201
1.296335839,0,0,1.4508862495422363,0,0,0.8408399820327759
1.297585697,0,0,1.4508862495422363,0,0,0.8408399820327759
1.298835574,0,0,1.4508862495422363,0,0,0.8408399820327759
1.300085784,0,0,1.4317326545715332,0,0,0.5350799560546875
1.301335864,0,0,1.4317326545715332,0,0,0.5350799560546875
1.302585814,0,0,1.4317326545715332,0,0,0.9937199950218201
1.303835783,0,0,1.4317326545715332,0,0,0.4586400091648102
1.305085623,0,0,1.4317326545715332,0,0,1.1466000080108643
1.306335777,0,0,1.4317326545715332,0,0,0.9172800183296204
1.307585727,0,0,1.4317326545715332,0,0,0.7644000053405762
1.308835807,0,0,1.3479355573654175,0,0,0.7644000053405762
1.310085702,0,0,1.3479355573654175,0,0,1.070159912109375
1.31133606,0,0,1.3479355573654175,0,0,0.9937199950218201
1.31258577,0,0,1.3479355573654175,0,0,0.6879600286483765
1.313835702,0,0,1.3479355573654175,0,0,0.8408399820327759
1.315087041,0,0,1.3479355573654175,0,0,0.3822000026702881
1.316335918,0,0,1.3479355573654175,0,0,0.7644000053405762
1.317588646,0,0,1.4221558570861816,0,0,0.8408399820327759
1.318836189,0,0,1.4221558570861816,0,0,0.9172800183296204
1.320085917,0,0,1.4221558570861816,0,0,0.9172800183296204
1.321336016,0,0,1.4221558570861816,0,0,0.6879600286483765
1.322585726,0,0,1.4221558570861816,0,0,0.7644000053405762
1.323835695,0,0,1.4221558570861816,0,0,0.6879600286483765
1.325085812,0,0,1.4221558570861816,0,0,0.8408399820327759
1.326335947,0,0,1.4317326545715332,0,0,0.6879600286483765
1.327585787,0,0,1.4317326545715332,0,0,0.8408399820327759
1.328835737,0,0,1.4317326545715332,0,0,0.611519992351532
1.330085632,0,0,1.4317326545715332,0,0,0.7644000053405762
1.331339786,0,0,1.4317326545715332,0,0,0.7644000053405762
1.332601033,0,0,1.4317326545715332,0,0,0.8408399820327759
1.333960982,0,0,1.4317326545715332,0,0,0.6879600286483765
1.335092156,0,0,1.5275006294250488,0,0,0.5350799560546875
1.336337385,0,0,1.5275006294250488,0,0,0.8408399820327759
1.337587131,0,0,1.5275006294250488,0,0,0.9172800183296204
1.3388371559999999,0,0,1.5275006294250488,0,0,0.8408399820327759
1.340087162,0,0,1.5275006294250488,0,0,0.9172800183296204
1.341335798,0,0,1.5275006294250488,0,0,0.9937199950218201
1.34258597,0,0,1.5275006294250488,0,0,0.6879600286483765
1.343837384,0,0,1.5538369417190552,0,0,0.6879600286483765
1.34508739,0,0,1.5538369417190552,0,0,0.9937199950218201
1.346337063,0,0,1.5538369417190552,0,0,0.6879600286483765
1.347586921,0,0,1.5538369417190552,0,0,0.305759996175766
1.348836927,0,0,1.5538369417190552,0,0,0.6879600286483765
1.350091488,0,0,1.5538369417190552,0,0,0.8408399820327759
1.351337809,0,0,1.5538369417190552,0,0,0.9172800183296204
1.352587019,0,0,1.5538369417190552,0,0,0.8408399820327759
1.353846117,0,0,1.5849615335464478,0,0,0.8408399820327759
1.355088031,0,0,1.5849615335464478,0,0,1.1466000080108643
1.356342741,0,0,1.5849615335464478,0,0,0.8408399820327759
1.3575873760000001,0,0,1.5849615335464478,0,0,0.9937199950218201
1.358837327,0,0,1.5849615335464478,0,0,0.4586400091648102
1.360087333,0,0,1.5849615335464478,0,0,0.9937199950218201
1.361337061,0,0,1.5849615335464478,0,0,0.8408399820327759
1.362587104,0,0,1.501164436340332,0,0,0.9172800183296204
1.363837129,0,0,1.501164436340332,0,0,0.6879600286483765
1.365091227,0,0,1.501164436340332,0,0,0.6879600286483765
1.366337196,0,0,1.501164436340332,0,0,0.8408399820327759
1.367604239,0,0,1.501164436340332,0,0,0.5350799560546875
1.368886523,0,0,1.501164436340332,0,0,0.4586400091648102
1.370702023,0,0,1.501164436340332,0,0,0.8408399820327759
1.371464053,0,0,1.5490485429763794,0,0,0.8408399820327759
1.372606819,0,0,1.5490485429763794,0,0,0.8408399820327759
1.373840714,0,0,1.5490485429763794,0,0,0.8408399820327759
1.375086516,0,0,1.5490485429763794,0,0,0.7644000053405762
1.376335819,0,0,1.5490485429763794,0,0,0.611519992351532
1.3775860469999999,0,0,1.5490485429763794,0,0,0.8408399820327759
1.378835701,0,0,1.5490485429763794,0,0,0.5350799560546875
1.380085781,0,0,1.4724340438842773,0,0,0.9937199950218201
1.381336324,0,0,1.4724340438842773,0,0,0.8408399820327759
1.382585849,0,0,1.4724340438842773,0,0,0.6879600286483765
1.383835762,0,0,1.4724340438842773,0,0,0.611519992351532
1.385087768,0,0,1.4724340438842773,0,0,0.9172800183296204
1.3863371820000001,0,0,1.4724340438842773,0,0,0.9172800183296204
1.387586873,0,0,1.4724340438842773,0,0,0.5350799560546875
1.388837101,0,0,1.3838485479354858,0,0,0.7644000053405762
1.3900942,0,0,1.3838485479354858,0,0,0.611519992351532
1.391337762,0,0,1.3838485479354858,0,0,0.3822000026702881
1.392586823,0,0,1.3838485479354858,0,0,0.8408399820327759
1.393836959,0,0,1.3838485479354858,0,0,0.7644000053405762
1.395091669,0,0,1.3838485479354858,0,0,0.9937199950218201
1.396337138,0,0,1.3838485479354858,0,0,0.7644000053405762
1.397587014,0,0,1.3838485479354858,0,0,0.8408399820327759
1.398837039,0,0,1.4460978507995605,0,0,0.6879600286483765
1.400087211,0,0,1.4460978507995605,0,0,0.9172800183296204
1.401338625,0,0,1.4460978507995605,0,0,1.1466000080108643
1.402586909,0,0,1.4460978507995605,0,0,0.611519992351532
1.403837137,0,0,1.4460978507995605,0,0,0.9172800183296204
1.405086939,0,0,1.4460978507995605,0,0,0.6879600286483765
1.406336964,0,0,1.4460978507995605,0,0,0.9937199950218201
1.407587007,0,0,1.3958195447921753,0,0,0.8408399820327759
1.408837124,0,0,1.3958195447921753,0,0,0.9937199950218201
1.410087334,0,0,1.3958195447921753,0,0,1.070159912109375
1.411336988,0,0,1.3958195447921753,0,0,0.611519992351532
1.41258705,0,0,1.3958195447921753,0,0,0.9172800183296204
1.4138363520000001,0,0,1.3958195447921753,0,0,1.070159912109375
1.415085932,0,0,1.3958195447921753,0,0,1.070159912109375
1.4163371599999999,0,0,1.4245500564575195,0,0,0.8408399820327759
1.417587777,0,0,1.4245500564575195,0,0,0.9172800183296204
1.418836969,0,0,1.4245500564575195,0,0,0.6879600286483765
1.420086975,0,0,1.4245500564575195,0,0,0.7644000053405762
1.4213370730000001,0,0,1.4245500564575195,0,0,0.9172800183296204
1.4225871159999999,0,0,1.4245500564575195,0,0,0.4586400091648102
1.423837159,0,0,1.4245500564575195,0,0,0.2293200045824051
1.425087295,0,0,1.5418659448623657,0,0,0.9937199950218201
1.4263360600000001,0,0,1.5418659448623657,0,0,1.070159912109375
1.4275863260000001,0,0,1.5418659448623657,0,0,0.9937199950218201
1.428839943,0,0,1.5418659448623657,0,0,0.9937199950218201
1.430088116,0,0,1.5418659448623657,0,0,0.8408399820327759
1.431337103,0,0,1.5418659448623657,0,0,0.8408399820327759
1.432586887,0,0,1.5418659448623657,0,0,0.6879600286483765
1.4338400230000001,0,0,1.5418659448623657,0,0,0.8408399820327759
1.435087177,0,0,1.53707754611969,0,0,0.4586400091648102
1.43633585,0,0,1.53707754611969,0,0,0.9172800183296204
1.437585911,0,0,1.53707754611969,0,0,0.9172800183296204
1.438837213,0,0,1.53707754611969,0,0,0.8408399820327759
1.440086942,0,0,1.53707754611969,0,0,0.6879600286483765
1.441336818,0,0,1.53707754611969,0,0,0.8408399820327759
1.442586824,0,0,1.53707754611969,0,0,0.6879600286483765
1.443843941,0,0,1.5610195398330688,0,0,0.611519992351532
1.445088336,0,0,1.5610195398330688,0,0,0.6879600286483765
1.446336972,0,0,1.5610195398330688,0,0,0.3822000026702881
1.447598052,0,0,1.5610195398330688,0,0,0.9172800183296204
1.448838447,0,0,1.5610195398330688,0,0,0.6879600286483765
1.4500874719999999,0,0,1.5610195398330688,0,0,0.9172800183296204
1.451337089,0,0,1.5610195398330688,0,0,0.9937199950218201
1.4525872610000001,0,0,1.5490485429763794,0,0,0.5350799560546875
1.453836786,0,0,1.5490485429763794,0,0,0.8408399820327759
1.455086922,0,0,1.5490485429763794,0,0,0.5350799560546875
1.456336965,0,0,1.5490485429763794,0,0,0.7644000053405762
1.457587878,0,0,1.5490485429763794,0,0,0.8408399820327759
1.458836255,0,0,1.5490485429763794,0,0,0.9172800183296204
1.460086853,0,0,1.5490485429763794,0,0,0.8408399820327759
1.461337081,0,0,1.5442601442337036,0,0,0.611519992351532
1.4625869759999999,0,0,1.5442601442337036,0,0,0.8408399820327759
1.463837019,0,0,1.5442601442337036,0,0,0.6879600286483765
1.465086896,0,0,1.5442601442337036,0,0,0.8408399820327759
1.466336939,0,0,1.5442601442337036,0,0,0.6879600286483765
1.467586926,0,0,1.5442601442337036,0,0,0.3822000026702881
1.4688382469999999,0,0,1.5442601442337036,0,0,0.6879600286483765
1.4700871420000001,0,0,1.522712230682373,0,0,0.6879600286483765
1.4713368519999999,0,0,1.522712230682373,0,0,0.7644000053405762
1.472590691,0,0,1.522712230682373,0,0,0.7644000053405762
1.473837086,0,0,1.522712230682373,0,0,0.9937199950218201
1.4750869070000001,0,0,1.522712230682373,0,0,0.7644000053405762
1.476336913,0,0,1.522712230682373,0,0,0.6879600286483765
1.4775870119999999,0,0,1.522712230682373,0,0,0.9937199950218201
1.478836907,0,0,1.522712230682373,0,0,0.4586400091648102
1.480086728,0,0,1.4437036514282227,0,0,0.8408399820327759
1.481336993,0,0,1.4437036514282227,0,0,1.1466000080108643
1.482586814,0,0,1.4437036514282227,0,0,0.9937199950218201
1.4838369120000001,0,0,1.4437036514282227,0,0,0.7644000053405762
1.4850869,0,0,1.4437036514282227,0,0,0.6879600286483765
1.486336924,0,0,1.4437036514282227,0,0,0.6879600286483765
1.487586671,0,0,1.2761094570159912,0,0,0.4586400091648102
1.488836918,0,0,1.2761094570159912,0,0,0.7644000053405762
1.490087183,0,0,1.2761094570159912,0,0,0.611519992351532
1.4913369300000001,0,0,1.2761094570159912,0,0,0.9172800183296204
1.49258677,0,0,1.2761094570159912,0,0,1.070159912109375
1.493835905,0,0,1.2761094570159912,0,0,0.9937199950218201
1.495087356,0,0,1.2761094570159912,0,0,0.9937199950218201
1.496336769,0,0,1.2761094570159912,0,0,0.8408399820327759
1.497586812,0,0,1.2880805730819702,0,0,0.6879600286483765
1.498837078,0,0,1.2880805730819702,0,0,0.6879600286483765
1.500086954,0,0,1.2880805730819702,0,0,0.611519992351532
1.50133659,0,0,1.2880805730819702,0,0,0.9937199950218201
1.502587077,0,0,1.2880805730819702,0,0,0.6879600286483765
1.50383675,0,0,1.3215993642807007,0,0,0.9937199950218201
1.505087274,0,0,1.3215993642807007,0,0,0.9937199950218201
1.506336373,0,0,1.3215993642807007,0,0,0.9172800183296204
1.507587083,0,0,1.3215993642807007,0,0,0.9172800183296204
1.508837496,0,0,1.3215993642807007,0,0,0.8408399820327759
1.510086965,0,0,1.3215993642807007,0,0,0.611519992351532
1.5113393419999999,0,0,1.3215993642807007,0,0,0.4586400091648102
1.512587144,0,0,1.3215993642807007,0,0,0.9172800183296204
1.513836872,0,0,1.3958195447921753,0,0,0.8408399820327759
1.5150869519999999,0,0,1.3958195447921753,0,0,0.6879600286483765
1.516338718,0,0,1.3958195447921753,0,0,0.6879600286483765
1.517586946,0,0,1.3958195447921753,0,0,0.7644000053405762
1.518837322,0,0,1.3958195447921753,0,0,0.8408399820327759
1.520086847,0,0,1.3958195447921753,0,0,0.5350799560546875
1.521336946,0,0,1.3958195447921753,0,0,0.8408399820327759
1.522587044,0,0,1.482010841369629,0,0,0.4586400091648102
1.523836902,0,0,1.482010841369629,0,0,0.8408399820327759
1.525086778,0,0,1.482010841369629,0,0,0.6879600286483765
1.526336988,0,0,1.482010841369629,0,0,0.8408399820327759
1.527586791,0,0,1.482010841369629,0,0,0.611519992351532
1.528836815,0,0,1.482010841369629,0,0,0.7644000053405762
1.530085506,0,0,1.482010841369629,0,0,0.611519992351532
1.5313372159999998,0,0,1.50355863571167,0,0,0.7644000053405762
1.532587148,0,0,1.50355863571167,0,0,0.9937199950218201
1.533837487,0,0,1.50355863571167,0,0,0.9937199950218201
1.5350866970000001,0,0,1.50355863571167,0,0,0.5350799560546875
1.536336777,0,0,1.50355863571167,0,0,1.070159912109375
1.537586672,0,0,1.50355863571167,0,0,0.8408399820327759
1.5388369,0,0,1.50355863571167,0,0,0.9172800183296204
1.540086869,0,0,1.5969325304031372,0,0,0.9937199950218201
1.5413370240000002,0,0,1.5969325304031372,0,0,0.5350799560546875
1.542585511,0,0,1.5969325304031372,0,0,0.9937199950218201
1.54383748,0,0,1.5969325304031372,0,0,0.6879600286483765
1.545086838,0,0,1.5969325304031372,0,0,0.6879600286483765
1.546336715,0,0,1.5969325304031372,0,0,1.070159912109375
1.547587387,0,0,1.5969325304031372,0,0,0.8408399820327759
1.548836967,0,0,1.5897499322891235,0,0,0.8408399820327759
1.5500897139999998,0,0,1.5897499322891235,0,0,0.7644000053405762
1.551338924,0,0,1.5897499322891235,0,0,0.9172800183296204
1.5525851149999998,0,0,1.5897499322891235,0,0,0.8408399820327759
1.553837121,0,0,1.5897499322891235,0,0,1.070159912109375
1.555086979,0,0,1.5897499322891235,0,0,0.611519992351532
1.556336781,0,0,1.5897499322891235,0,0,0.8408399820327759
1.557586824,0,0,1.5897499322891235,0,0,0.7644000053405762
1.5588369050000002,0,0,1.5059528350830078,0,0,1.070159912109375
1.560090503,0,0,1.5059528350830078,0,0,0.9937199950218201
1.561337306,0,0,1.5059528350830078,0,0,0.7644000053405762
1.562586719,0,0,1.5059528350830078,0,0,0.8408399820327759
1.563836725,0,0,1.5059528350830078,0,0,0.7644000053405762
1.5650864530000002,0,0,1.5059528350830078,0,0,0.7644000053405762
1.566337496,0,0,1.5059528350830078,0,0,0.611519992351532
1.567587243,0,0,1.4891934394836426,0,0,0.8408399820327759
1.568837045,0,0,1.4891934394836426,0,0,0.7644000053405762
1.5700868479999999,0,0,1.4891934394836426,0,0,0.9172800183296204
1.571336724,0,0,1.4891934394836426,0,0,0.8408399820327759
1.57258686,0,0,1.4891934394836426,0,0,0.611519992351532
1.573844884,0,0,1.4891934394836426,0,0,0.611519992351532
1.575086057,0,0,1.4891934394836426,0,0,0.611519992351532
1.5763371,0,0,1.335964560508728,0,0,0.9172800183296204
1.577587069,0,0,1.335964560508728,0,0,0.8408399820327759
1.578836964,0,0,1.335964560508728,0,0,0.9172800183296204
1.580086748,0,0,1.335964560508728,0,0,0.7644000053405762
1.581336606,0,0,1.335964560508728,0,0,0.6879600286483765
1.583351271,0,0,1.335964560508728,0,0,0.7644000053405762
1.58385697,0,0,1.335964560508728,0,0,0.8408399820327759
1.5851031610000001,0,0,1.2952631711959839,0,0,0.9172800183296204
1.586337963,0,0,1.2952631711959839,0,0,0.8408399820327759
1.587592951,0,0,1.2952631711959839,0,0,0.7644000053405762
1.5888430119999999,0,0,1.2952631711959839,0,0,0.9937199950218201
1.5900869260000001,0,0,1.2952631711959839,0,0,0.9937199950218201
1.5913367470000002,0,0,1.2952631711959839,0,0,0.6879600286483765
1.592586864,0,0,1.2952631711959839,0,0,0.5350799560546875
1.5938366290000001,0,0,1.4173674583435059,0,0,0.9172800183296204
1.595086802,0,0,1.4173674583435059,0,0,0.611519992351532
1.596336975,0,0,1.4173674583435059,0,0,0.611519992351532
1.597586851,0,0,1.4173674583435059,0,0,0.8408399820327759
1.598837376,0,0,1.4173674583435059,0,0,0.305759996175766
1.600085752,0,0,1.4173674583435059,0,0,0.7644000053405762
1.6013370359999999,0,0,1.4173674583435059,0,0,0.9937199950218201
1.602586709,0,0,1.4173674583435059,0,0,0.8408399820327759
1.603836807,0,0,1.3766659498214722,0,0,0.9172800183296204
1.60508698,0,0,1.3766659498214722,0,0,0.611519992351532
1.606337116,0,0,1.3766659498214722,0,0,0.8408399820327759
1.6075867700000002,0,0,1.3766659498214722,0,0,0.6879600286483765
1.608836776,0,0,1.3766659498214722,0,0,1.223039984703064
1.610086893,0,0,1.3766659498214722,0,0,0.4586400091648102
1.6113368430000001,0,0,1.3766659498214722,0,0,0.5350799560546875
1.612587979,0,0,1.381454348564148,0,0,0.8408399820327759
1.6138358560000001,0,0,1.381454348564148,0,0,1.070159912109375
1.615087102,0,0,1.381454348564148,0,0,0.8408399820327759
1.6163368679999999,0,0,1.381454348564148,0,0,0.7644000053405762
1.6175868549999999,0,0,1.381454348564148,0,0,1.070159912109375
1.618836787,0,0,1.381454348564148,0,0,0.6879600286483765
1.620086738,0,0,1.381454348564148,0,0,0.9172800183296204
1.6213369100000001,0,0,1.4772224426269531,0,0,0.8408399820327759
1.6225869529999999,0,0,1.4772224426269531,0,0,0.7644000053405762
1.623836737,0,0,1.4772224426269531,0,0,0.8408399820327759
1.625085725,0,0,1.4772224426269531,0,0,0.9172800183296204
1.62633699,0,0,1.4772224426269531,0,0,0.9172800183296204
1.627589755,0,0,1.4772224426269531,0,0,0.9937199950218201
1.628837058,0,0,1.4772224426269531,0,0,0.9172800183296204
1.630087267,0,0,1.5059528350830078,0,0,0.8408399820327759
1.631336922,0,0,1.5059528350830078,0,0,0.8408399820327759
1.6325868909999999,0,0,1.5059528350830078,0,0,0.611519992351532
1.633837749,0,0,1.5059528350830078,0,0,0.8408399820327759
1.635087051,0,0,1.5059528350830078,0,0,0.8408399820327759
1.6363362609999998,0,0,1.5059528350830078,0,0,1.070159912109375
1.637586693,0,0,1.5059528350830078,0,0,0.7644000053405762
1.6388372169999998,0,0,1.5275006294250488,0,0,0.7644000053405762
1.64008689,0,0,1.5275006294250488,0,0,0.6879600286483765
1.641337026,0,0,1.5275006294250488,0,0,0.9172800183296204
1.6425868829999999,0,0,1.5275006294250488,0,0,0.6879600286483765
1.6438369819999998,0,0,1.5275006294250488,0,0,0.8408399820327759
1.64508684,0,0,1.5275006294250488,0,0,0.9172800183296204
1.646336753,0,0,1.5275006294250488,0,0,0.9172800183296204
1.647586759,0,0,1.5275006294250488,0,0,0.5350799560546875
1.648836951,0,0,1.4939818382263184,0,0,0.7644000053405762
1.650087753,0,0,1.4939818382263184,0,0,0.4586400091648102
1.651335389,0,0,1.4939818382263184,0,0,0.611519992351532
1.652587228,0,0,1.4939818382263184,0,0,1.2994799613952637
1.653843401,0,0,1.4939818382263184,0,0,0.8408399820327759
1.655087388,0,0,1.4939818382263184,0,0,0.6879600286483765
1.656347931,0,0,1.4939818382263184,0,0,0.8408399820327759
1.657588697,0,0,1.53707754611969,0,0,0.8408399820327759
1.658835425,0,0,1.53707754611969,0,0,0.7644000053405762
1.660087098,0,0,1.53707754611969,0,0,0.9937199950218201
1.661337252,0,0,1.53707754611969,0,0,0.9172800183296204
1.6625868499999998,0,0,1.53707754611969,0,0,0.6879600286483765
1.6638368749999999,0,0,1.53707754611969,0,0,0.8408399820327759
1.665087233,0,0,1.53707754611969,0,0,0.9172800183296204
1.666341165,0,0,1.601720929145813,0,0,1.2994799613952637
1.6675875599999999,0,0,1.601720929145813,0,0,0.6879600286483765
1.668836529,0,0,1.601720929145813,0,0,0.9937199950218201
1.6700873870000001,0,0,1.601720929145813,0,0,0.8408399820327759
1.671337356,0,0,1.601720929145813,0,0,0.6879600286483765
1.672586806,0,0,1.601720929145813,0,0,0.3822000026702881
1.6738369419999999,0,0,1.601720929145813,0,0,0.611519992351532
1.675087003,0,0,1.4628572463989258,0,0,0.9937199950218201
1.6763368239999998,0,0,1.4628572463989258,0,0,0.9937199950218201
1.677586738,0,0,1.4628572463989258,0,0,1.1466000080108643
1.6788368729999998,0,0,1.4628572463989258,0,0,0.7644000053405762
1.680086787,0,0,1.4628572463989258,0,0,0.9172800183296204
1.681336941,0,0,1.4628572463989258,0,0,0.6879600286483765
1.682586688,0,0,1.4628572463989258,0,0,0.8408399820327759
1.683835657,0,0,1.37906014919281,0,0,0.6879600286483765
1.6850871440000001,0,0,1.37906014919281,0,0,0.9937199950218201
1.686336817,0,0,1.37906014919281,0,0,0.2293200045824051
1.6875869529999998,0,0,1.37906014919281,0,0,0.8408399820327759
1.688836848,0,0,1.37906014919281,0,0,0.8408399820327759
1.690086928,0,0,1.37906014919281,0,0,0.9172800183296204
1.691336841,0,0,1.37906014919281,0,0,0.611519992351532
1.6925868099999999,0,0,1.37906014919281,0,0,0.8408399820327759
1.693836835,0,0,1.400607943534851,0,0,0.7644000053405762
1.6950868780000001,0,0,1.400607943534851,0,0,0.7644000053405762
1.696338736,0,0,1.400607943534851,0,0,1.070159912109375
1.697585538,0,0,1.400607943534851,0,0,0.6879600286483765
1.698837174,0,0,1.400607943534851,0,0,0.9937199950218201
1.7000868649999998,0,0,1.400607943534851,0,0,1.070159912109375
1.7013368899999999,0,0,1.400607943534851,0,0,0.9937199950218201
1.7025869139999998,0,0,1.2737152576446533,0,0,0.7644000053405762
1.703836957,0,0,1.2737152576446533,0,0,0.8408399820327759
1.705089334,0,0,1.2737152576446533,0,0,0.8408399820327759
1.7063369879999999,0,0,1.2737152576446533,0,0,0.6879600286483765
1.707586883,0,0,1.2737152576446533,0,0,0.8408399820327759
1.708835556,0,0,1.2737152576446533,0,0,0.9937199950218201
1.7100858209999998,0,0,1.2737152576446533,0,0,0.9937199950218201
1.711337086,0,0,1.2952631711959839,0,0,0.3822000026702881
1.712586833,0,0,1.2952631711959839,0,0,0.8408399820327759
1.7138371540000001,0,0,1.2952631711959839,0,0,0.7644000053405762
1.715086845,0,0,1.2952631711959839,0,0,0.9937199950218201
1.71633924,0,0,1.2952631711959839,0,0,0.6879600286483765
1.717586635,0,0,1.2952631711959839,0,0,0.9172800183296204
1.718836622,0,0,1.2952631711959839,0,0,0.4586400091648102
1.720128276,0,0,1.3934253454208374,0,0,0.9172800183296204
1.72133606,0,0,1.3934253454208374,0,0,0.9172800183296204
1.722587622,0,0,1.3934253454208374,0,0,0.8408399820327759
1.723837258,0,0,1.3934253454208374,0,0,0.6879600286483765
1.725087245,0,0,1.3934253454208374,0,0,0.8408399820327759
1.726336973,0,0,1.3934253454208374,0,0,0.9937199950218201
1.727587368,0,0,1.3934253454208374,0,0,0.5350799560546875
1.728837078,0,0,1.4197616577148438,0,0,0.8408399820327759
1.7300871770000001,0,0,1.4197616577148438,0,0,0.6879600286483765
1.731337072,0,0,1.4197616577148438,0,0,0.9172800183296204
1.73258717,0,0,1.4197616577148438,0,0,0.9172800183296204
1.7338389539999999,0,0,1.4197616577148438,0,0,0.9172800183296204
1.7350852940000001,0,0,1.4197616577148438,0,0,0.611519992351532
1.7363377070000001,0,0,1.4197616577148438,0,0,0.9172800183296204
1.737587231,0,0,1.4197616577148438,0,0,0.6879600286483765
1.738837052,0,0,1.4987702369689941,0,0,0.8408399820327759
1.740087114,0,0,1.4987702369689941,0,0,0.9937199950218201
1.741337083,0,0,1.4987702369689941,0,0,0.6879600286483765
1.742587108,0,0,1.4987702369689941,0,0,0.9937199950218201
1.743839836,0,0,1.4987702369689941,0,0,0.7644000053405762
1.7450883419999998,0,0,1.4987702369689941,0,0,0.9172800183296204
1.746337496,0,0,1.4987702369689941,0,0,0.7644000053405762
1.747588984,0,0,1.5442601442337036,0,0,0.6879600286483765
1.748841638,0,0,1.5442601442337036,0,0,0.611519992351532
1.750087551,0,0,1.5442601442337036,0,0,0.9172800183296204
1.751337113,0,0,1.5442601442337036,0,0,1.223039984703064
1.752587008,0,0,1.5442601442337036,0,0,0.9937199950218201
1.75383718,0,0,1.5442601442337036,0,0,0.6879600286483765
1.755087038,0,0,1.5442601442337036,0,0,0.5350799560546875
1.756337248,0,0,1.5682021379470825,0,0,0.7644000053405762
1.757587106,0,0,1.5682021379470825,0,0,0.9172800183296204
1.7588371299999999,0,0,1.5682021379470825,0,0,0.8408399820327759
1.760087081,0,0,1.5682021379470825,0,0,0.6879600286483765
1.761336791,0,0,1.5682021379470825,0,0,1.070159912109375
1.76258776,0,0,1.5682021379470825,0,0,0.3822000026702881
1.763837229,0,0,1.5682021379470825,0,0,0.8408399820327759
1.765087605,0,0,1.5275006294250488,0,0,0.8408399820327759
1.766337093,0,0,1.5275006294250488,0,0,0.8408399820327759
1.767586858,0,0,1.5275006294250488,0,0,0.4586400091648102
1.768837234,0,0,1.5275006294250488,0,0,0.5350799560546875
1.770087685,0,0,1.5275006294250488,0,0,0.8408399820327759
1.771337265,0,0,1.5275006294250488,0,0,0.8408399820327759
1.7725870860000001,0,0,1.5275006294250488,0,0,0.8408399820327759
1.773835796,0,0,1.4317326545715332,0,0,0.611519992351532
1.775085746,0,0,1.4317326545715332,0,0,0.9172800183296204
1.776335956,0,0,1.4317326545715332,0,0,0.7644000053405762
1.7775867029999999,0,0,1.4317326545715332,0,0,0.9172800183296204
1.778835653,0,0,1.4317326545715332,0,0,0.9172800183296204
1.780086974,0,0,1.4317326545715332,0,0,0.9172800183296204
1.781336906,0,0,1.4317326545715332,0,0,0.6879600286483765
1.782589356,0,0,1.4317326545715332,0,0,0.9172800183296204
1.783837122,0,0,1.3646949529647827,0,0,0.9937199950218201
1.785086813,0,0,1.3646949529647827,0,0,0.9172800183296204
1.786336893,0,0,1.3646949529647827,0,0,0.9937199950218201
1.787587399,0,0,1.3646949529647827,0,0,0.9172800183296204
1.7888369050000001,0,0,1.3646949529647827,0,0,0.9172800183296204
1.7900864300000001,0,0,1.3646949529647827,0,0,0.9172800183296204
1.791335825,0,0,1.3646949529647827,0,0,0.5350799560546875
1.79258709,0,0,1.316810965538025,0,0,0.7644000053405762
1.793837152,0,0,1.316810965538025,0,0,0.6879600286483765
1.795087046,0,0,1.316810965538025,0,0,0.5350799560546875
1.796336904,0,0,1.316810965538025,0,0,0.6879600286483765
1.797586725,0,0,1.316810965538025,0,0,0.7644000053405762
1.798836898,0,0,1.316810965538025,0,0,0.9172800183296204
1.800086867,0,0,1.316810965538025,0,0,0.8408399820327759
1.80133704,0,0,1.2449848651885986,0,0,0.8408399820327759
1.802586823,0,0,1.2449848651885986,0,0,0.8408399820327759
1.8038358300000001,0,0,1.2449848651885986,0,0,0.7644000053405762
1.805086169,0,0,1.2449848651885986,0,0,1.223039984703064
1.806336934,0,0,1.2449848651885986,0,0,0.611519992351532
1.807586792,0,0,1.2449848651885986,0,0,0.611519992351532
1.808836891,0,0,1.2449848651885986,0,0,0.9172800183296204
1.8100867859999998,0,0,1.4077905416488647,0,0,0.8408399820327759
1.81133694,0,0,1.4077905416488647,0,0,0.611519992351532
1.81258702,0,0,1.4077905416488647,0,0,0.6879600286483765
1.813840859,0,0,1.4077905416488647,0,0,0.3822000026702881
1.81508731,0,0,1.4077905416488647,0,0,0.6879600286483765
1.816337168,0,0,1.4077905416488647,0,0,1.070159912109375
1.81758597,0,0,1.4077905416488647,0,0,0.5350799560546875
1.818836309,0,0,1.4077905416488647,0,0,0.8408399820327759
1.820087112,0,0,1.455674648284912,0,0,0.7644000053405762
1.821340303,0,0,1.455674648284912,0,0,1.1466000080108643
1.822596679,0,0,1.455674648284912,0,0,0.7644000053405762
1.8238372040000002,0,0,1.455674648284912,0,0,0.6879600286483765
1.825087247,0,0,1.455674648284912,0,0,0.6879600286483765
1.826336698,0,0,1.455674648284912,0,0,0.7644000053405762
1.827586981,0,0,1.455674648284912,0,0,0.9172800183296204
1.828835228,0,0,1.534683346748352,0,0,0.5350799560546875
1.8302277139999998,0,0,1.534683346748352,0,0,0.7644000053405762
1.831338981,0,0,1.534683346748352,0,0,0.7644000053405762
1.832587154,0,0,1.534683346748352,0,0,0.6879600286483765
1.834233137,0,0,1.534683346748352,0,0,0.9172800183296204
1.835126147,0,0,1.534683346748352,0,0,0.9937199950218201
1.836374857,0,0,1.534683346748352,0,0,0.6879600286483765
1.837660492,0,0,1.623268723487854,0,0,0.6879600286483765
1.838846424,0,0,1.623268723487854,0,0,0.5350799560546875
1.8400869119999999,0,0,1.623268723487854,0,0,0.7644000053405762
1.8413366770000001,0,0,1.623268723487854,0,0,0.9172800183296204
1.8425859980000001,0,0,1.623268723487854,0,0,0.6879600286483765
1.843836134,0,0,1.623268723487854,0,0,0.8408399820327759
1.8450860470000001,0,0,1.623268723487854,0,0,0.7644000053405762
1.8463359609999999,0,0,1.5490485429763794,0,0,0.9172800183296204
1.8475861340000002,0,0,1.5490485429763794,0,0,0.611519992351532
1.848836195,0,0,1.5490485429763794,0,0,1.070159912109375
1.8500861830000002,0,0,1.5490485429763794,0,0,0.4586400091648102
1.8513359660000002,0,0,1.5490485429763794,0,0,0.9937199950218201
1.8525859169999999,0,0,1.5490485429763794,0,0,0.7644000053405762
1.853835997,0,0,1.5490485429763794,0,0,0.6879600286483765
1.855085818,0,0,1.5634137392044067,0,0,0.8408399820327759
1.856336009,0,0,1.5634137392044067,0,0,0.611519992351532
1.857585923,0,0,1.5634137392044067,0,0,0.6879600286483765
1.858836132,0,0,1.5634137392044067,0,0,0.6879600286483765
1.8600916939999999,0,0,1.5634137392044067,0,0,1.1466000080108643
1.8613364959999998,0,0,1.5634137392044067,0,0,0.611519992351532
1.862586039,0,0,1.5634137392044067,0,0,1.070159912109375
1.863836008,0,0,1.5634137392044067,0,0,0.9172800183296204
1.865094625,0,0,1.6759412288665771,0,0,0.9937199950218201
1.866338391,0,0,1.6759412288665771,0,0,0.8408399820327759
1.867586156,0,0,1.6759412288665771,0,0,0.8408399820327759
1.868836218,0,0,1.6759412288665771,0,0,0.611519992351532
1.8700938900000001,0,0,1.6759412288665771,0,0,0.3822000026702881
1.871336267,0,0,1.6759412288665771,0,0,0.7644000053405762
1.8725859580000002,0,0,1.6759412288665771,0,0,0.8408399820327759
1.873849871,0,0,1.4724340438842773,0,0,1.070159912109375
1.8750884700000001,0,0,1.4724340438842773,0,0,0.6879600286483765
1.876336254,0,0,1.4724340438842773,0,0,0.9172800183296204
1.8775860930000001,0,0,1.4724340438842773,0,0,0.7644000053405762
1.8788358029999999,0,0,1.4724340438842773,0,0,0.9172800183296204
1.880086087,0,0,1.4724340438842773,0,0,1.070159912109375
1.881336593,0,0,1.4724340438842773,0,0,0.8408399820327759
1.882586099,0,0,1.4221558570861816,0,0,0.7644000053405762
1.883835957,0,0,1.4221558570861816,0,0,0.9172800183296204
1.885086074,0,0,1.4221558570861816,0,0,0.9172800183296204
1.8863360249999999,0,0,1.4221558570861816,0,0,0.5350799560546875
1.887585901,0,0,1.4221558570861816,0,0,0.9937199950218201
1.8888359810000002,0,0,1.4221558570861816,0,0,0.8408399820327759
1.8900860430000002,0,0,1.4221558570861816,0,0,0.8408399820327759
1.891335864,0,0,1.3958195447921753,0,0,0.611519992351532
1.8925859809999999,0,0,1.3958195447921753,0,0,0.9172800183296204
1.893836079,0,0,1.3958195447921753,0,0,0.5350799560546875
1.8950858259999999,0,0,1.3958195447921753,0,0,0.9937199950218201
1.896335869,0,0,1.3958195447921753,0,0,0.9172800183296204
1.897586042,0,0,1.3958195447921753,0,0,0.8408399820327759
1.898840307,0,0,1.3958195447921753,0,0,0.9937199950218201
1.9000864800000001,0,0,1.3934253454208374,0,0,0.9937199950218201
1.901336116,0,0,1.3934253454208374,0,0,0.6879600286483765
1.902596288,0,0,1.3934253454208374,0,0,0.611519992351532
1.903836498,0,0,1.3934253454208374,0,0,0.9172800183296204
1.90508606,0,0,1.3934253454208374,0,0,0.5350799560546875
1.906335695,0,0,1.3934253454208374,0,0,0.8408399820327759
1.907585905,0,0,1.3934253454208374,0,0,0.9172800183296204
1.9088357999999999,0,0,1.3886369466781616,0,0,0.9937199950218201
1.910085899,0,0,1.3886369466781616,0,0,1.223039984703064
1.911335923,0,0,1.3886369466781616,0,0,0.7644000053405762
1.9125858550000001,0,0,1.3886369466781616,0,0,0.6879600286483765
1.913835972,0,0,1.3886369466781616,0,0,0.611519992351532
1.915085941,0,0,1.3886369466781616,0,0,0.7644000053405762
1.916338262,0,0,1.3886369466781616,0,0,0.9172800183296204
1.9175863610000001,0,0,1.3886369466781616,0,0,1.070159912109375
1.9188364039999999,0,0,1.4245500564575195,0,0,0.5350799560546875
1.9200860020000001,0,0,1.4245500564575195,0,0,0.6879600286483765
1.921336194,0,0,1.4245500564575195,0,0,0.611519992351532
1.922584903,0,0,1.4245500564575195,0,0,0.6879600286483765
1.923834835,0,0,1.4245500564575195,0,0,0.8408399820327759
1.925087416,0,0,1.4245500564575195,0,0,0.8408399820327759
1.926336551,0,0,1.4245500564575195,0,0,0.611519992351532
1.9275860200000001,0,0,1.522712230682373,0,0,0.9937199950218201
1.928835897,0,0,1.522712230682373,0,0,0.9937199950218201
1.930085977,0,0,1.522712230682373,0,0,0.8408399820327759
1.9313364640000001,0,0,1.522712230682373,0,0,0.9172800183296204
1.932585933,0,0,1.522712230682373,0,0,0.8408399820327759
1.933835995,0,0,1.522712230682373,0,0,0.611519992351532
1.935085945,0,0,1.522712230682373,0,0,0.8408399820327759
1.936336062,0,0,1.5969325304031372,0,0,1.223039984703064
1.937588661,0,0,1.5969325304031372,0,0,0.7644000053405762
1.938836223,0,0,1.5969325304031372,0,0,0.7644000053405762
1.9400860070000001,0,0,1.5969325304031372,0,0,0.8408399820327759
1.9413358459999999,0,0,1.5969325304031372,0,0,0.7644000053405762
1.942585926,0,0,1.5969325304031372,0,0,0.8408399820327759
1.9438358949999999,0,0,1.5969325304031372,0,0,0.8408399820327759
1.9450859569999999,0,0,1.6376339197158813,0,0,0.7644000053405762
1.9463359630000001,0,0,1.6376339197158813,0,0,0.6879600286483765
1.947585876,0,0,1.6376339197158813,0,0,0.9172800183296204
1.948835845,0,0,1.6376339197158813,0,0,0.7644000053405762
1.950086129,0,0,1.6376339197158813,0,0,0.8408399820327759
1.951336135,0,0,1.6376339197158813,0,0,0.8408399820327759
1.952586067,0,0,1.6376339197158813,0,0,1.223039984703064
1.953846647,0,0,1.6041151285171509,0,0,0.7644000053405762
1.955088746,0,0,1.6041151285171509,0,0,0.8408399820327759
1.956336437,0,0,1.6041151285171509,0,0,0.9937199950218201
1.957586276,0,0,1.6041151285171509,0,0,0.611519992351532
1.958836153,0,0,1.6041151285171509,0,0,0.6879600286483765
1.960086103,0,0,1.6041151285171509,0,0,0.6879600286483765
1.961336276,0,0,1.6041151285171509,0,0,1.1466000080108643
1.962586356,0,0,1.6041151285171509,0,0,0.8408399820327759
1.9638361770000001,0,0,1.5945383310317993,0,0,0.8408399820327759
1.965092979,0,0,1.5945383310317993,0,0,0.7644000053405762
1.966338022,0,0,1.5945383310317993,0,0,0.7644000053405762
1.967586473,0,0,1.5945383310317993,0,0,0.9172800183296204
1.9688359420000001,0,0,1.5945383310317993,0,0,0.8408399820327759
1.9700861889999999,0,0,1.5945383310317993,0,0,0.9172800183296204
1.971335917,0,0,1.5945383310317993,0,0,0.8408399820327759
1.972585923,0,0,1.436521053314209,0,0,0.8408399820327759
1.97383591,0,0,1.436521053314209,0,0,0.7644000053405762
1.975085953,0,0,1.436521053314209,0,0,0.611519992351532
1.976340237,0,0,1.436521053314209,0,0,0.8408399820327759
1.977586428,0,0,1.436521053314209,0,0,0.8408399820327759
1.978836027,0,0,1.436521053314209,0,0,0.5350799560546875
1.980086033,0,0,1.436521053314209,0,0,0.7644000053405762
1.981335947,0,0,1.4867992401123047,0,0,0.4586400091648102
1.982595286,0,0,1.4867992401123047,0,0,0.9172800183296204
1.983836348,0,0,1.4867992401123047,0,0,0.7644000053405762
1.985086131,0,0,1.4867992401123047,0,0,0.9937199950218201
1.9863374710000001,0,0,1.4867992401123047,0,0,0.8408399820327759
1.9875860319999998,0,0,1.4867992401123047,0,0,0.9937199950218201
1.988846501,0,0,1.4867992401123047,0,0,0.8408399820327759
1.990088063,0,0,1.434126853942871,0,0,0.611519992351532
1.991335791,0,0,1.434126853942871,0,0,1.1466000080108643
1.992586186,0,0,1.434126853942871,0,0,0.9937199950218201
1.9938361,0,0,1.434126853942871,0,0,0.9937199950218201
1.99508605,0,0,1.434126853942871,0,0,0.8408399820327759
1.996336001,0,0,1.434126853942871,0,0,1.1466000080108643
1.997586118,0,0,1.434126853942871,0,0,0.6879600286483765
1.998836013,0,0,1.3407529592514038,0,0,0.9172800183296204
2.000085759,0,0,1.3407529592514038,0,0,0.611519992351532
2.001335969,0,0,1.3407529592514038,0,0,0.611519992351532
2.002585716,0,0,1.3407529592514038,0,0,0.6879600286483765
2.003835852,0,0,1.3407529592514038,0,0,0.7644000053405762
2.005086043,0,0,1.3407529592514038,0,0,0.8408399820327759
2.006335734,0,0,1.3407529592514038,0,0,0.7644000053405762
2.007585925,0,0,1.3407529592514038,0,0,0.9172800183296204
2.008836024,0,0,1.4221558570861816,0,0,0.8408399820327759
2.01008603,0,0,1.4221558570861816,0,0,1.223039984703064
2.011335943,0,0,1.4221558570861816,0,0,0.5350799560546875
2.01258619,0,0,1.4221558570861816,0,0,0.8408399820327759
2.013836048,0,0,1.4221558570861816,0,0,0.611519992351532
2.015089017,0,0,1.4221558570861816,0,0,0.9937199950218201
2.016336264,0,0,1.4221558570861816,0,0,0.7644000053405762
2.017586029,0,0,1.5155296325683594,0,0,0.9172800183296204
2.018835887,0,0,1.5155296325683594,0,0,0.8408399820327759
2.020085838,0,0,1.5155296325683594,0,0,0.9937199950218201
2.021335955,0,0,1.5155296325683594,0,0,0.9937199950218201
2.022586016,0,0,1.5155296325683594,0,0,0.8408399820327759
2.023835874,0,0,1.5155296325683594,0,0,1.1466000080108643
2.025086177,0,0,1.5155296325683594,0,0,0.305759996175766
2.02633609,0,0,1.558625340461731,0,0,0.9172800183296204
2.027585948,0,0,1.558625340461731,0,0,0.7644000053405762
2.028836065,0,0,1.558625340461731,0,0,0.9172800183296204
2.030085904,0,0,1.558625340461731,0,0,0.8408399820327759
2.031335892,0,0,1.558625340461731,0,0,0.6879600286483765
2.032586028,0,0,1.558625340461731,0,0,0.7644000053405762
2.033835997,0,0,1.558625340461731,0,0,0.6879600286483765
2.035085873,0,0,1.601720929145813,0,0,0.9172800183296204
2.036336027,0,0,1.601720929145813,0,0,0.6879600286483765
2.037585959,0,0,1.601720929145813,0,0,0.6879600286483765
2.038836095,0,0,1.601720929145813,0,0,0.9172800183296204
2.040086064,0,0,1.601720929145813,0,0,0.9937199950218201
2.041336051,0,0,1.601720929145813,0,0,1.070159912109375
2.042586094,0,0,1.601720929145813,0,0,1.070159912109375
2.043835952,0,0,1.601720929145813,0,0,0.5350799560546875
2.045085847,0,0,1.5442601442337036,0,0,0.9172800183296204
2.046335909,0,0,1.5442601442337036,0,0,0.8408399820327759
2.047585785,0,0,1.5442601442337036,0,0,0.8408399820327759
2.048845921,0,0,1.5442601442337036,0,0,0.9937199950218201
2.050089168,0,0,1.5442601442337036,0,0,0.6879600286483765
2.051336359,0,0,1.5442601442337036,0,0,1.070159912109375
2.05258605,0,0,1.5442601442337036,0,0,0.5350799560546875
2.053838945,0,0,1.623268723487854,0,0,0.8408399820327759
2.055086285,0,0,1.623268723487854,0,0,0.611519992351532
2.056336031,0,0,1.623268723487854,0,0,0.9172800183296204
2.057586223,0,0,1.623268723487854,0,0,0.5350799560546875
2.058836506,0,0,1.623268723487854,0,0,0.5350799560546875
2.060086161,0,0,1.623268723487854,0,0,0.8408399820327759
2.061336111,0,0,1.623268723487854,0,0,0.8408399820327759
2.06259458,0,0,1.479616641998291,0,0,0.8408399820327759
2.063836364,0,0,1.479616641998291,0,0,0.9172800183296204
2.065093351,0,0,1.479616641998291,0,0,0.7644000053405762
2.066338061,0,0,1.479616641998291,0,0,0.6879600286483765
2.067586641,0,0,1.479616641998291,0,0,1.070159912109375
2.068836184,0,0,1.479616641998291,0,0,0.6879600286483765
2.070086487,0,0,1.479616641998291,0,0,0.9937199950218201
2.071336363,0,0,1.4101848602294922,0,0,0.9172800183296204
2.072586165,0,0,1.4101848602294922,0,0,0.7644000053405762
2.073836208,0,0,1.4101848602294922,0,0,0.8408399820327759
2.075086381,0,0,1.4101848602294922,0,0,0.9937199950218201
2.076336165,0,0,1.4101848602294922,0,0,0.6879600286483765
2.077586171,0,0,1.4101848602294922,0,0,0.7644000053405762
2.078836122,0,0,1.4101848602294922,0,0,0.8408399820327759
2.080086128,0,0,1.4269442558288574,0,0,0.3822000026702881
2.081336245,0,0,1.4269442558288574,0,0,1.070159912109375
2.082586214,0,0,1.4269442558288574,0,0,0.8408399820327759
2.0838499600000002,0,0,1.4269442558288574,0,0,0.8408399820327759
2.08511654,0,0,1.4269442558288574,0,0,0.9172800183296204
2.08636488,0,0,1.4269442558288574,0,0,0.8408399820327759
2.087589405,0,0,1.4269442558288574,0,0,0.6879600286483765
2.088836448,0,0,1.4269442558288574,0,0,0.7644000053405762
2.090086343,0,0,1.37906014919281,0,0,0.8408399820327759
2.091336756,0,0,1.37906014919281,0,0,0.9937199950218201
2.09259204,0,0,1.37906014919281,0,0,1.070159912109375
2.093836564,0,0,1.37906014919281,0,0,0.6879600286483765
2.095086348,0,0,1.37906014919281,0,0,0.9937199950218201
2.096336058,0,0,1.37906014919281,0,0,0.9172800183296204
2.097586212,0,0,1.37906014919281,0,0,0.9172800183296204
2.098836033,0,0,1.2665326595306396,0,0,0.9172800183296204
2.100086391,0,0,1.2665326595306396,0,0,0.5350799560546875
2.101336175,0,0,1.2665326595306396,0,0,0.3822000026702881
2.102586218,0,0,1.2665326595306396,0,0,0.9172800183296204
2.103836372,0,0,1.2665326595306396,0,0,0.8408399820327759
2.105086434,0,0,1.2665326595306396,0,0,0.9172800183296204
2.106335995,0,0,1.2665326595306396,0,0,0.7644000053405762
2.107586223,0,0,1.3503297567367554,0,0,0.8408399820327759
2.108836174,0,0,1.3503297567367554,0,0,0.8408399820327759
2.110086013,0,0,1.3503297567367554,0,0,0.7644000053405762
2.111336001,0,0,1.3503297567367554,0,0,0.9172800183296204
2.112586118,0,0,1.3503297567367554,0,0,0.611519992351532
2.113836383,0,0,1.3503297567367554,0,0,0.9172800183296204
2.115086371,0,0,1.3503297567367554,0,0,0.7644000053405762
2.116338803,0,0,1.4748282432556152,0,0,0.9937199950218201
2.117595309,0,0,1.4748282432556152,0,0,0.8408399820327759
2.118838926,0,0,1.4748282432556152,0,0,0.611519992351532
2.120086543,0,0,1.4748282432556152,0,0,0.7644000053405762
2.121339827,0,0,1.4748282432556152,0,0,0.5350799560546875
2.122585055,0,0,1.4748282432556152,0,0,1.070159912109375
2.123835246,0,0,1.4748282432556152,0,0,0.9172800183296204
2.125088715,0,0,1.6328455209732056,0,0,0.9937199950218201
2.126336684,0,0,1.6328455209732056,0,0,0.7644000053405762
2.12758632,0,0,1.6328455209732056,0,0,0.9172800183296204
2.128836215,0,0,1.6328455209732056,0,0,0.7644000053405762
2.130086888,0,0,1.6328455209732056,0,0,0.8408399820327759
2.131340597,0,0,1.6328455209732056,0,0,0.9937199950218201
2.132586381,0,0,1.6328455209732056,0,0,0.9937199950218201
2.133836239,0,0,1.6328455209732056,0,0,0.9172800183296204
2.135086116,0,0,1.5729905366897583,0,0,1.070159912109375
2.136335992,0,0,1.5729905366897583,0,0,0.9937199950218201
2.137586146,0,0,1.5729905366897583,0,0,0.611519992351532
2.138836078,0,0,1.5729905366897583,0,0,0.7644000053405762
2.14008614,0,0,1.5729905366897583,0,0,0.8408399820327759
2.141347775,0,0,1.5729905366897583,0,0,0.611519992351532
2.142605244,0,0,1.5729905366897583,0,0,0.7644000053405762
2.143837121,0,0,1.5179238319396973,0,0,0.9172800183296204
2.145088108,0,0,1.5179238319396973,0,0,0.7644000053405762
2.1463362249999998,0,0,1.5179238319396973,0,0,0.6879600286483765
2.147586102,0,0,1.5179238319396973,0,0,0.9172800183296204
2.148835997,0,0,1.5179238319396973,0,0,0.6879600286483765
2.150086114,0,0,1.5179238319396973,0,0,0.8408399820327759
2.15133599,0,0,1.5179238319396973,0,0,0.6879600286483765
2.152586182,0,0,1.5514427423477173,0,0,0.9172800183296204
2.153836262,0,0,1.5514427423477173,0,0,0.3822000026702881
2.155086323,0,0,1.5514427423477173,0,0,0.9172800183296204
2.156336033,0,0,1.5514427423477173,0,0,0.611519992351532
2.157586113,0,0,1.5514427423477173,0,0,0.611519992351532
2.15883473,0,0,1.5514427423477173,0,0,0.8408399820327759
2.160084699,0,0,1.5514427423477173,0,0,0.6879600286483765
2.161336983,0,0,1.5131354331970215,0,0,0.6879600286483765
2.162586378,0,0,1.5131354331970215,0,0,0.6879600286483765
2.163836069,0,0,1.5131354331970215,0,0,0.7644000053405762
2.165095057,0,0,1.5131354331970215,0,0,0.611519992351532
2.166337859,0,0,1.5131354331970215,0,0,0.7644000053405762
2.167586106,0,0,1.5131354331970215,0,0,0.8408399820327759
2.168912611,0,0,1.5131354331970215,0,0,1.223039984703064
2.170095636,0,0,1.3862427473068237,0,0,0.9172800183296204
2.171337939,0,0,1.3862427473068237,0,0,0.9937199950218201
2.172587778,0,0,1.3862427473068237,0,0,0.9172800183296204
2.173843025,0,0,1.3862427473068237,0,0,0.5350799560546875
2.175086216,0,0,1.3862427473068237,0,0,0.7644000053405762
2.1763362219999998,0,0,1.3862427473068237,0,0,0.611519992351532
2.177588821,0,0,1.3862427473068237,0,0,0.8408399820327759
2.178837623,0,0,1.3862427473068237,0,0,0.611519992351532
2.180087277,0,0,1.3311761617660522,0,0,0.8408399820327759
2.181337506,0,0,1.3311761617660522,0,0,0.9172800183296204
2.182587975,0,0,1.3311761617660522,0,0,0.7644000053405762
2.183837388,0,0,1.3311761617660522,0,0,0.7644000053405762
2.185086987,0,0,1.3311761617660522,0,0,0.9172800183296204
2.186337363,0,0,1.3311761617660522,0,0,0.5350799560546875
2.187587129,0,0,1.3311761617660522,0,0,1.1466000080108643
2.188836968,0,0,1.3910311460494995,0,0,0.9937199950218201
2.190087215,0,0,1.3910311460494995,0,0,0.8408399820327759
2.191337147,0,0,1.3910311460494995,0,0,0.9172800183296204
2.192588245,0,0,1.3910311460494995,0,0,0.8408399820327759
2.193841714,0,0,1.3910311460494995,0,0,0.611519992351532
2.1950900349999998,0,0,1.3910311460494995,0,0,0.611519992351532
2.196337245,0,0,1.3910311460494995,0,0,0.8408399820327759
2.197586899,0,0,1.3287819623947144,0,0,0.6879600286483765
2.198856479,0,0,1.3287819623947144,0,0,0.8408399820327759
2.200088633,0,0,1.3287819623947144,0,0,0.611519992351532
2.201337047,0,0,1.3287819623947144,0,0,0.9172800183296204
2.20258709,0,0,1.3287819623947144,0,0,0.6879600286483765
2.20383704,0,0,1.3287819623947144,0,0,0.9172800183296204
2.205091176,0,0,1.3287819623947144,0,0,0.8408399820327759
2.2063388489999998,0,0,1.4101848602294922,0,0,0.6879600286483765
2.207587244,0,0,1.4101848602294922,0,0,0.611519992351532
2.2088411199999998,0,0,1.4101848602294922,0,0,0.9172800183296204
2.210087311,0,0,1.4101848602294922,0,0,0.8408399820327759
2.21133741,0,0,1.4101848602294922,0,0,0.9172800183296204
2.212587268,0,0,1.4101848602294922,0,0,0.5350799560546875
2.213836904,0,0,1.4101848602294922,0,0,0.611519992351532
2.215086947,0,0,1.3958195447921753,0,0,0.9172800183296204
2.216336953,0,0,1.3958195447921753,0,0,0.6879600286483765
2.217587144,0,0,1.3958195447921753,0,0,0.9172800183296204
2.218836724,0,0,1.3958195447921753,0,0,0.611519992351532
2.220086323,0,0,1.3958195447921753,0,0,0.611519992351532
2.221353032,0,0,1.3958195447921753,0,0,1.223039984703064
2.222595298,0,0,1.4987702369689941,0,0,0.8408399820327759
2.223837378,0,0,1.4987702369689941,0,0,0.9172800183296204
2.22508718,0,0,1.4987702369689941,0,0,0.9172800183296204
2.226337001,0,0,1.4987702369689941,0,0,0.7644000053405762
2.227586989,0,0,1.4987702369689941,0,0,0.9172800183296204
2.228836939,0,0,1.4987702369689941,0,0,0.6879600286483765
2.230087204,0,0,1.4987702369689941,0,0,0.611519992351532
2.231336599,0,0,1.5849615335464478,0,0,0.5350799560546875
2.232585457,0,0,1.5849615335464478,0,0,0.6879600286483765
2.233837185,0,0,1.5849615335464478,0,0,0.5350799560546875
2.235087025,0,0,1.5849615335464478,0,0,0.7644000053405762
2.236337068,0,0,1.5849615335464478,0,0,0.611519992351532
2.237587407,0,0,1.5849615335464478,0,0,1.1466000080108643
2.238837173,0,0,1.5849615335464478,0,0,0.611519992351532
2.240086938,0,0,1.5849615335464478,0,0,0.9172800183296204
2.241338777,0,0,1.4891934394836426,0,0,0.5350799560546875
2.24258708,0,0,1.4891934394836426,0,0,0.8408399820327759
2.243836993,0,0,1.4891934394836426,0,0,0.5350799560546875
2.245085332,0,0,1.4891934394836426,0,0,1.070159912109375
2.24633732,0,0,1.4891934394836426,0,0,1.1466000080108643
2.247589844,0,0,1.4891934394836426,0,0,0.9937199950218201
2.248837202,0,0,1.4891934394836426,0,0,0.8408399820327759
2.250086875,0,0,1.5634137392044067,0,0,0.9172800183296204
2.2513369,0,0,1.5634137392044067,0,0,0.9937199950218201
2.252587165,0,0,1.5634137392044067,0,0,0.6879600286483765
2.253846912,0,0,1.5634137392044067,0,0,0.8408399820327759
2.255087825,0,0,1.5634137392044067,0,0,0.9172800183296204
2.256337479,0,0,1.5634137392044067,0,0,0.8408399820327759
2.257587171,0,0,1.5634137392044067,0,0,0.8408399820327759
2.25883714,0,0,1.4053963422775269,0,0,0.9172800183296204
2.260086997,0,0,1.4053963422775269,0,0,0.9172800183296204
2.26134217,0,0,1.4053963422775269,0,0,0.7644000053405762
2.262587158,0,0,1.4053963422775269,0,0,0.6879600286483765
2.263837034,0,0,1.4053963422775269,0,0,0.8408399820327759
2.26508741,0,0,1.4053963422775269,0,0,0.9172800183296204
2.266336972,0,0,1.4053963422775269,0,0,0.8408399820327759
2.267587052,0,0,1.2856862545013428,0,0,1.1466000080108643
2.268837021,0,0,1.2856862545013428,0,0,1.070159912109375
2.270087212,0,0,1.2856862545013428,0,0,0.7644000053405762
2.271336941,0,0,1.2856862545013428,0,0,0.9172800183296204
2.2725870759999998,0,0,1.2856862545013428,0,0,0.6879600286483765
2.273835805,0,0,1.2856862545013428,0,0,0.9172800183296204
2.275087459,0,0,1.2856862545013428,0,0,0.8408399820327759
2.276337187,0,0,1.2856862545013428,0,0,0.6879600286483765
2.277587101,0,0,1.3862427473068237,0,0,0.7644000053405762
2.278837033,0,0,1.3862427473068237,0,0,0.7644000053405762
2.280087039,0,0,1.3862427473068237,0,0,0.9172800183296204
2.281337137,0,0,1.3862427473068237,0,0,0.7644000053405762
2.282587051,0,0,1.3862427473068237,0,0,0.9172800183296204
2.283837057,0,0,1.3862427473068237,0,0,0.9937199950218201
2.285085452,0,0,1.3862427473068237,0,0,0.8408399820327759
2.286338717,0,0,1.3407529592514038,0,0,0.9937199950218201
2.287587593,0,0,1.3407529592514038,0,0,0.2293200045824051
2.288837025,0,0,1.3407529592514038,0,0,0.9937199950218201
2.2900871609999998,0,0,1.3407529592514038,0,0,0.7644000053405762
2.291337167,0,0,1.3407529592514038,0,0,1.070159912109375
2.292586969,0,0,1.3407529592514038,0,0,0.7644000053405762
2.293836864,0,0,1.3407529592514038,0,0,0.8408399820327759
2.295086944,0,0,1.278503656387329,0,0,0.611519992351532
2.296346469,0,0,1.278503656387329,0,0,0.6879600286483765
2.297587253,0,0,1.278503656387329,0,0,1.070159912109375
2.29883587,0,0,1.278503656387329,0,0,0.8408399820327759
2.300087635,0,0,1.278503656387329,0,0,1.070159912109375
2.301337178,0,0,1.278503656387329,0,0,0.9172800183296204
2.302593055,0,0,1.278503656387329,0,0,0.9172800183296204
2.30383719,0,0,1.3958195447921753,0,0,0.9172800183296204
2.305087085,0,0,1.3958195447921753,0,0,0.9937199950218201
2.306337054,0,0,1.3958195447921753,0,0,0.8408399820327759
2.307587134,0,0,1.3958195447921753,0,0,0.6879600286483765
2.308836177,0,0,1.3958195447921753,0,0,0.611519992351532
2.310093758,0,0,1.4748282432556152,0,0,0.9172800183296204
2.311336393,0,0,1.4748282432556152,0,0,0.9172800183296204
2.312585918,0,0,1.4748282432556152,0,0,0.6879600286483765
2.313836794,0,0,1.4748282432556152,0,0,0.9172800183296204
2.315085837,0,0,1.4748282432556152,0,0,0.8408399820327759
2.3163381579999998,0,0,1.4748282432556152,0,0,0.7644000053405762
2.317586812,0,0,1.4748282432556152,0,0,0.6879600286483765
2.318835967,0,0,1.4748282432556152,0,0,0.7644000053405762
2.320085621,0,0,1.5658079385757446,0,0,0.611519992351532
2.321336405,0,0,1.5658079385757446,0,0,0.7644000053405762
2.322585855,0,0,1.5658079385757446,0,0,0.9172800183296204
2.323835824,0,0,1.5658079385757446,0,0,1.070159912109375
2.325089367,0,0,1.5658079385757446,0,0,0.7644000053405762
2.326336244,0,0,1.5658079385757446,0,0,0.9172800183296204
2.327585861,0,0,1.5658079385757446,0,0,0.9937199950218201
2.328836145,0,0,1.4915876388549805,0,0,0.611519992351532
2.330087539,0,0,1.4915876388549805,0,0,0.9172800183296204
2.331337064,0,0,1.4915876388549805,0,0,0.5350799560546875
2.332591533,0,0,1.4915876388549805,0,0,0.9172800183296204
2.333837428,0,0,1.4915876388549805,0,0,0.9172800183296204
2.335814334,0,0,1.4915876388549805,0,0,0.7644000053405762
2.336356032,0,0,1.4915876388549805,0,0,0.9172800183296204
2.337601205,0,0,1.53707754611969,0,0,0.9172800183296204
2.338836711,0,0,1.53707754611969,0,0,0.7644000053405762
2.340087773,0,0,1.53707754611969,0,0,0.3822000026702881
2.341339001,0,0,1.53707754611969,0,0,0.9172800183296204
2.342587544,0,0,1.53707754611969,0,0,0.7644000053405762
2.343837013,0,0,1.53707754611969,0,0,1.070159912109375
2.345087167,0,0,1.525106430053711,0,0,0.7644000053405762
2.34633584,0,0,1.525106430053711,0,0,1.223039984703064
2.347587568,0,0,1.4508862495422363,0,0,0.9172800183296204
2.348840852,0,0,1.4508862495422363,0,0,1.070159912109375
2.350086988,0,0,1.4508862495422363,0,0,0.6879600286483765
2.351336957,0,0,1.4508862495422363,0,0,0.7644000053405762
2.35258687,0,0,1.4508862495422363,0,0,0.611519992351532
2.353837043,0,0,1.4508862495422363,0,0,0.9937199950218201
2.355086734,0,0,1.4508862495422363,0,0,0.6879600286483765
2.35633687,0,0,1.256955862045288,0,0,0.9172800183296204
2.357587265,0,0,1.256955862045288,0,0,0.9937199950218201
2.358838845,0,0,1.256955862045288,0,0,0.7644000053405762
2.360086925,0,0,1.256955862045288,0,0,0.7644000053405762
2.361337431,0,0,1.256955862045288,0,0,0.7644000053405762
2.362586882,0,0,1.256955862045288,0,0,0.7644000053405762
2.363842462,0,0,1.256955862045288,0,0,0.305759996175766
2.365087394,0,0,1.3287819623947144,0,0,0.5350799560546875
2.366337215,0,0,1.3287819623947144,0,0,0.7644000053405762
2.367587406,0,0,1.3287819623947144,0,0,0.6879600286483765
2.368870763,0,0,1.3287819623947144,0,0,0.8408399820327759
2.370134825,0,0,1.3287819623947144,0,0,0.6879600286483765
2.372734317,0,0,1.3287819623947144,0,0,0.6879600286483765
2.372757614,0,0,1.3287819623947144,0,0,0.8408399820327759
2.373856121,0,0,1.3311761617660522,0,0,0.9172800183296204
2.375088387,0,0,1.3311761617660522,0,0,0.6879600286483765
2.37633767,0,0,1.3311761617660522,0,0,1.070159912109375
2.3775862500000002,0,0,1.3311761617660522,0,0,0.9172800183296204
2.378835738,0,0,1.3311761617660522,0,0,0.9937199950218201
2.380085707,0,0,1.3311761617660522,0,0,0.9172800183296204
2.381339935,0,0,1.3311761617660522,0,0,0.6879600286483765
2.3825944039999998,0,0,1.2976573705673218,0,0,0.8408399820327759
2.38384591,0,0,1.2976573705673218,0,0,0.6879600286483765
2.3850941199999998,0,0,1.2976573705673218,0,0,0.9172800183296204
2.386337274,0,0,1.2976573705673218,0,0,0.6879600286483765
2.387587225,0,0,1.2976573705673218,0,0,0.9937199950218201
2.388837212,0,0,1.2976573705673218,0,0,0.8408399820327759
2.3900870149999998,0,0,1.2976573705673218,0,0,0.8408399820327759
2.391337095,0,0,1.3742717504501343,0,0,0.7644000053405762
2.392586138,0,0,1.3742717504501343,0,0,0.7644000053405762
2.393835662,0,0,1.3742717504501343,0,0,0.8408399820327759
2.395087224,0,0,1.3742717504501343,0,0,0.8408399820327759
2.396336878,0,0,1.3742717504501343,0,0,0.8408399820327759
2.397587014,0,0,1.3742717504501343,0,0,0.9172800183296204
2.398836964,0,0,1.45806884765625,0,0,0.9172800183296204
2.400088156,0,0,1.45806884765625,0,0,0.7644000053405762
2.401337439,0,0,1.45806884765625,0,0,0.8408399820327759
2.402592445,0,0,1.45806884765625,0,0,0.9937199950218201
2.403837229,0,0,1.45806884765625,0,0,0.9172800183296204
2.405085828,0,0,1.45806884765625,0,0,0.9172800183296204
2.406337463,0,0,1.45806884765625,0,0,0.8408399820327759
2.407587266,0,0,1.45806884765625,0,0,0.7644000053405762
2.408837161,0,0,1.5298948287963867,0,0,0.7644000053405762
2.410087389,0,0,1.5298948287963867,0,0,0.9172800183296204
2.411337228,0,0,1.5298948287963867,0,0,1.070159912109375
2.412587309,0,0,1.5298948287963867,0,0,1.070159912109375
2.413836852,0,0,1.5298948287963867,0,0,0.7644000053405762
2.4150872469999998,0,0,1.5298948287963867,0,0,0.9937199950218201
2.41633703,0,0,1.5298948287963867,0,0,0.6879600286483765
2.417586685,0,0,1.5514427423477173,0,0,0.8408399820327759
2.418835487,0,0,1.5514427423477173,0,0,0.6879600286483765
2.420087252,0,0,1.5514427423477173,0,0,0.9937199950218201
2.421338573,0,0,1.5514427423477173,0,0,0.9172800183296204
2.42258719,0,0,1.5514427423477173,0,0,0.7644000053405762
2.423837122,0,0,1.5514427423477173,0,0,0.611519992351532
2.425087258,0,0,1.5514427423477173,0,0,0.6879600286483765
2.426336393,0,0,1.4987702369689941,0,0,0.5350799560546875
2.427587307,0,0,1.4987702369689941,0,0,0.7644000053405762
2.428837054,0,0,1.4987702369689941,0,0,0.7644000053405762
2.430086912,0,0,1.4987702369689941,0,0,0.8408399820327759
2.431336955,0,0,1.4987702369689941,0,0,0.8408399820327759
2.432599405,0,0,1.4987702369689941,0,0,0.8408399820327759
2.433838633,0,0,1.4987702369689941,0,0,0.9172800183296204
2.435087325,0,0,1.50355863571167,0,0,0.7644000053405762
2.436337016,0,0,1.50355863571167,0,0,0.6879600286483765
2.437587448,0,0,1.50355863571167,0,0,0.611519992351532
2.438836972,0,0,1.50355863571167,0,0,0.6879600286483765
2.440086071,0,0,1.50355863571167,0,0,0.6879600286483765
2.441341447,0,0,1.50355863571167,0,0,0.9172800183296204
2.442587398,0,0,1.50355863571167,0,0,0.8408399820327759
2.4438372,0,0,1.4867992401123047,0,0,0.8408399820327759
2.445088743,0,0,1.4867992401123047,0,0,0.8408399820327759
2.446337083,0,0,1.4867992401123047,0,0,1.070159912109375
2.447587015,0,0,1.4867992401123047,0,0,0.611519992351532
2.44883715,0,0,1.4867992401123047,0,0,0.7644000053405762
2.450087064,0,0,1.4867992401123047,0,0,0.8408399820327759
2.451337255,0,0,1.4867992401123047,0,0,0.6879600286483765
2.452586335,0,0,1.359906554222107,0,0,0.9172800183296204
2.453836026,0,0,1.359906554222107,0,0,0.8408399820327759
2.455087403,0,0,1.359906554222107,0,0,0.7644000053405762
2.456337261,0,0,1.359906554222107,0,0,0.6879600286483765
2.457586989,0,0,1.359906554222107,0,0,0.6879600286483765
2.458837291,0,0,1.359906554222107,0,0,0.7644000053405762
2.460086983,0,0,1.359906554222107,0,0,0.9172800183296204
2.461335896,0,0,1.359906554222107,0,0,0.9172800183296204
2.462597439,0,0,1.3455413579940796,0,0,0.5350799560546875
2.463837538,0,0,1.3455413579940796,0,0,0.611519992351532
2.465087433,0,0,1.3455413579940796,0,0,0.9937199950218201
2.466337198,0,0,1.3455413579940796,0,0,1.223039984703064
2.467586982,0,0,1.3455413579940796,0,0,0.9937199950218201
2.468837062,0,0,1.3455413579940796,0,0,0.6879600286483765
2.470086883,0,0,1.3455413579940796,0,0,0.6879600286483765
2.471336944,0,0,1.280897855758667,0,0,0.611519992351532
2.472586876,0,0,1.280897855758667,0,0,0.7644000053405762
2.473845864,0,0,1.280897855758667,0,0,0.8408399820327759
2.475087703,0,0,1.280897855758667,0,0,1.1466000080108643
2.476337098,0,0,1.280897855758667,0,0,0.4586400091648102
2.4775868819999998,0,0,1.280897855758667,0,0,0.8408399820327759
2.478837166,0,0,1.280897855758667,0,0,0.6879600286483765
2.480090338,0,0,1.2497732639312744,0,0,0.7644000053405762
2.481337493,0,0,1.2497732639312744,0,0,0.9172800183296204
2.482586962,0,0,1.2497732639312744,0,0,0.6879600286483765
2.483836968,0,0,1.2497732639312744,0,0,1.070159912109375
2.485085566,0,0,1.2497732639312744,0,0,1.070159912109375
2.486337017,0,0,1.2497732639312744,0,0,0.9172800183296204
2.48758693,0,0,1.2497732639312744,0,0,1.1466000080108643
2.488836714,0,0,1.434126853942871,0,0,0.7644000053405762
2.490086757,0,0,1.434126853942871,0,0,0.6879600286483765
2.491337245,0,0,1.434126853942871,0,0,0.8408399820327759
2.492587121,0,0,1.434126853942871,0,0,0.6879600286483765
2.493836831,0,0,1.434126853942871,0,0,0.7644000053405762
2.49508717,0,0,1.434126853942871,0,0,0.5350799560546875
2.496336861,0,0,1.434126853942871,0,0,0.611519992351532
2.497591812,0,0,1.5682021379470825,0,0,0.4586400091648102
2.498835892,0,0,1.5682021379470825,0,0,0.3822000026702881
2.500087805,0,0,1.5682021379470825,0,0,0.9937199950218201
2.501336923,0,0,1.5682021379470825,0,0,0.6879600286483765
2.502586984,0,0,1.5682021379470825,0,0,0.7644000053405762
2.503837231,0,0,1.5682021379470825,0,0,0.7644000053405762
2.505087459,0,0,1.5682021379470825,0,0,0.8408399820327759
2.506335354,0,0,1.5682021379470825,0,0,0.4586400091648102
2.507587249,0,0,1.5490485429763794,0,0,0.6879600286483765
2.508836922,0,0,1.5490485429763794,0,0,0.8408399820327759
2.510087057,0,0,1.5490485429763794,0,0,0.9172800183296204
2.511336878,0,0,1.5490485429763794,0,0,0.7644000053405762
2.512587236,0,0,1.5490485429763794,0,0,0.8408399820327759
2.51383689,0,0,1.5490485429763794,0,0,0.5350799560546875
2.515086915,0,0,1.5490485429763794,0,0,0.8408399820327759
2.51633681,0,0,1.5658079385757446,0,0,0.6879600286483765
2.517589279,0,0,1.5658079385757446,0,0,0.611519992351532
2.51883884,0,0,1.5658079385757446,0,0,0.9172800183296204
2.520086291,0,0,1.5658079385757446,0,0,0.6879600286483765
2.521337501,0,0,1.5658079385757446,0,0,0.9172800183296204
2.522587099,0,0,1.5658079385757446,0,0,0.4586400091648102
2.52383742,0,0,1.5658079385757446,0,0,0.6879600286483765
2.525087223,0,0,1.5322890281677246,0,0,0.6879600286483765
2.526336858,0,0,1.5322890281677246,0,0,0.611519992351532
2.527586864,0,0,1.5322890281677246,0,0,0.7644000053405762
2.528836944,0,0,1.5322890281677246,0,0,0.9937199950218201
2.5300870619999998,0,0,1.5322890281677246,0,0,0.9937199950218201
2.531336956,0,0,1.5322890281677246,0,0,0.9172800183296204
2.532586629,0,0,1.5322890281677246,0,0,0.7644000053405762
2.533836117,0,0,1.53707754611969,0,0,0.9937199950218201
2.535087808,0,0,1.53707754611969,0,0,0.8408399820327759
2.536337092,0,0,1.53707754611969,0,0,0.8408399820327759
2.537587005,0,0,1.53707754611969,0,0,0.9172800183296204
2.538837752,0,0,1.53707754611969,0,0,0.611519992351532
2.54008698,0,0,1.53707754611969,0,0,1.070159912109375
2.54133682,0,0,1.53707754611969,0,0,0.9937199950218201
2.542592085,0,0,1.4317326545715332,0,0,0.611519992351532
2.543837424,0,0,1.4317326545715332,0,0,1.1466000080108643
2.545087171,0,0,1.4317326545715332,0,0,0.8408399820327759
2.546337196,0,0,1.4317326545715332,0,0,0.7644000053405762
2.547586924,0,0,1.4317326545715332,0,0,0.8408399820327759
2.5488368,0,0,1.4317326545715332,0,0,0.5350799560546875
2.550087954,0,0,1.4317326545715332,0,0,0.611519992351532
2.5513369790000002,0,0,1.4317326545715332,0,0,0.6879600286483765
2.552587115,0,0,1.3096283674240112,0,0,0.7644000053405762
2.553846065,0,0,1.3096283674240112,0,0,0.9172800183296204
2.555087868,0,0,1.3096283674240112,0,0,0.8408399820327759
2.556337411,0,0,1.3096283674240112,0,0,0.7644000053405762
2.557590583,0,0,1.3096283674240112,0,0,0.7644000053405762
2.558836923,0,0,1.3096283674240112,0,0,0.8408399820327759
2.560087225,0,0,1.3096283674240112,0,0,0.6879600286483765
2.561452767,0,0,1.4269442558288574,0,0,0.4586400091648102
2.5625937739999998,0,0,1.4269442558288574,0,0,0.7644000053405762
2.5638373359999997,0,0,1.4269442558288574,0,0,0.7644000053405762
2.565087583,0,0,1.4269442558288574,0,0,0.611519992351532
2.5663370519999997,0,0,1.4269442558288574,0,0,0.6879600286483765
2.567586891,0,0,1.4269442558288574,0,0,0.611519992351532
2.568836786,0,0,1.4269442558288574,0,0,0.6879600286483765
2.570087607,0,0,1.3551181554794312,0,0,0.5350799560546875
2.571336983,0,0,1.3551181554794312,0,0,0.9172800183296204
2.572586785,0,0,1.3551181554794312,0,0,0.8408399820327759
2.57383568,0,0,1.3551181554794312,0,0,0.8408399820327759
2.57508552,0,0,1.3551181554794312,0,0,0.7644000053405762
2.576337081,0,0,1.3551181554794312,0,0,0.9172800183296204
2.577586865,0,0,1.3551181554794312,0,0,0.6879600286483765
2.578837427,0,0,1.3311761617660522,0,0,0.6879600286483765
2.580086859,0,0,1.3311761617660522,0,0,0.6879600286483765
2.581336828,0,0,1.3311761617660522,0,0,0.6879600286483765
2.582586945,0,0,1.3311761617660522,0,0,0.6879600286483765
2.583838451,0,0,1.3311761617660522,0,0,1.070159912109375
2.586065873,0,0,1.3311761617660522,0,0,0.6879600286483765
