Time,AccelX1,AccelY1,AccelZ1,AccelX2,AccelY2,AccelZ2
0.000009296,0,0,1.4293384552001953,0,0,1.223039984703064
0.001273822,0,0,1.3934253454208374,0,0,0.6879600286483765
0.00225574,0,0,1.479616641998291,0,0,0.6879600286483765
0.003224083,0,0,1.4221558570861816,0,0,0.9937199950218201
0.00422587,0,0,1.4245500564575195,0,0,0.7644000053405762
0.005267361,0,0,1.501164436340332,0,0,1.070159912109375
0.006232409,0,0,1.53707754611969,0,0,0.7644000053405762
0.007274825,0,0,1.6304513216018677,0,0,0.9172800183296204
0.008245817,0,0,1.6352397203445435,0,0,0.8408399820327759
0.009286975,0,0,1.6615760326385498,0,0,1.223039984703064
0.010274021,0,0,1.678335428237915,0,0,0.9172800183296204
0.011223698,0,0,1.5322890281677246,0,0,0.8408399820327759
0.012222208,0,0,1.4652514457702637,0,0,0.9937199950218201
0.013222366,0,0,1.5203180313110352,0,0,0.6879600286483765
0.014222672,0,0,1.4317326545715332,0,0,0.9172800183296204
0.015222738,0,0,1.4077905416488647,0,0,0.5350799560546875
0.016222155,0,0,1.455674648284912,0,0,0.6879600286483765
0.017223202,0,0,1.501164436340332,0,0,0.9172800183296204
0.018223378,0,0,1.5969325304031372,0,0,0.6879600286483765
0.019222203,0,0,1.6400281190872192,0,0,0.6879600286483765
0.02022199,0,0,1.5897499322891235,0,0,0.7644000053405762
0.021221945,0,0,1.5394717454910278,0,0,0.9937199950218201
0.022275843,0,0,1.5849615335464478,0,0,0.6879600286483765
0.023230242,0,0,1.4700398445129395,0,0,0.8408399820327759
0.024222289,0,0,1.53707754611969,0,0,0.9172800183296204
0.025222428,0,0,1.4772224426269531,0,0,0.6879600286483765
0.026224605,0,0,1.3886369466781616,0,0,0.6879600286483765
0.027224985,0,0,1.4748282432556152,0,0,0.8408399820327759
0.02822842,0,0,1.5442601442337036,0,0,0.8408399820327759
0.029225115,0,0,1.5897499322891235,0,0,0.7644000053405762
0.030226199,0,0,1.5753847360610962,0,0,0.6879600286483765
0.031224876,0,0,1.5849615335464478,0,0,1.070159912109375
0.032224497,0,0,1.6280571222305298,0,0,0.7644000053405762
0.033240969,0,0,1.6615760326385498,0,0,0.8408399820327759
0.034226757,0,0,1.4963760375976563,0,0,0.9172800183296204
0.035224156,0,0,1.434126853942871,0,0,0.8408399820327759
0.036224906,0,0,1.4700398445129395,0,0,0.9172800183296204
0.037224509,0,0,1.400607943534851,0,0,0.9172800183296204
0.03822563,0,0,1.4484920501708984,0,0,0.7644000053405762
0.03922388,0,0,1.4724340438842773,0,0,0.5350799560546875
0.040224594,0,0,1.525106430053711,0,0,0.6879600286483765
0.041224863,0,0,1.6136919260025024,0,0,1.070159912109375
0.042225687,0,0,1.647210717201233,0,0,0.5350799560546875
0.043223901,0,0,1.6136919260025024,0,0,1.070159912109375
0.04422454,0,0,1.7262194156646729,0,0,0.7644000053405762
0.045224383,0,0,1.5394717454910278,0,0,0.8408399820327759
0.046225541,0,0,1.4437036514282227,0,0,1.070159912109375
0.047223829,0,0,1.4628572463989258,0,0,1.070159912109375
0.048224579,0,0,1.3551181554794312,0,0,1.070159912109375
0.049223978,0,0,1.3742717504501343,0,0,0.9937199950218201
0.050225655,0,0,1.436521053314209,0,0,0.4586400091648102
0.05122385,0,0,1.4987702369689941,0,0,0.6879600286483765
0.052224322,0,0,1.5897499322891235,0,0,0.8408399820327759
0.053224443,0,0,1.6759412288665771,0,0,1.070159912109375
0.054228897,0,0,1.6160861253738403,0,0,0.8408399820327759
0.055580997,0,0,1.6160861253738403,0,0,0.9172800183296204
0.056309972,0,0,1.599326729774475,0,0,0.9172800183296204
0.057315815,0,0,1.4317326545715332,0,0,0.9172800183296204
0.05831001,0,0,1.4532804489135742,0,0,0.9172800183296204
0.05929039,0,0,1.3934253454208374,0,0,0.9172800183296204
0.060681471,0,0,1.3934253454208374,0,0,0.7644000053405762
0.061303021,0,0,1.53707754611969,0,0,0.7644000053405762
0.062266327,0,0,1.5059528350830078,0,0,0.7644000053405762
0.063308096,0,0,1.5969325304031372,0,0,0.8408399820327759
0.064261532,0,0,1.6400281190872192,0,0,0.7644000053405762
0.065249672,0,0,1.5682021379470825,0,0,0.6879600286483765
0.066229311,0,0,1.6112977266311646,0,0,1.070159912109375
0.067235303,0,0,1.647210717201233,0,0,0.5350799560546875
0.068287756,0,0,1.4772224426269531,0,0,1.070159912109375
0.069530838,0,0,1.4772224426269531,0,0,0.7644000053405762
0.070451089,0,0,1.5155296325683594,0,0,0.9937199950218201
0.07127123,0,0,1.3766659498214722,0,0,0.6879600286483765
0.072229278,0,0,1.4293384552001953,0,0,0.8408399820327759
0.073660098,0,0,1.4293384552001953,0,0,0.5350799560546875
0.074271834,0,0,1.4652514457702637,0,0,0.5350799560546875
0.075264066,0,0,1.5682021379470825,0,0,0.8408399820327759
0.077478269,0,0,1.6160861253738403,0,0,0.6879600286483765
0.077688248,0,0,1.6160861253738403,0,0,0.9937199950218201
0.07823741,0,0,1.5442601442337036,0,0,0.9172800183296204
0.079240698,0,0,1.5059528350830078,0,0,0.7644000053405762
0.080233782,0,0,1.3910311460494995,0,0,0.9172800183296204
0.081236495,0,0,1.4772224426269531,0,0,0.9172800183296204
0.085371996,0,0,1.4939818382263184,0,0,0.4586400091648102
0.085594068,0,0,1.4939818382263184,0,0,0.2293200045824051
0.085774048,0,0,1.4939818382263184,0,0,0.2293200045824051
0.08594188,0,0,1.4939818382263184,0,0,0.5350799560546875
0.086244507,0,0,1.5682021379470825,0,0,1.1466000080108643
0.087286646,0,0,1.6663644313812256,0,0,0.6879600286483765
0.088297952,0,0,1.5610195398330688,0,0,0.9172800183296204
0.089300018,0,0,1.5682021379470825,0,0,0.7644000053405762
0.090301861,0,0,1.5945383310317993,0,0,0.7644000053405762
0.091283389,0,0,1.3886369466781616,0,0,1.070159912109375
0.092275195,0,0,1.3407529592514038,0,0,0.9172800183296204
0.093284372,0,0,1.4245500564575195,0,0,0.8408399820327759
0.094278067,0,0,1.3670891523361206,0,0,0.7644000053405762
0.095275928,0,0,1.3838485479354858,0,0,0.7644000053405762
0.096274012,0,0,1.4173674583435059,0,0,0.9172800183296204
0.097274467,0,0,1.5418659448623657,0,0,0.611519992351532
0.09825918,0,0,1.5322890281677246,0,0,1.1466000080108643
0.099274801,0,0,1.6424223184585571,0,0,0.6879600286483765
0.100249367,0,0,1.6089035272598267,0,0,0.9172800183296204
0.101268061,0,0,1.6041151285171509,0,0,0.9172800183296204
0.102255682,0,0,1.5083470344543457,0,0,1.1466000080108643
0.103256007,0,0,1.4413094520568848,0,0,0.7644000053405762
0.104248609,0,0,1.460463047027588,0,0,0.6879600286483765
0.105251119,0,0,1.3646949529647827,0,0,0.7644000053405762
0.106266444,0,0,1.4053963422775269,0,0,0.6879600286483765
0.107251009,0,0,1.4844050407409668,0,0,0.6879600286483765
0.108255741,0,0,1.5083470344543457,0,0,0.8408399820327759
0.109261066,0,0,1.580173134803772,0,0,0.9937199950218201
0.110250946,0,0,1.6304513216018677,0,0,0.9172800183296204
0.111258511,0,0,1.656787633895874,0,0,0.7644000053405762
0.112239373,0,0,1.6184803247451782,0,0,0.7644000053405762
0.113238587,0,0,1.5634137392044067,0,0,0.6879600286483765
0.114340281,0,0,1.4844050407409668,0,0,0.611519992351532
0.115253143,0,0,1.4269442558288574,0,0,0.8408399820327759
0.11624006,0,0,1.381454348564148,0,0,0.8408399820327759
0.117234904,0,0,1.3910311460494995,0,0,0.9937199950218201
0.118270932,0,0,1.4748282432556152,0,0,0.9172800183296204
0.119318571,0,0,1.4987702369689941,0,0,0.6879600286483765
0.120254396,0,0,1.6208745241165161,0,0,0.6879600286483765
0.121334794,0,0,1.6543933153152466,0,0,1.070159912109375
0.122265471,0,0,1.6280571222305298,0,0,0.7644000053405762
0.123274073,0,0,1.599326729774475,0,0,0.8408399820327759
0.124268972,0,0,1.6400281190872192,0,0,1.070159912109375
0.125279834,0,0,1.5490485429763794,0,0,0.8408399820327759
0.12626801,0,0,1.3886369466781616,0,0,0.8408399820327759
0.127269279,0,0,1.4077905416488647,0,0,0.6879600286483765
0.128271882,0,0,1.3742717504501343,0,0,1.070159912109375
0.129304224,0,0,1.4676456451416016,0,0,0.9172800183296204
0.130284531,0,0,1.4437036514282227,0,0,0.9172800183296204
0.131258707,0,0,1.482010841369629,0,0,0.8408399820327759
0.132289124,0,0,1.623268723487854,0,0,0.9172800183296204
0.133268653,0,0,1.6089035272598267,0,0,0.5350799560546875
0.134258755,0,0,1.6328455209732056,0,0,0.9172800183296204
0.135244376,0,0,1.659181833267212,0,0,0.9937199950218201
0.136297867,0,0,1.4891934394836426,0,0,0.6879600286483765
0.137384913,0,0,1.4772224426269531,0,0,0.8408399820327759
0.138387553,0,0,1.4724340438842773,0,0,0.7644000053405762
0.139320081,0,0,1.3096283674240112,0,0,0.9172800183296204
0.140273518,0,0,1.3694833517074585,0,0,0.7644000053405762
0.141274527,0,0,1.3886369466781616,0,0,0.611519992351532
0.142269852,0,0,1.5322890281677246,0,0,0.9937199950218201
0.143262158,0,0,1.6496049165725708,0,0,0.611519992351532
0.14425902,0,0,1.6927006244659424,0,0,0.7644000053405762
0.145265604,0,0,1.702277421951294,0,0,0.7644000053405762
0.146250132,0,0,1.6304513216018677,0,0,0.9937199950218201
0.14723742,0,0,1.5179238319396973,0,0,0.6879600286483765
0.148262392,0,0,1.4676456451416016,0,0,0.9937199950218201
0.149261347,0,0,1.4628572463989258,0,0,0.9937199950218201
0.150246023,0,0,1.4652514457702637,0,0,0.8408399820327759
0.151268885,0,0,1.4700398445129395,0,0,0.611519992351532
0.152333079,0,0,1.3479355573654175,0,0,0.8408399820327759
0.153289052,0,0,1.525106430053711,0,0,0.611519992351532
0.154262322,0,0,1.5969325304031372,0,0,0.9172800183296204
0.155247017,0,0,1.678335428237915,0,0,0.9172800183296204
0.156277341,0,0,1.6519991159439087,0,0,0.6879600286483765
0.157282906,0,0,1.5753847360610962,0,0,0.9172800183296204
0.158273916,0,0,1.6543933153152466,0,0,0.9937199950218201
0.159259945,0,0,1.5753847360610962,0,0,0.7644000053405762
0.160262658,0,0,1.4508862495422363,0,0,1.070159912109375
0.161255927,0,0,1.4844050407409668,0,0,0.8408399820327759
0.162255956,0,0,1.4269442558288574,0,0,1.070159912109375
0.163281169,0,0,1.4772224426269531,0,0,0.9172800183296204
0.164250123,0,0,1.434126853942871,0,0,0.9172800183296204
0.165269392,0,0,1.558625340461731,0,0,0.6879600286483765
0.166265013,0,0,1.5729905366897583,0,0,0.7644000053405762
0.16727943,0,0,1.6615760326385498,0,0,0.6879600286483765
0.168265848,0,0,1.721431016921997,0,0,1.1466000080108643
0.169261691,0,0,1.647210717201233,0,0,0.611519992351532
0.170259052,0,0,1.5107412338256836,0,0,0.8408399820327759
0.171260525,0,0,1.4484920501708984,0,0,0.8408399820327759
0.172270257,0,0,1.3742717504501343,0,0,0.611519992351532
0.173249823,0,0,1.4077905416488647,0,0,0.6879600286483765
0.174246592,0,0,1.4652514457702637,0,0,0.5350799560546875
0.175253064,0,0,1.5203180313110352,0,0,0.9172800183296204
0.176264037,0,0,1.5705963373184204,0,0,0.611519992351532
0.17726438,0,0,1.5849615335464478,0,0,0.6879600286483765
0.178260798,0,0,1.6543933153152466,0,0,0.9172800183296204
0.179266733,0,0,1.5921441316604614,0,0,0.6879600286483765
0.180270724,0,0,1.6759412288665771,0,0,0.9172800183296204
0.181266956,0,0,1.6831238269805908,0,0,0.6879600286483765
0.182264929,0,0,1.525106430053711,0,0,1.070159912109375
0.183265476,0,0,1.4532804489135742,0,0,0.9172800183296204
0.184267412,0,0,1.460463047027588,0,0,0.8408399820327759
0.185266773,0,0,1.6112977266311646,0,0,0.6879600286483765
0.18906987,0,0,1.6112977266311646,0,0,0.9172800183296204
0.189240591,0,0,1.6112977266311646,0,0,0.9172800183296204
0.189407441,0,0,1.6112977266311646,0,0,0
0.189576458,0,0,1.5538369417190552,0,0,0.8408399820327759
0.190261582,0,0,1.556231141090393,0,0,0.611519992351532
0.191297758,0,0,1.6376339197158813,0,0,0.9172800183296204
0.192263898,0,0,1.5897499322891235,0,0,0.8408399820327759
0.193270574,0,0,1.4987702369689941,0,0,0.9172800183296204
0.194269436,0,0,1.556231141090393,0,0,0.7644000053405762
0.195267964,0,0,1.4939818382263184,0,0,0.611519992351532
0.196271752,0,0,1.5179238319396973,0,0,0.8408399820327759
0.197273095,0,0,1.4676456451416016,0,0,0.7644000053405762
0.198254864,0,0,1.5131354331970215,0,0,0.9172800183296204
0.1992628,0,0,1.5179238319396973,0,0,0.8408399820327759
0.200320883,0,0,1.6160861253738403,0,0,0.8408399820327759
0.201372615,0,0,1.7070658206939697,0,0,0.4586400091648102
0.202384272,0,0,1.6543933153152466,0,0,0.6879600286483765
0.203362338,0,0,1.659181833267212,0,0,0.9172800183296204
0.204339144,0,0,1.53707754611969,0,0,0.6879600286483765
0.205340765,0,0,1.400607943534851,0,0,0.9172800183296204
0.20631122,0,0,1.3958195447921753,0,0,0.8408399820327759
0.207393266,0,0,1.381454348564148,0,0,1.070159912109375
0.208368776,0,0,1.414973258972168,0,0,0.5350799560546875
0.209354934,0,0,1.4867992401123047,0,0,0.6879600286483765
0.210393332,0,0,1.5610195398330688,0,0,0.8408399820327759
0.211344324,0,0,1.53707754611969,0,0,0.9937199950218201
0.212326852,0,0,1.580173134803772,0,0,0.9937199950218201
0.213306733,0,0,1.6041151285171509,0,0,0.9172800183296204
0.215607453,0,0,1.6041151285171509,0,0,0.2293200045824051
0.215784637,0,0,1.6304513216018677,0,0,0.2293200045824051
0.216278188,0,0,1.4532804489135742,0,0,1.1466000080108643
0.217356346,0,0,1.4532804489135742,0,0,0.6879600286483765
0.21840917,0,0,1.4700398445129395,0,0,0.7644000053405762
0.219350884,0,0,1.4460978507995605,0,0,0.9172800183296204
0.220302468,0,0,1.4293384552001953,0,0,0.611519992351532
0.221303385,0,0,1.4508862495422363,0,0,0.9172800183296204
0.222382487,0,0,1.522712230682373,0,0,1.070159912109375
0.223333423,0,0,1.6304513216018677,0,0,0.6879600286483765
0.224301007,0,0,1.656787633895874,0,0,0.7644000053405762
0.22529661,0,0,1.6376339197158813,0,0,0.9937199950218201
0.226309916,0,0,1.601720929145813,0,0,0.9937199950218201
0.227309092,0,0,1.5825673341751099,0,0,1.070159912109375
0.228263973,0,0,1.4389152526855469,0,0,0.6879600286483765
0.230457009,0,0,1.4389152526855469,0,0,1.1466000080108643
0.230633563,0,0,1.436521053314209,0,0,0.9937199950218201
0.231283428,0,0,1.455674648284912,0,0,0.9172800183296204
0.232294197,0,0,1.5107412338256836,0,0,0.6879600286483765
0.233270836,0,0,1.577778935432434,0,0,0.611519992351532
0.234257624,0,0,1.6112977266311646,0,0,0.9937199950218201
0.235244449,0,0,1.6400281190872192,0,0,0.7644000053405762
0.236244773,0,0,1.5897499322891235,0,0,0.9937199950218201
0.237252968,0,0,1.6639702320098877,0,0,0.9937199950218201
0.238363162,0,0,1.6376339197158813,0,0,0.5350799560546875
0.239231562,0,0,1.4772224426269531,0,0,0.7644000053405762
0.240227424,0,0,1.4844050407409668,0,0,0.8408399820327759
0.241240785,0,0,1.436521053314209,0,0,0.9172800183296204
0.242270888,0,0,1.4413094520568848,0,0,1.070159912109375
0.24331523,0,0,1.4437036514282227,0,0,0.9172800183296204
0.244280629,0,0,1.4987702369689941,0,0,0.7644000053405762
0.24526351,0,0,1.5729905366897583,0,0,0.6879600286483765
0.246228038,0,0,1.6759412288665771,0,0,0.9172800183296204
0.2472309,0,0,1.6496049165725708,0,0,0.6879600286483765
0.248226187,0,0,1.6424223184585571,0,0,0.8408399820327759
0.249225494,0,0,1.5873557329177856,0,0,0.8408399820327759
0.250227133,0,0,1.50355863571167,0,0,0.9172800183296204
0.251227402,0,0,1.4867992401123047,0,0,0.7644000053405762
0.252226171,0,0,1.4724340438842773,0,0,0.9172800183296204
0.253226218,0,0,1.37906014919281,0,0,1.1466000080108643
0.254226746,0,0,1.414973258972168,0,0,0.8408399820327759
0.255223441,0,0,1.5179238319396973,0,0,0.5350799560546875
0.256223581,0,0,1.6160861253738403,0,0,0.7644000053405762
0.257252924,0,0,1.6089035272598267,0,0,0.611519992351532
0.258228415,0,0,1.625662922859192,0,0,0.611519992351532
0.25922711,0,0,1.577778935432434,0,0,0.8408399820327759
0.260226472,0,0,1.6543933153152466,0,0,0.8408399820327759
0.261226167,0,0,1.53707754611969,0,0,0.8408399820327759
0.262226621,0,0,1.4508862495422363,0,0,0.9937199950218201
0.263224557,0,0,1.4197616577148438,0,0,0.611519992351532
0.264223529,0,0,1.3287819623947144,0,0,0.5350799560546875
0.265223558,0,0,1.4437036514282227,0,0,0.8408399820327759
0.266225382,0,0,1.4053963422775269,0,0,0.9172800183296204
0.26722654,0,0,1.4628572463989258,0,0,0.6879600286483765
0.268225791,0,0,1.5538369417190552,0,0,0.7644000053405762
0.26922556,0,0,1.5969325304031372,0,0,0.8408399820327759
0.270225199,0,0,1.656787633895874,0,0,0.7644000053405762
0.271226468,0,0,1.6184803247451782,0,0,0.8408399820327759
0.272226441,0,0,1.522712230682373,0,0,0.7644000053405762
0.273226303,0,0,1.359906554222107,0,0,0.7644000053405762
0.274226479,0,0,1.4221558570861816,0,0,0.7644000053405762
0.275223156,0,0,1.3670891523361206,0,0,0.6879600286483765
0.276223517,0,0,1.3000515699386597,0,0,0.9937199950218201
0.277223509,0,0,1.4987702369689941,0,0,0.6879600286483765
0.278225074,0,0,1.5538369417190552,0,0,0.8408399820327759
0.279226047,0,0,1.4987702369689941,0,0,0.8408399820327759
0.280225686,0,0,1.5825673341751099,0,0,0.9172800183296204
0.281225529,0,0,1.5394717454910278,0,0,0.611519992351532
0.282226447,0,0,1.5873557329177856,0,0,0.9172800183296204
0.283226197,0,0,1.6663644313812256,0,0,1.070159912109375
0.284225503,0,0,1.4867992401123047,0,0,0.9172800183296204
0.285225754,0,0,1.434126853942871,0,0,0.9937199950218201
0.286225782,0,0,1.4628572463989258,0,0,0.8408399820327759
0.287227366,0,0,1.434126853942871,0,0,0.9937199950218201
0.288226135,0,0,1.4508862495422363,0,0,0.6879600286483765
0.289226163,0,0,1.4293384552001953,0,0,0.8408399820327759
0.290226469,0,0,1.5083470344543457,0,0,0.9937199950218201
0.291223479,0,0,1.5658079385757446,0,0,0.9937199950218201
0.292223045,0,0,1.6639702320098877,0,0,0.5350799560546875
0.293223591,0,0,1.6352397203445435,0,0,0.7644000053405762
0.29422512,0,0,1.6496049165725708,0,0,1.1466000080108643
0.295225778,0,0,1.558625340461731,0,0,1.1466000080108643
0.296225362,0,0,1.4628572463989258,0,0,0.6879600286483765
0.297225816,0,0,1.5059528350830078,0,0,0.8408399820327759
0.298225881,0,0,1.460463047027588,0,0,0.7644000053405762
0.299225928,0,0,1.50355863571167,0,0,0.8408399820327759
0.300225586,0,0,1.4987702369689941,0,0,0.7644000053405762
0.301225577,0,0,1.5969325304031372,0,0,0.8408399820327759
0.302225698,0,0,1.6496049165725708,0,0,0.7644000053405762
0.303226171,0,0,1.6400281190872192,0,0,0.9937199950218201
0.304226051,0,0,1.6208745241165161,0,0,0.611519992351532
0.305226061,0,0,1.656787633895874,0,0,0.7644000053405762
0.306226256,0,0,1.6136919260025024,0,0,0.8408399820327759
0.307223358,0,0,1.4987702369689941,0,0,0.8408399820327759
0.308223183,0,0,1.4628572463989258,0,0,0.9937199950218201
0.309223582,0,0,1.4245500564575195,0,0,0.611519992351532
0.310224869,0,0,1.314416766166687,0,0,0.611519992351532
0.311226286,0,0,1.357512354850769,0,0,0.6879600286483765
0.312225667,0,0,1.3910311460494995,0,0,0.9172800183296204
0.313225584,0,0,1.5059528350830078,0,0,0.5350799560546875
0.314225649,0,0,1.6089035272598267,0,0,0.6879600286483765
0.315232751,0,0,1.5945383310317993,0,0,0.6879600286483765
0.316224817,0,0,1.5729905366897583,0,0,0.9172800183296204
0.317223178,0,0,1.6328455209732056,0,0,0.8408399820327759
0.318225244,0,0,1.534683346748352,0,0,0.9172800183296204
0.319226605,0,0,1.556231141090393,0,0,1.070159912109375
0.320226041,0,0,1.4628572463989258,0,0,0.9937199950218201
0.321225755,0,0,1.2617442607879639,0,0,0.9937199950218201
0.322236024,0,0,1.3718775510787964,0,0,0.7644000053405762
0.323226385,0,0,1.4628572463989258,0,0,0.611519992351532
0.324226025,0,0,1.5969325304031372,0,0,0.6879600286483765
0.32522572,0,0,1.6184803247451782,0,0,0.611519992351532
0.326226989,0,0,1.723825216293335,0,0,0.9172800183296204
0.327224739,0,0,1.7046716213226318,0,0,0.7644000053405762
0.328225583,0,0,1.723825216293335,0,0,1.070159912109375
0.329225703,0,0,1.5155296325683594,0,0,0.9937199950218201
0.33022651,0,0,1.4173674583435059,0,0,0.7644000053405762
0.331225056,0,0,1.4844050407409668,0,0,0.7644000053405762
0.332225807,0,0,1.403002142906189,0,0,0.9937199950218201
0.333225669,0,0,1.4724340438842773,0,0,0.9172800183296204
0.334226493,0,0,1.4867992401123047,0,0,0.7644000053405762
0.335224818,0,0,1.5442601442337036,0,0,0.9172800183296204
0.336225698,0,0,1.5538369417190552,0,0,0.5350799560546875
0.337225689,0,0,1.7094600200653076,0,0,0.9172800183296204
0.338226532,0,0,1.6112977266311646,0,0,0.6879600286483765
0.339224727,0,0,1.6280571222305298,0,0,0.9172800183296204
0.340225737,0,0,1.5538369417190552,0,0,0.9937199950218201
0.341225728,0,0,1.4317326545715332,0,0,0.9937199950218201
0.342226405,0,0,1.4077905416488647,0,0,0.9172800183296204
0.34322523,0,0,1.4077905416488647,0,0,0.9172800183296204
0.344225758,0,0,1.3982137441635132,0,0,0.8408399820327759
0.345226008,0,0,1.3766659498214722,0,0,0.9172800183296204
0.346226685,0,0,1.4269442558288574,0,0,0.6879600286483765
0.347225232,0,0,1.5322890281677246,0,0,0.7644000053405762
0.348225853,0,0,1.5921441316604614,0,0,0.9937199950218201
0.349225881,0,0,1.6496049165725708,0,0,0.6879600286483765
0.350226428,0,0,1.6855180263519287,0,0,0.7644000053405762
0.351225326,0,0,1.6831238269805908,0,0,0.6879600286483765
0.352225651,0,0,1.522712230682373,0,0,0.9937199950218201
0.353226328,0,0,1.4484920501708984,0,0,0.6879600286483765
0.35422706,0,0,1.4221558570861816,0,0,0.8408399820327759
0.355225366,0,0,1.314416766166687,0,0,0.9172800183296204
0.356225616,0,0,1.4508862495422363,0,0,0.9172800183296204
0.357225422,0,0,1.558625340461731,0,0,0.7644000053405762
0.358226339,0,0,1.5969325304031372,0,0,0.8408399820327759
0.359225257,0,0,1.6065093278884888,0,0,0.9937199950218201
0.360225341,0,0,1.7286136150360107,0,0,0.6879600286483765
0.361225924,0,0,1.6089035272598267,0,0,0.8408399820327759
0.362226286,0,0,1.6065093278884888,0,0,0.8408399820327759
0.36346022,0,0,1.5538369417190552,0,0,0.5350799560546875
0.364227009,0,0,1.4748282432556152,0,0,0.8408399820327759
0.36522626,0,0,1.5322890281677246,0,0,1.1466000080108643
0.366226566,0,0,1.4676456451416016,0,0,0.9172800183296204
0.367225298,0,0,1.403002142906189,0,0,0.8408399820327759
0.368225826,0,0,1.479616641998291,0,0,0.611519992351532
0.369225595,0,0,1.534683346748352,0,0,0.6879600286483765
0.370226439,0,0,1.5682021379470825,0,0,0.9172800183296204
0.371225022,0,0,1.7357962131500244,0,0,0.8408399820327759
0.372225773,0,0,1.7477672100067139,0,0,0.9172800183296204
0.373225672,0,0,1.6352397203445435,0,0,0.7644000053405762
0.374226441,0,0,1.6663644313812256,0,0,0.9937199950218201
0.375225247,0,0,1.5083470344543457,0,0,0.7644000053405762
0.376225886,0,0,1.3910311460494995,0,0,0.9937199950218201
0.377225952,0,0,1.4197616577148438,0,0,0.9937199950218201
0.378225906,0,0,1.4173674583435059,0,0,0.611519992351532
0.37923549,0,0,1.4772224426269531,0,0,0.7644000053405762
0.380226537,0,0,1.4652514457702637,0,0,0.8408399820327759
0.381225824,0,0,1.5155296325683594,0,0,0.5350799560546875
0.382225945,0,0,1.5825673341751099,0,0,0.6879600286483765
0.383224714,0,0,1.625662922859192,0,0,0.6879600286483765
0.38422552,0,0,1.6639702320098877,0,0,0.7644000053405762
0.385237085,0,0,1.6974890232086182,0,0,0.7644000053405762
0.386225892,0,0,1.5634137392044067,0,0,0.8408399820327759
0.38722429,0,0,1.4628572463989258,0,0,0.9172800183296204
0.388223967,0,0,1.434126853942871,0,0,0.8408399820327759
0.389223699,0,0,1.45806884765625,0,0,0.3822000026702881
0.390223616,0,0,1.4053963422775269,0,0,0.9172800183296204
0.391223644,0,0,1.4484920501708984,0,0,0.7644000053405762
0.392223525,0,0,1.4939818382263184,0,0,0.9172800183296204
0.393223497,0,0,1.580173134803772,0,0,0.5350799560546875
0.3942236,0,0,1.7046716213226318,0,0,0.6879600286483765
0.395223924,0,0,1.764526605606079,0,0,0.611519992351532
0.396223582,0,0,1.5945383310317993,0,0,0.8408399820327759
0.397223351,0,0,1.601720929145813,0,0,0.611519992351532
0.398225417,0,0,1.4508862495422363,0,0,0.8408399820327759
0.399226445,0,0,1.4867992401123047,0,0,0.8408399820327759
0.400225733,0,0,1.4101848602294922,0,0,0.611519992351532
0.401225742,0,0,1.4389152526855469,0,0,0.7644000053405762
0.402227511,0,0,1.4939818382263184,0,0,0.6879600286483765
0.40322541,0,0,1.5083470344543457,0,0,0.7644000053405762
0.404225327,0,0,1.5442601442337036,0,0,0.611519992351532
0.405225578,0,0,1.5442601442337036,0,0,0.8408399820327759
0.406226625,0,0,1.6519991159439087,0,0,0.6879600286483765
0.407225375,0,0,1.6041151285171509,0,0,0.6879600286483765
0.408225478,0,0,1.5514427423477173,0,0,0.8408399820327759
0.409225858,0,0,1.6543933153152466,0,0,0.9937199950218201
0.410226368,0,0,1.5059528350830078,0,0,0.9172800183296204
0.4112251,0,0,1.4460978507995605,0,0,0.9172800183296204
0.412225665,0,0,1.3886369466781616,0,0,0.9937199950218201
0.413225749,0,0,1.292868971824646,0,0,0.6879600286483765
0.414228425,0,0,1.3910311460494995,0,0,0.8408399820327759
0.415226602,0,0,1.5514427423477173,0,0,0.8408399820327759
0.416282907,0,0,1.5514427423477173,0,0,0.6879600286483765
0.417233251,0,0,1.6352397203445435,0,0,0.7644000053405762
0.418229039,0,0,1.7094600200653076,0,0,0.6879600286483765
0.419231622,0,0,1.6424223184585571,0,0,0.9172800183296204
0.420227132,0,0,1.6208745241165161,0,0,1.1466000080108643
0.42122592,0,0,1.556231141090393,0,0,0.8408399820327759
0.422227485,0,0,1.525106430053711,0,0,0.8408399820327759
0.423225365,0,0,1.4939818382263184,0,0,0.7644000053405762
0.424225875,0,0,1.4317326545715332,0,0,0.9172800183296204
0.425225163,0,0,1.4460978507995605,0,0,0.9172800183296204
0.426227135,0,0,1.4317326545715332,0,0,0.6879600286483765
0.427224775,0,0,1.4077905416488647,0,0,0.8408399820327759
0.428225544,0,0,1.4963760375976563,0,0,1.070159912109375
0.429225683,0,0,1.6352397203445435,0,0,0.611519992351532
0.430226249,0,0,1.5897499322891235,0,0,0.6879600286483765
0.431579348,0,0,1.5897499322891235,0,0,0.8408399820327759
0.432226139,0,0,1.6065093278884888,0,0,0.9172800183296204
0.433223815,0,0,1.4437036514282227,0,0,0.9172800183296204
0.434223399,0,0,1.41257905960083,0,0,0.8408399820327759
0.435224316,0,0,1.4221558570861816,0,0,0.5350799560546875
0.436223659,0,0,1.3407529592514038,0,0,0.9172800183296204
0.437223317,0,0,1.45806884765625,0,0,0.6879600286483765
0.438223642,0,0,1.5179238319396973,0,0,0.8408399820327759
0.439223726,0,0,1.6927006244659424,0,0,0.611519992351532
0.440223143,0,0,1.702277421951294,0,0,0.5350799560546875
0.441223264,0,0,1.6759412288665771,0,0,0.9172800183296204
0.44222357,0,0,1.6735470294952393,0,0,0.9937199950218201
0.443241209,0,0,1.6519991159439087,0,0,0.611519992351532
0.44422396,0,0,1.4652514457702637,0,0,0.9172800183296204
0.445223266,0,0,1.4293384552001953,0,0,1.070159912109375
0.446224831,0,0,1.5107412338256836,0,0,0.8408399820327759
0.447225712,0,0,1.3886369466781616,0,0,0.7644000053405762
0.448225592,0,0,1.3910311460494995,0,0,0.9172800183296204
0.449225472,0,0,1.482010841369629,0,0,0.6879600286483765
0.450226723,0,0,1.50355863571167,0,0,0.9172800183296204
0.451224658,0,0,1.5729905366897583,0,0,0.9172800183296204
0.452225372,0,0,1.647210717201233,0,0,0.8408399820327759
0.453226159,0,0,1.6663644313812256,0,0,0.611519992351532
0.454226391,0,0,1.6663644313812256,0,0,0.6879600286483765
0.455225994,0,0,1.5298948287963867,0,0,0.7644000053405762
0.456226078,0,0,1.4221558570861816,0,0,0.6879600286483765
0.457225995,0,0,1.4293384552001953,0,0,0.6879600286483765
0.458226431,0,0,1.4197616577148438,0,0,1.070159912109375
0.459223329,0,0,1.3886369466781616,0,0,0.7644000053405762
0.460223135,0,0,1.5442601442337036,0,0,0.4586400091648102
0.461223145,0,0,1.599326729774475,0,0,0.8408399820327759
0.462225488,0,0,1.6496049165725708,0,0,0.611519992351532
0.463225961,0,0,1.656787633895874,0,0,0.5350799560546875
0.464225563,0,0,1.6280571222305298,0,0,0.9172800183296204
0.465225499,0,0,1.6400281190872192,0,0,0.8408399820327759
0.466225972,0,0,1.6759412288665771,0,0,0.4586400091648102
0.467225352,0,0,1.4628572463989258,0,0,0.5350799560546875
0.468225195,0,0,1.3503297567367554,0,0,0.9172800183296204
0.469225538,0,0,1.3862427473068237,0,0,0.8408399820327759
0.47022627,0,0,1.2952631711959839,0,0,0.7644000053405762
0.471224965,0,0,1.4484920501708984,0,0,0.8408399820327759
0.472225568,0,0,1.4867992401123047,0,0,0.7644000053405762
0.473225281,0,0,1.5298948287963867,0,0,0.7644000053405762
0.474226143,0,0,1.6376339197158813,0,0,0.9172800183296204
0.475225097,0,0,1.6280571222305298,0,0,0.611519992351532
0.476225607,0,0,1.6543933153152466,0,0,1.070159912109375
0.477225672,0,0,1.6352397203445435,0,0,0.9172800183296204
0.47822633,0,0,1.53707754611969,0,0,0.9172800183296204
0.479224988,0,0,1.4915876388549805,0,0,0.9172800183296204
0.480225739,0,0,1.3838485479354858,0,0,0.9172800183296204
0.481225526,0,0,1.3503297567367554,0,0,0.9172800183296204
0.482226369,0,0,1.4437036514282227,0,0,0.5350799560546875
0.483224694,0,0,1.482010841369629,0,0,0.8408399820327759
0.484225185,0,0,1.5418659448623657,0,0,0.7644000053405762
0.485233399,0,0,1.6519991159439087,0,0,0.7644000053405762
0.486227149,0,0,1.6903064250946045,0,0,0.611519992351532
0.487225418,0,0,1.644816517829895,0,0,0.9937199950218201
0.488225706,0,0,1.6208745241165161,0,0,0.7644000053405762
0.48922566,0,0,1.6304513216018677,0,0,0.9172800183296204
0.49022604,0,0,1.482010841369629,0,0,0.8408399820327759
0.491225124,0,0,1.4245500564575195,0,0,0.8408399820327759
0.492225745,0,0,1.482010841369629,0,0,0.6879600286483765
0.493225644,0,0,1.455674648284912,0,0,0.6879600286483765
0.494226283,0,0,1.5418659448623657,0,0,0.7644000053405762
0.495225293,0,0,1.577778935432434,0,0,0.7644000053405762
0.496225784,0,0,1.5634137392044067,0,0,1.070159912109375
0.497225591,0,0,1.5705963373184204,0,0,0.9172800183296204
0.498226341,0,0,1.6160861253738403,0,0,0.9172800183296204
0.499225369,0,0,1.6424223184585571,0,0,0.9937199950218201
0.50022575,0,0,1.6615760326385498,0,0,0.9172800183296204
0.50122563,0,0,1.4173674583435059,0,0,0.7644000053405762
0.502226528,0,0,1.4652514457702637,0,0,0.9172800183296204
0.503225131,0,0,1.357512354850769,0,0,0.9172800183296204
0.504225567,0,0,1.3431471586227417,0,0,0.8408399820327759
0.505225762,0,0,1.3910311460494995,0,0,0.3822000026702881
0.506226364,0,0,1.4891934394836426,0,0,0.9172800183296204
0.507232466,0,0,1.5969325304031372,0,0,0.7644000053405762
0.508226272,0,0,1.5466543436050415,0,0,0.7644000053405762
0.509225875,0,0,1.625662922859192,0,0,0.8408399820327759
0.510226273,0,0,1.6160861253738403,0,0,0.9937199950218201
0.511224635,0,0,1.6328455209732056,0,0,0.7644000053405762
0.512225478,0,0,1.5682021379470825,0,0,0.7644000053405762
0.513253784,0,0,1.4628572463989258,0,0,0.9172800183296204
0.514228535,0,0,1.4652514457702637,0,0,0.7644000053405762
0.515225378,0,0,1.3694833517074585,0,0,0.9937199950218201
0.516225703,0,0,1.414973258972168,0,0,0.9937199950218201
0.517225249,0,0,1.460463047027588,0,0,0.611519992351532
0.518226352,0,0,1.41257905960083,0,0,0.611519992351532
0.519225158,0,0,1.6136919260025024,0,0,0.8408399820327759
0.520225871,0,0,1.7190368175506592,0,0,0.8408399820327759
0.521225641,0,0,1.5969325304031372,0,0,1.070159912109375
0.522226521,0,0,1.6711528301239014,0,0,0.8408399820327759
0.52322616,0,0,1.556231141090393,0,0,1.070159912109375
0.524225596,0,0,1.3551181554794312,0,0,0.9172800183296204
0.525225495,0,0,1.335964560508728,0,0,0.8408399820327759
0.526226523,0,0,1.4915876388549805,0,0,0.6879600286483765
0.527224681,0,0,1.4748282432556152,0,0,0.7644000053405762
0.528225357,0,0,1.4772224426269531,0,0,0.7644000053405762
0.529225719,0,0,1.5490485429763794,0,0,0.6879600286483765
0.530226247,0,0,1.577778935432434,0,0,0.7644000053405762
0.531224998,0,0,1.6160861253738403,0,0,0.8408399820327759
0.532225322,0,0,1.623268723487854,0,0,0.611519992351532
0.533225277,0,0,1.5514427423477173,0,0,0.9937199950218201
0.534225916,0,0,1.6065093278884888,0,0,0.8408399820327759
0.535224667,0,0,1.525106430053711,0,0,0.9172800183296204
0.536225713,0,0,1.4628572463989258,0,0,0.9172800183296204
0.537225594,0,0,1.41257905960083,0,0,0.6879600286483765
0.538226696,0,0,1.3407529592514038,0,0,0.9172800183296204
0.539224872,0,0,1.4101848602294922,0,0,0.8408399820327759
0.540225512,0,0,1.4437036514282227,0,0,0.6879600286483765
0.541225522,0,0,1.5275006294250488,0,0,0.7644000053405762
0.542226439,0,0,1.5298948287963867,0,0,0.9172800183296204
0.543225078,0,0,1.6328455209732056,0,0,0.5350799560546875
0.544225496,0,0,1.601720929145813,0,0,0.9937199950218201
0.545225653,0,0,1.6065093278884888,0,0,0.9172800183296204
0.546226311,0,0,1.5083470344543457,0,0,0.8408399820327759
0.547225025,0,0,1.3623007535934448,0,0,0.9172800183296204
0.548225646,0,0,1.3934253454208374,0,0,0.8408399820327759
0.549225693,0,0,1.3479355573654175,0,0,0.9937199950218201
0.550226258,0,0,1.3958195447921753,0,0,0.611519992351532
0.551224731,0,0,1.4772224426269531,0,0,0.7644000053405762
0.552225648,0,0,1.558625340461731,0,0,0.8408399820327759
0.553225454,0,0,1.5155296325683594,0,0,0.9172800183296204
0.554228445,0,0,1.6304513216018677,0,0,0.7644000053405762
0.555224251,0,0,1.53707754611969,0,0,0.8408399820327759
0.556225465,0,0,1.5921441316604614,0,0,0.7644000053405762
0.557225549,0,0,1.6615760326385498,0,0,0.7644000053405762
0.558226836,0,0,1.4245500564575195,0,0,1.223039984703064
0.559224828,0,0,1.4484920501708984,0,0,0.8408399820327759
0.560225615,0,0,1.4676456451416016,0,0,0.611519992351532
0.561225514,0,0,1.4293384552001953,0,0,0.8408399820327759
0.562226283,0,0,1.4748282432556152,0,0,0.7644000053405762
0.563225034,0,0,1.4963760375976563,0,0,0.4586400091648102
0.564225766,0,0,1.6208745241165161,0,0,0.8408399820327759
0.565225387,0,0,1.6639702320098877,0,0,0.5350799560546875
0.566226156,0,0,1.656787633895874,0,0,0.9172800183296204
0.567225036,0,0,1.656787633895874,0,0,0.7644000053405762
0.568225583,0,0,1.577778935432434,0,0,0.8408399820327759
0.569225537,0,0,1.4652514457702637,0,0,0.9172800183296204
0.570226361,0,0,1.4437036514282227,0,0,0.7644000053405762
0.571224964,0,0,1.436521053314209,0,0,1.223039984703064
0.572225566,0,0,1.3910311460494995,0,0,0.9172800183296204
0.573225317,0,0,1.4652514457702637,0,0,0.6879600286483765
0.574226401,0,0,1.5083470344543457,0,0,0.6879600286483765
0.575224929,0,0,1.5203180313110352,0,0,0.7644000053405762
0.576225087,0,0,1.5682021379470825,0,0,0.611519992351532
0.577225541,0,0,1.6543933153152466,0,0,0.611519992351532
0.578226236,0,0,1.5682021379470825,0,0,0.8408399820327759
0.579224987,0,0,1.656787633895874,0,0,1.070159912109375
0.580225719,0,0,1.6065093278884888,0,0,0.9937199950218201
0.581225728,0,0,1.4460978507995605,0,0,0.7644000053405762
0.582225905,0,0,1.4389152526855469,0,0,0.8408399820327759
0.583224674,0,0,1.414973258972168,0,0,0.6879600286483765
0.584225054,0,0,1.482010841369629,0,0,0.7644000053405762
0.585240193,0,0,1.525106430053711,0,0,0.611519992351532
0.5862365,0,0,1.5729905366897583,0,0,0.7644000053405762
0.58722538,0,0,1.6400281190872192,0,0,0.9172800183296204
0.588223464,0,0,1.7094600200653076,0,0,1.070159912109375
0.589223196,0,0,1.5849615335464478,0,0,0.6879600286483765
0.590223446,0,0,1.5729905366897583,0,0,0.9937199950218201
0.591223604,0,0,1.5490485429763794,0,0,0.7644000053405762
0.592223188,0,0,1.3694833517074585,0,0,0.9937199950218201
0.593223216,0,0,1.4628572463989258,0,0,0.6879600286483765
0.594223189,0,0,1.4413094520568848,0,0,0.611519992351532
0.59522394,0,0,1.434126853942871,0,0,0.7644000053405762
0.596223135,0,0,1.5083470344543457,0,0,0.9172800183296204
0.597223089,0,0,1.4700398445129395,0,0,0.8408399820327759
0.598224599,0,0,1.4652514457702637,0,0,0.611519992351532
0.599226016,0,0,1.577778935432434,0,0,0.8408399820327759
0.600225396,0,0,1.6352397203445435,0,0,0.6879600286483765
0.601225406,0,0,1.6304513216018677,0,0,1.1466000080108643
0.602226286,0,0,1.6974890232086182,0,0,0.9937199950218201
0.60322474,0,0,1.5083470344543457,0,0,0.8408399820327759
0.604225435,0,0,1.3958195447921753,0,0,0.7644000053405762
0.605225371,0,0,1.359906554222107,0,0,0.9172800183296204
0.606225992,0,0,1.3742717504501343,0,0,0.9937199950218201
0.607224872,0,0,1.4700398445129395,0,0,0.8408399820327759
0.608225289,0,0,1.4915876388549805,0,0,0.6879600286483765
0.609225336,0,0,1.5538369417190552,0,0,0.7644000053405762
0.610225827,0,0,1.5921441316604614,0,0,0.7644000053405762
0.611224245,0,0,1.6160861253738403,0,0,0.7644000053405762
0.612232921,0,0,1.6208745241165161,0,0,0.6879600286483765
0.613235635,0,0,1.647210717201233,0,0,1.1466000080108643
0.614227681,0,0,1.5682021379470825,0,0,0.611519992351532
0.61522471,0,0,1.4413094520568848,0,0,0.9172800183296204
0.616224886,0,0,1.479616641998291,0,0,0.7644000053405762
0.617230711,0,0,1.3958195447921753,0,0,0.6879600286483765
0.618226832,0,0,1.3623007535934448,0,0,0.7644000053405762
0.619224416,0,0,1.4772224426269531,0,0,0.611519992351532
0.620225648,0,0,1.4963760375976563,0,0,0.9172800183296204
0.621225361,0,0,1.5658079385757446,0,0,0.8408399820327759
0.622227167,0,0,1.723825216293335,0,0,0.6879600286483765
0.623225029,0,0,1.6519991159439087,0,0,0.7644000053405762
0.624225224,0,0,1.7262194156646729,0,0,0.9937199950218201
0.625225252,0,0,1.6304513216018677,0,0,0.5350799560546875
0.626226373,0,0,1.53707754611969,0,0,0.8408399820327759
0.627224439,0,0,1.534683346748352,0,0,1.070159912109375
0.628225337,0,0,1.4293384552001953,0,0,0.7644000053405762
0.629225495,0,0,1.3431471586227417,0,0,0.7644000053405762
0.630226023,0,0,1.434126853942871,0,0,0.3822000026702881
0.631224737,0,0,1.482010841369629,0,0,0.9937199950218201
0.632225413,0,0,1.5179238319396973,0,0,0.6879600286483765
0.633225423,0,0,1.6160861253738403,0,0,0.9172800183296204
0.634226007,0,0,1.6711528301239014,0,0,0.4586400091648102
0.635224721,0,0,1.5945383310317993,0,0,0.9937199950218201
0.63622536,0,0,1.5825673341751099,0,0,0.9937199950218201
0.63722524,0,0,1.4987702369689941,0,0,0.8408399820327759
0.638226269,0,0,1.3982137441635132,0,0,0.9172800183296204
0.63922476,0,0,1.460463047027588,0,0,0.9172800183296204
0.640225159,0,0,1.4293384552001953,0,0,0.7644000053405762
0.641224965,0,0,1.4317326545715332,0,0,0.7644000053405762
0.642225956,0,0,1.5083470344543457,0,0,0.8408399820327759
0.643224818,0,0,1.5394717454910278,0,0,0.611519992351532
0.644225235,0,0,1.6160861253738403,0,0,0.9172800183296204
0.645225226,0,0,1.647210717201233,0,0,0.5350799560546875
0.646225865,0,0,1.5921441316604614,0,0,0.4586400091648102
0.647224616,0,0,1.5538369417190552,0,0,0.5350799560546875
0.648225218,0,0,1.5394717454910278,0,0,0.9172800183296204
0.649225358,0,0,1.41257905960083,0,0,0.7644000053405762
0.650226016,0,0,1.4245500564575195,0,0,0.9937199950218201
0.651224859,0,0,1.3431471586227417,0,0,0.7644000053405762
0.652225202,0,0,1.359906554222107,0,0,0.6879600286483765
0.653225286,0,0,1.434126853942871,0,0,0.6879600286483765
0.654226166,0,0,1.525106430053711,0,0,0.7644000053405762
0.655224861,0,0,1.5969325304031372,0,0,0.9172800183296204
0.656225852,0,0,1.623268723487854,0,0,0.6879600286483765
0.657225251,0,0,1.6184803247451782,0,0,0.4586400091648102
0.658227261,0,0,1.5849615335464478,0,0,1.1466000080108643
0.659224863,0,0,1.5921441316604614,0,0,0.611519992351532
0.660225317,0,0,1.50355863571167,0,0,0.7644000053405762
0.661225327,0,0,1.4748282432556152,0,0,0.8408399820327759
0.662225819,0,0,1.4987702369689941,0,0,0.8408399820327759
0.663224199,0,0,1.3431471586227417,0,0,0.8408399820327759
0.664254838,0,0,1.4269442558288574,0,0,0.9937199950218201
0.665239663,0,0,1.50355863571167,0,0,0.6879600286483765
0.666224895,0,0,1.6160861253738403,0,0,0.7644000053405762
0.667224479,0,0,1.5705963373184204,0,0,1.1466000080108643
0.668223322,0,0,1.6927006244659424,0,0,0.7644000053405762
0.669223406,0,0,1.6711528301239014,0,0,1.1466000080108643
0.670223415,0,0,1.659181833267212,0,0,0.8408399820327759
0.671223518,0,0,1.5682021379470825,0,0,0.8408399820327759
0.67222325,0,0,1.4700398445129395,0,0,0.9172800183296204
0.673223223,0,0,1.3718775510787964,0,0,0.9172800183296204
0.674223566,0,0,1.3215993642807007,0,0,0.9172800183296204
0.675223631,0,0,1.3263877630233765,0,0,0.6879600286483765
0.676223345,0,0,1.4484920501708984,0,0,0.7644000053405762
0.677223354,0,0,1.577778935432434,0,0,0.7644000053405762
0.678224568,0,0,1.5634137392044067,0,0,1.070159912109375
0.679225318,0,0,1.6376339197158813,0,0,0.9172800183296204
0.680346549,0,0,1.6687586307525635,0,0,0.9172800183296204
0.68123082,0,0,1.656787633895874,0,0,0.9172800183296204
0.682415605,0,0,1.4987702369689941,0,0,0.9937199950218201
0.68324858,0,0,1.4748282432556152,0,0,0.9172800183296204
0.684228034,0,0,1.5275006294250488,0,0,1.070159912109375
0.685226303,0,0,1.3742717504501343,0,0,0.8408399820327759
0.686226332,0,0,1.3000515699386597,0,0,0.8408399820327759
0.687226026,0,0,1.4460978507995605,0,0,0.6879600286483765
0.68822561,0,0,1.5658079385757446,0,0,0.6879600286483765
0.689225583,0,0,1.6065093278884888,0,0,0.7644000053405762
0.690225852,0,0,1.699883222579956,0,0,0.6879600286483765
0.691225603,0,0,1.659181833267212,0,0,0.4586400091648102
0.692225446,0,0,1.5921441316604614,0,0,0.8408399820327759
0.693225715,0,0,1.4939818382263184,0,0,0.9937199950218201
0.69422591,0,0,1.4101848602294922,0,0,0.5350799560546875
0.69522566,0,0,1.3694833517074585,0,0,0.6879600286483765
0.696227892,0,0,1.41257905960083,0,0,0.7644000053405762
0.697225495,0,0,1.3934253454208374,0,0,0.9172800183296204
0.698226857,0,0,1.4700398445129395,0,0,0.7644000053405762
0.699225792,0,0,1.4891934394836426,0,0,0.8408399820327759
0.700225487,0,0,1.6112977266311646,0,0,0.9172800183296204
0.701225516,0,0,1.625662922859192,0,0,0.9172800183296204
0.702226525,0,0,1.6543933153152466,0,0,0.8408399820327759
0.703224591,0,0,1.623268723487854,0,0,0.8408399820327759
0.70422573,0,0,1.6615760326385498,0,0,0.9172800183296204
0.705226703,0,0,1.5155296325683594,0,0,0.9937199950218201
0.706227157,0,0,1.482010841369629,0,0,0.7644000053405762
0.707225093,0,0,1.455674648284912,0,0,0.9937199950218201
0.708225621,0,0,1.3335703611373901,0,0,0.9172800183296204
0.709225538,0,0,1.316810965538025,0,0,0.7644000053405762
0.710226252,0,0,1.414973258972168,0,0,0.8408399820327759
0.711225077,0,0,1.558625340461731,0,0,0.8408399820327759
0.712225327,0,0,1.5682021379470825,0,0,0.7644000053405762
0.713225504,0,0,1.6184803247451782,0,0,0.7644000053405762
0.714226365,0,0,1.5634137392044067,0,0,0.6879600286483765
0.715225097,0,0,1.6160861253738403,0,0,0.7644000053405762
0.716226181,0,0,1.5921441316604614,0,0,0.8408399820327759
0.717225543,0,0,1.4772224426269531,0,0,0.9937199950218201
0.718226312,0,0,1.4508862495422363,0,0,0.8408399820327759
0.719224877,0,0,1.3718775510787964,0,0,0.6879600286483765
0.720225424,0,0,1.3670891523361206,0,0,0.7644000053405762
0.721224971,0,0,1.501164436340332,0,0,0.5350799560546875
0.722227592,0,0,1.558625340461731,0,0,0.6879600286483765
0.72322512,0,0,1.5466543436050415,0,0,0.6879600286483765
0.72422563,0,0,1.6328455209732056,0,0,1.070159912109375
0.725225251,0,0,1.599326729774475,0,0,0.4586400091648102
0.726226705,0,0,1.577778935432434,0,0,0.8408399820327759
0.727224659,0,0,1.6496049165725708,0,0,0.9172800183296204
0.72822578,0,0,1.50355863571167,0,0,0.6879600286483765
0.729225383,0,0,1.50355863571167,0,0,0.611519992351532
0.730226244,0,0,1.4437036514282227,0,0,1.070159912109375
0.731224828,0,0,1.3910311460494995,0,0,0.9937199950218201
0.732225486,0,0,1.45806884765625,0,0,0.6879600286483765
0.733225607,0,0,1.4891934394836426,0,0,0.8408399820327759
0.734226117,0,0,1.6041151285171509,0,0,0.9937199950218201
0.735225071,0,0,1.6496049165725708,0,0,0.6879600286483765
0.736225433,0,0,1.6112977266311646,0,0,0.8408399820327759
0.737225442,0,0,1.5705963373184204,0,0,0.611519992351532
0.7382261,0,0,1.4700398445129395,0,0,0.9172800183296204
0.739226221,0,0,1.50355863571167,0,0,0.6879600286483765
0.74161696,0,0,1.4867992401123047,0,0,0.7644000053405762
0.741824495,0,0,1.4891934394836426,0,0,0.9172800183296204
0.742661099,0,0,1.4532804489135742,0,0,0.7644000053405762
0.743229557,0,0,1.3910311460494995,0,0,0.6879600286483765
0.744500583,0,0,1.403002142906189,0,0,0.8408399820327759
0.74523428,0,0,1.479616641998291,0,0,0.4586400091648102
0.746231494,0,0,1.50355863571167,0,0,0.8408399820327759
0.747226318,0,0,1.556231141090393,0,0,0.8408399820327759
0.748225902,0,0,1.5610195398330688,0,0,0.611519992351532
0.749226393,0,0,1.599326729774475,0,0,0.9937199950218201
0.75022707,0,0,1.525106430053711,0,0,0.8408399820327759
0.751225394,0,0,1.3838485479354858,0,0,0.611519992351532
0.752226182,0,0,1.4221558570861816,0,0,0.9172800183296204
0.753226062,0,0,1.3982137441635132,0,0,0.8408399820327759
0.754226942,0,0,1.4173674583435059,0,0,0.6879600286483765
0.755225582,0,0,1.4939818382263184,0,0,0.7644000053405762
0.756226406,0,0,1.5729905366897583,0,0,0.7644000053405762
0.757226138,0,0,1.656787633895874,0,0,0.8408399820327759
0.75822663,0,0,1.6663644313812256,0,0,0.8408399820327759
0.759225306,0,0,1.678335428237915,0,0,0.9172800183296204
0.760226094,0,0,1.5849615335464478,0,0,0.611519992351532
0.761226122,0,0,1.599326729774475,0,0,0.6879600286483765
0.762237484,0,0,1.5059528350830078,0,0,0.8408399820327759
0.763226679,0,0,1.359906554222107,0,0,1.2994799613952637
0.764225985,0,0,1.4532804489135742,0,0,0.9172800183296204
0.765225495,0,0,1.400607943534851,0,0,0.9172800183296204
0.766226967,0,0,1.3623007535934448,0,0,0.7644000053405762
0.767225403,0,0,1.4197616577148438,0,0,1.1466000080108643
0.768226098,0,0,1.5753847360610962,0,0,0.4586400091648102
0.769226052,0,0,1.6543933153152466,0,0,0.8408399820327759
0.77022684,0,0,1.6615760326385498,0,0,0.9172800183296204
0.771225442,0,0,1.6328455209732056,0,0,0.8408399820327759
0.772225859,0,0,1.6543933153152466,0,0,0.9172800183296204
0.773226184,0,0,1.50355863571167,0,0,0.7644000053405762
0.774226823,0,0,1.460463047027588,0,0,0.6879600286483765
0.775225537,0,0,1.45806884765625,0,0,0.6879600286483765
0.776226288,0,0,1.3407529592514038,0,0,0.9937199950218201
0.777226057,0,0,1.3886369466781616,0,0,0.8408399820327759
0.778226752,0,0,1.479616641998291,0,0,0.6879600286483765
0.779222947,0,0,1.556231141090393,0,0,0.6879600286483765
0.780223438,0,0,1.5729905366897583,0,0,0.7644000053405762
0.781223429,0,0,1.659181833267212,0,0,0.7644000053405762
0.782225532,0,0,1.5634137392044067,0,0,0.5350799560546875
0.783226615,0,0,1.5155296325683594,0,0,0.7644000053405762
0.784226292,0,0,1.5753847360610962,0,0,0.8408399820327759
0.785228005,0,0,1.4269442558288574,0,0,0.5350799560546875
0.786227219,0,0,1.4460978507995605,0,0,0.9172800183296204
0.787225821,0,0,1.4317326545715332,0,0,0.7644000053405762
0.788226146,0,0,1.3886369466781616,0,0,0.8408399820327759
0.7892261,0,0,1.3694833517074585,0,0,0.8408399820327759
0.790227684,0,0,1.4221558570861816,0,0,0.6879600286483765
0.791225046,0,0,1.5873557329177856,0,0,1.070159912109375
0.792226111,0,0,1.647210717201233,0,0,0.8408399820327759
0.793226195,0,0,1.6280571222305298,0,0,0.5350799560546875
0.794226575,0,0,1.6400281190872192,0,0,0.8408399820327759
0.795226103,0,0,1.7334020137786865,0,0,0.9172800183296204
0.796226058,0,0,1.5275006294250488,0,0,0.9937199950218201
0.797226067,0,0,1.5155296325683594,0,0,0.9172800183296204
0.798226725,0,0,1.4484920501708984,0,0,0.9172800183296204
0.799225994,0,0,1.436521053314209,0,0,0.9172800183296204
0.800226115,0,0,1.359906554222107,0,0,0.8408399820327759
0.801226181,0,0,1.4101848602294922,0,0,0.9172800183296204
0.802226209,0,0,1.534683346748352,0,0,0.9172800183296204
0.8032262,0,0,1.5179238319396973,0,0,0.9172800183296204
0.804226469,0,0,1.6496049165725708,0,0,0.7644000053405762
0.805225812,0,0,1.6065093278884888,0,0,0.611519992351532
0.806227378,0,0,1.6352397203445435,0,0,0.6879600286483765
0.807225277,0,0,1.5897499322891235,0,0,1.070159912109375
0.808225657,0,0,1.482010841369629,0,0,1.070159912109375
0.809225759,0,0,1.4939818382263184,0,0,1.070159912109375
0.810227195,0,0,1.3670891523361206,0,0,0.6879600286483765
0.811225556,0,0,1.37906014919281,0,0,0.9172800183296204
0.812337899,0,0,1.4772224426269531,0,0,0.9172800183296204
0.813311149,0,0,1.5275006294250488,0,0,0.8408399820327759
0.814254308,0,0,1.623268723487854,0,0,0.6879600286483765
0.81524467,0,0,1.6711528301239014,0,0,0.7644000053405762
0.816225661,0,0,1.5705963373184204,0,0,0.4586400091648102
0.817225004,0,0,1.625662922859192,0,0,0.9937199950218201
0.818225403,0,0,1.580173134803772,0,0,0.9172800183296204
0.819222394,0,0,1.436521053314209,0,0,0.9172800183296204
0.8202222,0,0,1.4293384552001953,0,0,0.5350799560546875
0.821222488,0,0,1.4413094520568848,0,0,0.6879600286483765
0.822304664,0,0,1.3910311460494995,0,0,0.7644000053405762
0.823228748,0,0,1.3958195447921753,0,0,0.9172800183296204
0.824224776,0,0,1.5059528350830078,0,0,0.6879600286483765
0.825224342,0,0,1.5849615335464478,0,0,0.6879600286483765
0.826241148,0,0,1.6089035272598267,0,0,0.8408399820327759
0.827224417,0,0,1.5634137392044067,0,0,0.611519992351532
0.828224908,0,0,1.5634137392044067,0,0,0.9172800183296204
0.82922464,0,0,1.6352397203445435,0,0,0.9937199950218201
0.830225002,0,0,1.556231141090393,0,0,0.5350799560546875
0.831224438,0,0,1.3742717504501343,0,0,0.9172800183296204
0.832224559,0,0,1.4700398445129395,0,0,0.9172800183296204
0.833224457,0,0,1.4700398445129395,0,0,0.9172800183296204
0.834224745,0,0,1.403002142906189,0,0,0.611519992351532
0.835230588,0,0,1.3958195447921753,0,0,0.7644000053405762
0.836225376,0,0,1.4053963422775269,0,0,0.7644000053405762
0.8372247,0,0,1.45806884765625,0,0,0.9937199950218201
0.838226136,0,0,1.6759412288665771,0,0,1.1466000080108643
0.839224923,0,0,1.7381904125213623,0,0,0.6879600286483765
0.840224655,0,0,1.6041151285171509,0,0,0.8408399820327759
0.841224647,0,0,1.5921441316604614,0,0,0.9172800183296204
0.842225527,0,0,1.5059528350830078,0,0,0.7644000053405762
0.843223926,0,0,1.41257905960083,0,0,0.9172800183296204
0.844223972,0,0,1.4915876388549805,0,0,0.6879600286483765
0.845224686,0,0,1.4460978507995605,0,0,0.6879600286483765
0.84622564,0,0,1.4676456451416016,0,0,0.8408399820327759
0.847223743,0,0,1.4867992401123047,0,0,0.6879600286483765
0.848224308,0,0,1.4772224426269531,0,0,0.5350799560546875
0.849224614,0,0,1.5418659448623657,0,0,0.9172800183296204
0.850225605,0,0,1.5753847360610962,0,0,0.7644000053405762
0.851221485,0,0,1.5610195398330688,0,0,0.9172800183296204
0.852223421,0,0,1.6735470294952393,0,0,0.9172800183296204
0.853222227,0,0,1.647210717201233,0,0,0.9172800183296204
0.854225015,0,0,1.4652514457702637,0,0,0.7644000053405762
0.855224932,0,0,1.4317326545715332,0,0,0.9937199950218201
0.856224312,0,0,1.403002142906189,0,0,0.8408399820327759
0.857223989,0,0,1.3287819623947144,0,0,0.9172800183296204
0.858225332,0,0,1.403002142906189,0,0,0.611519992351532
0.859223527,0,0,1.5107412338256836,0,0,0.9937199950218201
0.860223963,0,0,1.6328455209732056,0,0,0.611519992351532
0.861223935,0,0,1.6065093278884888,0,0,0.611519992351532
0.862225186,0,0,1.6519991159439087,0,0,0.9172800183296204
0.863223659,0,0,1.5634137392044067,0,0,0.8408399820327759
0.864224261,0,0,1.5203180313110352,0,0,1.1466000080108643
0.865224141,0,0,1.4293384552001953,0,0,0.7644000053405762
0.866225114,0,0,1.3910311460494995,0,0,0.6879600286483765
0.867223827,0,0,1.4389152526855469,0,0,0.8408399820327759
0.868224078,0,0,1.4173674583435059,0,0,0.8408399820327759
0.869223754,0,0,1.3479355573654175,0,0,0.5350799560546875
0.87022482,0,0,1.455674648284912,0,0,0.5350799560546875
0.871223719,0,0,1.4844050407409668,0,0,0.611519992351532
0.872224302,0,0,1.6400281190872192,0,0,0.8408399820327759
0.873224034,0,0,1.6304513216018677,0,0,0.6879600286483765
0.874225415,0,0,1.599326729774475,0,0,0.7644000053405762
0.875223461,0,0,1.5753847360610962,0,0,0.9172800183296204
0.876224305,0,0,1.4939818382263184,0,0,0.9172800183296204
0.877224148,0,0,1.3479355573654175,0,0,0.7644000053405762
0.878225269,0,0,1.37906014919281,0,0,0.9937199950218201
0.879223482,0,0,1.4389152526855469,0,0,0.8408399820327759
0.880224418,0,0,1.357512354850769,0,0,0.9172800183296204
0.881224428,0,0,1.400607943534851,0,0,0.8408399820327759
0.882225197,0,0,1.5658079385757446,0,0,0.6879600286483765
0.883223781,0,0,1.659181833267212,0,0,0.9937199950218201
0.884224401,0,0,1.7573440074920654,0,0,0.6879600286483765
0.885224022,0,0,1.659181833267212,0,0,0.8408399820327759
0.886225328,0,0,1.623268723487854,0,0,0.9172800183296204
0.887223412,0,0,1.558625340461731,0,0,0.8408399820327759
0.888224163,0,0,1.4532804489135742,0,0,0.8408399820327759
0.889224321,0,0,1.4700398445129395,0,0,0.7644000053405762
0.890232127,0,0,1.4437036514282227,0,0,0.9937199950218201
0.891223877,0,0,1.314416766166687,0,0,0.7644000053405762
0.892224147,0,0,1.4484920501708984,0,0,0.6879600286483765
0.893224453,0,0,1.4891934394836426,0,0,0.5350799560546875
0.894225277,0,0,1.5610195398330688,0,0,0.6879600286483765
0.895223694,0,0,1.6400281190872192,0,0,0.9937199950218201
0.896224056,0,0,1.6855180263519287,0,0,0.6879600286483765
0.897224251,0,0,1.6711528301239014,0,0,0.5350799560546875
0.898225428,0,0,1.601720929145813,0,0,0.7644000053405762
0.899223604,0,0,1.4915876388549805,0,0,1.070159912109375
0.900224114,0,0,1.4484920501708984,0,0,0.9937199950218201
0.901224272,0,0,1.4987702369689941,0,0,0.7644000053405762
0.90222543,0,0,1.3766659498214722,0,0,0.9937199950218201
0.903223699,0,0,1.3766659498214722,0,0,0.9172800183296204
0.904224134,0,0,1.5083470344543457,0,0,0.5350799560546875
0.905224052,0,0,1.625662922859192,0,0,0.9172800183296204
0.906225432,0,0,1.6304513216018677,0,0,0.9937199950218201
0.907223719,0,0,1.6400281190872192,0,0,0.3822000026702881
0.908224118,0,0,1.5610195398330688,0,0,0.9937199950218201
0.909224128,0,0,1.7142484188079834,0,0,0.8408399820327759
0.910225304,0,0,1.577778935432434,0,0,1.1466000080108643
0.911223685,0,0,1.400607943534851,0,0,1.070159912109375
0.912223954,0,0,1.482010841369629,0,0,1.1466000080108643
0.913223963,0,0,1.525106430053711,0,0,0.8408399820327759
0.914225732,0,0,1.3311761617660522,0,0,1.1466000080108643
0.915223724,0,0,1.455674648284912,0,0,0.7644000053405762
0.916224419,0,0,1.5418659448623657,0,0,0.5350799560546875
0.917224243,0,0,1.5873557329177856,0,0,0.9937199950218201
0.918225364,0,0,1.558625340461731,0,0,0.9172800183296204
0.919223578,0,0,1.6663644313812256,0,0,0.9937199950218201
0.920224273,0,0,1.680729627609253,0,0,0.7644000053405762
0.921224246,0,0,1.6400281190872192,0,0,0.611519992351532
0.922234996,0,0,1.4508862495422363,0,0,0.9937199950218201
0.923226784,0,0,1.3455413579940796,0,0,1.1466000080108643
0.924224442,0,0,1.400607943534851,0,0,0.7644000053405762
0.925224396,0,0,1.3934253454208374,0,0,0.5350799560546875
0.926225535,0,0,1.4939818382263184,0,0,0.7644000053405762
0.927223749,0,0,1.4460978507995605,0,0,0.7644000053405762
0.928224018,0,0,1.5155296325683594,0,0,0.8408399820327759
0.929224398,0,0,1.5658079385757446,0,0,0.611519992351532
0.930225278,0,0,1.6208745241165161,0,0,0.611519992351532
0.931223195,0,0,1.6759412288665771,0,0,0.9937199950218201
0.932224261,0,0,1.6041151285171509,0,0,0.9172800183296204
0.9332284,0,0,1.4915876388549805,0,0,0.4586400091648102
0.934227188,0,0,1.45806884765625,0,0,0.9172800183296204
0.935224383,0,0,1.4676456451416016,0,0,0.9172800183296204
0.936224374,0,0,1.436521053314209,0,0,0.7644000053405762
0.93722418,0,0,1.4389152526855469,0,0,0.8408399820327759
0.938224523,0,0,1.3982137441635132,0,0,0.9172800183296204
0.939224163,0,0,1.45806884765625,0,0,0.6879600286483765
0.940224191,0,0,1.5610195398330688,0,0,0.6879600286483765
0.941224256,0,0,1.6879122257232666,0,0,0.7644000053405762
0.942224174,0,0,1.6280571222305298,0,0,0.6879600286483765
0.943224091,0,0,1.5538369417190552,0,0,0.9172800183296204
0.944224249,0,0,1.5945383310317993,0,0,0.8408399820327759
0.945224184,0,0,1.3551181554794312,0,0,1.1466000080108643
0.946224398,0,0,1.436521053314209,0,0,0.6879600286483765
0.947224278,0,0,1.4221558570861816,0,0,0.9172800183296204
0.948224269,0,0,1.4245500564575195,0,0,0.7644000053405762
0.949224464,0,0,1.5107412338256836,0,0,0.611519992351532
0.950224326,0,0,1.5394717454910278,0,0,0.6879600286483765
0.951225984,0,0,1.53707754611969,0,0,0.611519992351532
0.952223753,0,0,1.6136919260025024,0,0,0.8408399820327759
0.953224281,0,0,1.6352397203445435,0,0,0.6879600286483765
0.954237402,0,0,1.6543933153152466,0,0,1.070159912109375
0.955225949,0,0,1.6112977266311646,0,0,0.611519992351532
0.956223533,0,0,1.5490485429763794,0,0,0.9172800183296204
0.957224172,0,0,1.4221558570861816,0,0,0.7644000053405762
0.958225552,0,0,1.4413094520568848,0,0,0.9937199950218201
0.959223507,0,0,1.3192051649093628,0,0,0.7644000053405762
0.960224294,0,0,1.37906014919281,0,0,0.611519992351532
0.961232378,0,0,1.4173674583435059,0,0,0.6879600286483765
0.962231906,0,0,1.5107412338256836,0,0,1.1466000080108643
0.963235416,0,0,1.5945383310317993,0,0,0.9937199950218201
0.964246759,0,0,1.6089035272598267,0,0,0.7644000053405762
0.965225177,0,0,1.6687586307525635,0,0,0.7644000053405762
0.966352204,0,0,1.6065093278884888,0,0,0.7644000053405762
0.967246363,0,0,1.4508862495422363,0,0,0.8408399820327759
0.968225354,0,0,1.4508862495422363,0,0,0.9937199950218201
0.969224771,0,0,1.4460978507995605,0,0,0.9172800183296204
0.970228781,0,0,1.3910311460494995,0,0,1.070159912109375
0.971224235,0,0,1.460463047027588,0,0,0.8408399820327759
0.972224764,0,0,1.522712230682373,0,0,0.7644000053405762
0.973224607,0,0,1.5298948287963867,0,0,0.9172800183296204
0.974225376,0,0,1.6136919260025024,0,0,0.8408399820327759
0.9752242,0,0,1.6280571222305298,0,0,0.6879600286483765
0.976224747,0,0,1.7070658206939697,0,0,0.6879600286483765
0.977224239,0,0,1.6328455209732056,0,0,0.9172800183296204
0.978225434,0,0,1.5610195398330688,0,0,0.7644000053405762
0.979224017,0,0,1.4197616577148438,0,0,0.6879600286483765
0.980224546,0,0,1.403002142906189,0,0,0.7644000053405762
0.981224611,0,0,1.4963760375976563,0,0,0.6879600286483765
0.982225788,0,0,1.4221558570861816,0,0,0.9172800183296204
0.983223908,0,0,1.4652514457702637,0,0,0.8408399820327759
0.984224511,0,0,1.501164436340332,0,0,0.7644000053405762
0.985230206,0,0,1.6543933153152466,0,0,0.9937199950218201
0.986225086,0,0,1.6903064250946045,0,0,0.6879600286483765
0.987224762,0,0,1.6304513216018677,0,0,0.9172800183296204
0.988224439,0,0,1.6136919260025024,0,0,1.223039984703064
0.989224486,0,0,1.5729905366897583,0,0,0.7644000053405762
0.990224736,0,0,1.4676456451416016,0,0,0.9172800183296204
0.991224579,0,0,1.525106430053711,0,0,1.070159912109375
0.992224774,0,0,1.4317326545715332,0,0,0.6879600286483765
0.993224766,0,0,1.4221558570861816,0,0,0.8408399820327759
0.994224849,0,0,1.5179238319396973,0,0,0.7644000053405762
0.995224785,0,0,1.482010841369629,0,0,0.9172800183296204
0.996224647,0,0,1.53707754611969,0,0,0.9937199950218201
0.99722449,0,0,1.580173134803772,0,0,0.9172800183296204
0.998224629,0,0,1.6496049165725708,0,0,0.6879600286483765
0.999224343,0,0,1.6663644313812256,0,0,0.8408399820327759
1.000224612,0,0,1.5945383310317993,0,0,0.7644000053405762
1.001224566,0,0,1.4532804489135742,0,0,1.1466000080108643
1.002226057,0,0,1.37906014919281,0,0,1.1466000080108643
1.003221308,0,0,1.4077905416488647,0,0,1.1466000080108643
1.004222021,0,0,1.3623007535934448,0,0,0.9937199950218201
1.005222105,0,0,1.3958195447921753,0,0,0.8408399820327759
1.006340725,0,0,1.45806884765625,0,0,0.7644000053405762
1.007229977,0,0,1.5203180313110352,0,0,0.6879600286483765
1.008224746,0,0,1.6352397203445435,0,0,0.6879600286483765
1.009224311,0,0,1.6974890232086182,0,0,0.611519992351532
1.010224562,0,0,1.6496049165725708,0,0,1.070159912109375
1.011224571,0,0,1.5945383310317993,0,0,0.9172800183296204
1.012224063,0,0,1.5275006294250488,0,0,0.8408399820327759
1.013224221,0,0,1.4987702369689941,0,0,0.5350799560546875
1.014225712,0,0,1.3838485479354858,0,0,1.1466000080108643
1.015224611,0,0,1.4867992401123047,0,0,0.6879600286483765
1.016224139,0,0,1.4939818382263184,0,0,0.5350799560546875
1.017223982,0,0,1.4867992401123047,0,0,0.9172800183296204
1.018236066,0,0,1.5322890281677246,0,0,0.611519992351532
1.019224279,0,0,1.5514427423477173,0,0,0.9172800183296204
1.0202239,0,0,1.6927006244659424,0,0,0.8408399820327759
1.021223632,0,0,1.6424223184585571,0,0,0.8408399820327759
1.022265975,0,0,1.7357962131500244,0,0,0.9172800183296204
1.023228189,0,0,1.644816517829895,0,0,0.8408399820327759
1.024225625,0,0,1.45806884765625,0,0,0.9937199950218201
1.025296467,0,0,1.4269442558288574,0,0,0.9172800183296204
1.026229941,0,0,1.3742717504501343,0,0,1.070159912109375
1.027224765,0,0,1.357512354850769,0,0,0.5350799560546875
1.028224386,0,0,1.4221558570861816,0,0,0.8408399820327759
1.029224322,0,0,1.4724340438842773,0,0,0.7644000053405762
1.030225406,0,0,1.6160861253738403,0,0,0.8408399820327759
1.031223453,0,0,1.647210717201233,0,0,1.070159912109375
1.032224092,0,0,1.5729905366897583,0,0,0.4586400091648102
1.03322412,0,0,1.6041151285171509,0,0,0.7644000053405762
1.034225463,0,0,1.6687586307525635,0,0,0.5350799560546875
1.035223695,0,0,1.501164436340332,0,0,0.9937199950218201
1.036224279,0,0,1.45806884765625,0,0,0.9172800183296204
1.037224178,0,0,1.5322890281677246,0,0,0.8408399820327759
1.038225262,0,0,1.4269442558288574,0,0,0.9172800183296204
1.039223475,0,0,1.3862427473068237,0,0,0.7644000053405762
1.040224096,0,0,1.4293384552001953,0,0,0.8408399820327759
1.041231513,0,0,1.53707754611969,0,0,0.6879600286483765
1.042225616,0,0,1.580173134803772,0,0,0.9172800183296204
1.043224755,0,0,1.6352397203445435,0,0,0.611519992351532
1.044224228,0,0,1.5753847360610962,0,0,0.6879600286483765
1.045255682,0,0,1.5729905366897583,0,0,1.223039984703064
1.046248266,0,0,1.534683346748352,0,0,0.7644000053405762
1.047231646,0,0,1.403002142906189,0,0,0.9172800183296204
1.048226156,0,0,1.3263877630233765,0,0,0.9937199950218201
1.049225536,0,0,1.3407529592514038,0,0,0.7644000053405762
1.050227342,0,0,1.4197616577148438,0,0,0.7644000053405762
1.051225982,0,0,1.482010841369629,0,0,0.6879600286483765
1.052225954,0,0,1.53707754611969,0,0,0.611519992351532
1.053225686,0,0,1.5945383310317993,0,0,0.8408399820327759
1.05422653,0,0,1.7286136150360107,0,0,0.7644000053405762
1.055225132,0,0,1.7118542194366455,0,0,0.5350799560546875
1.05622566,0,0,1.680729627609253,0,0,0.9172800183296204
1.057225633,0,0,1.6831238269805908,0,0,0.6879600286483765
1.058226606,0,0,1.4700398445129395,0,0,0.6879600286483765
1.059225301,0,0,1.4700398445129395,0,0,0.9937199950218201
1.060225459,0,0,1.4891934394836426,0,0,0.9172800183296204
1.061225561,0,0,1.400607943534851,0,0,0.7644000053405762
1.062226515,0,0,1.482010841369629,0,0,0.9937199950218201
1.063224951,0,0,1.4245500564575195,0,0,0.9172800183296204
1.064225424,0,0,1.5682021379470825,0,0,0.6879600286483765
1.065225748,0,0,1.6304513216018677,0,0,0.5350799560546875
1.066226258,0,0,1.5945383310317993,0,0,0.7644000053405762
1.06722462,0,0,1.6663644313812256,0,0,0.9937199950218201
1.068225741,0,0,1.6496049165725708,0,0,0.9937199950218201
1.069225584,0,0,1.5131354331970215,0,0,1.070159912109375
1.070225983,0,0,1.3958195447921753,0,0,0.5350799560546875
1.071225289,0,0,1.3694833517074585,0,0,0.9937199950218201
1.072225502,0,0,1.3862427473068237,0,0,0.8408399820327759
1.073225679,0,0,1.460463047027588,0,0,0.611519992351532
1.074226207,0,0,1.4891934394836426,0,0,0.8408399820327759
1.07522655,0,0,1.5418659448623657,0,0,0.9172800183296204
1.076226282,0,0,1.577778935432434,0,0,0.7644000053405762
1.07722557,0,0,1.5418659448623657,0,0,0.9172800183296204
1.078226376,0,0,1.6089035272598267,0,0,0.9937199950218201
1.079224811,0,0,1.7334020137786865,0,0,0.8408399820327759
1.080225655,0,0,1.6112977266311646,0,0,0.611519992351532
1.081225683,0,0,1.4724340438842773,0,0,1.070159912109375
1.082226341,0,0,1.4915876388549805,0,0,1.070159912109375
1.0832249250000001,0,0,1.5298948287963867,0,0,0.8408399820327759
1.084225731,0,0,1.4173674583435059,0,0,0.7644000053405762
1.085225611,0,0,1.4772224426269531,0,0,0.9937199950218201
1.086225824,0,0,1.525106430053711,0,0,0.8408399820327759
1.08722576,0,0,1.5658079385757446,0,0,0.6879600286483765
1.08822514,0,0,1.6519991159439087,0,0,0.7644000053405762
1.089225761,0,0,1.6136919260025024,0,0,0.611519992351532
1.090226641,0,0,1.6376339197158813,0,0,0.7644000053405762
1.091224725,0,0,1.647210717201233,0,0,0.8408399820327759
1.092225068,0,0,1.4437036514282227,0,0,1.070159912109375
1.093225578,0,0,1.359906554222107,0,0,0.611519992351532
1.094226347,0,0,1.5418659448623657,0,0,0.611519992351532
1.095225098,0,0,1.4077905416488647,0,0,0.9172800183296204
1.096225645,0,0,1.3934253454208374,0,0,0.7644000053405762
1.097225562,0,0,1.4844050407409668,0,0,0.7644000053405762
1.098226127,0,0,1.580173134803772,0,0,0.9172800183296204
1.099224878,0,0,1.5514427423477173,0,0,0.9172800183296204
1.100238943,0,0,1.699883222579956,0,0,0.5350799560546875
1.101227101,0,0,1.5394717454910278,0,0,0.6879600286483765
1.102226926,0,0,1.5538369417190552,0,0,0.9937199950218201
1.10322538,0,0,1.5658079385757446,0,0,0.7644000053405762
1.104225945,0,0,1.460463047027588,0,0,0.6879600286483765
1.105225899,0,0,1.4748282432556152,0,0,1.1466000080108643
1.10622665,0,0,1.4269442558288574,0,0,0.8408399820327759
1.107225363,0,0,1.3670891523361206,0,0,1.1466000080108643
1.108225873,0,0,1.479616641998291,0,0,1.070159912109375
1.109225883,0,0,1.558625340461731,0,0,0.7644000053405762
1.110226319,0,0,1.6496049165725708,0,0,0.8408399820327759
1.11122544,0,0,1.6950948238372803,0,0,0.7644000053405762
1.112225949,0,0,1.6328455209732056,0,0,0.7644000053405762
1.113225404,0,0,1.5514427423477173,0,0,0.7644000053405762
1.114226636,0,0,1.522712230682373,0,0,1.1466000080108643
1.115225423,0,0,1.4700398445129395,0,0,0.9937199950218201
1.116225896,0,0,1.4053963422775269,0,0,0.7644000053405762
1.117225869,0,0,1.4508862495422363,0,0,0.9937199950218201
1.118226916,0,0,1.460463047027588,0,0,0.8408399820327759
1.119225185,0,0,1.5059528350830078,0,0,1.070159912109375
1.120225843,0,0,1.5155296325683594,0,0,0.9172800183296204
1.121226019,0,0,1.4844050407409668,0,0,0.7644000053405762
1.122228695,0,0,1.558625340461731,0,0,0.5350799560546875
1.123226002,0,0,1.558625340461731,0,0,0.5350799560546875
1.12422603,0,0,1.7262194156646729,0,0,0.8408399820327759
1.125226003,0,0,1.6328455209732056,0,0,0.8408399820327759
1.126226938,0,0,1.4532804489135742,0,0,0.9937199950218201
1.127224856,0,0,1.45806884765625,0,0,0.9937199950218201
1.128225921,0,0,1.436521053314209,0,0,0.6879600286483765
1.12922582,0,0,1.357512354850769,0,0,0.8408399820327759
1.130226644,0,0,1.400607943534851,0,0,0.7644000053405762
1.131225376,0,0,1.4532804489135742,0,0,0.5350799560546875
1.132225664,0,0,1.6376339197158813,0,0,0.8408399820327759
1.133226044,0,0,1.6496049165725708,0,0,0.7644000053405762
1.134226665,0,0,1.6089035272598267,0,0,0.611519992351532
1.135224952,0,0,1.5418659448623657,0,0,0.9172800183296204
1.136225814,0,0,1.601720929145813,0,0,0.7644000053405762
1.137225824,0,0,1.6328455209732056,0,0,0.6879600286483765
1.138226556,0,0,1.479616641998291,0,0,0.8408399820327759
1.139225325,0,0,1.5131354331970215,0,0,0.611519992351532
1.140225872,0,0,1.4437036514282227,0,0,0.9172800183296204
1.141225863,0,0,1.5418659448623657,0,0,0.7644000053405762
1.142226595,0,0,1.5179238319396973,0,0,0.8408399820327759
1.143225253,0,0,1.4748282432556152,0,0,0.8408399820327759
1.144225985,0,0,1.53707754611969,0,0,0.9937199950218201
1.145225736,0,0,1.5969325304031372,0,0,0.6879600286483765
1.146226542,0,0,1.6879122257232666,0,0,0.7644000053405762
1.147225311,0,0,1.7190368175506592,0,0,0.9937199950218201
1.148225895,0,0,1.5155296325683594,0,0,0.6879600286483765
1.149225664,0,0,1.4197616577148438,0,0,0.6879600286483765
1.150226599,0,0,1.4460978507995605,0,0,0.8408399820327759
1.151225183,0,0,1.41257905960083,0,0,0.7644000053405762
1.152225767,0,0,1.3120225667953491,0,0,0.7644000053405762
1.153225462,0,0,1.4508862495422363,0,0,0.6879600286483765
1.154226713,0,0,1.5825673341751099,0,0,0.7644000053405762
1.1552254259999999,0,0,1.5753847360610962,0,0,0.9172800183296204
1.156225399,0,0,1.6424223184585571,0,0,0.9172800183296204
1.157225557,0,0,1.5945383310317993,0,0,0.6879600286483765
1.158226622,0,0,1.5538369417190552,0,0,0.7644000053405762
1.159225261,0,0,1.577778935432434,0,0,0.9172800183296204
1.160225716,0,0,1.501164436340332,0,0,0.8408399820327759
1.161225818,0,0,1.4700398445129395,0,0,0.9172800183296204
1.162226365,0,0,1.4939818382263184,0,0,0.7644000053405762
1.163225653,0,0,1.4101848602294922,0,0,0.9937199950218201
1.164225718,0,0,1.3503297567367554,0,0,0.6879600286483765
1.165225987,0,0,1.501164436340332,0,0,0.5350799560546875
1.1662267370000001,0,0,1.5298948287963867,0,0,0.9172800183296204
1.167225358,0,0,1.6304513216018677,0,0,0.8408399820327759
1.168225887,0,0,1.6974890232086182,0,0,0.8408399820327759
1.169225859,0,0,1.7142484188079834,0,0,0.9172800183296204
1.170226795,0,0,1.6280571222305298,0,0,0.8408399820327759
1.171222749,0,0,1.5059528350830078,0,0,0.9937199950218201
1.172223537,0,0,1.3958195447921753,0,0,0.6879600286483765
1.173223436,0,0,1.3694833517074585,0,0,1.1466000080108643
1.174224982,0,0,1.3958195447921753,0,0,0.9172800183296204
1.175226437,0,0,1.4389152526855469,0,0,0.7644000053405762
1.176238928,0,0,1.4867992401123047,0,0,0.611519992351532
1.177226512,0,0,1.6160861253738403,0,0,0.8408399820327759
1.178226411,0,0,1.5945383310317993,0,0,0.611519992351532
1.179225143,0,0,1.6280571222305298,0,0,0.7644000053405762
1.180226041,0,0,1.6519991159439087,0,0,0.6879600286483765
1.181225995,0,0,1.558625340461731,0,0,0.9172800183296204
1.18222595,0,0,1.4987702369689941,0,0,0.9937199950218201
1.183226071,0,0,1.4724340438842773,0,0,0.9937199950218201
1.184238395,0,0,1.4891934394836426,0,0,0.9937199950218201
1.18523072,0,0,1.5753847360610962,0,0,0.611519992351532
1.186226396,0,0,1.5466543436050415,0,0,0.6879600286483765
1.187226128,0,0,1.4197616577148438,0,0,0.7644000053405762
1.18822599,0,0,1.50355863571167,0,0,0.8408399820327759
1.1892257960000001,0,0,1.4867992401123047,0,0,0.5350799560546875
1.190225991,0,0,1.6615760326385498,0,0,0.7644000053405762
1.19122576,0,0,1.6855180263519287,0,0,0.8408399820327759
1.192225862,0,0,1.7118542194366455,0,0,0.9172800183296204
1.193225928,0,0,1.6735470294952393,0,0,0.9172800183296204
1.194226104,0,0,1.5658079385757446,0,0,0.7644000053405762
1.195225799,0,0,1.4628572463989258,0,0,0.9172800183296204
1.196225457,0,0,1.4053963422775269,0,0,0.6879600286483765
1.197225837,0,0,1.316810965538025,0,0,0.9172800183296204
1.198226106,0,0,1.37906014919281,0,0,0.611519992351532
1.199225875,0,0,1.460463047027588,0,0,0.9937199950218201
1.2002254780000001,0,0,1.4963760375976563,0,0,0.5350799560546875
1.201225821,0,0,1.5634137392044067,0,0,0.5350799560546875
1.202227071,0,0,1.5849615335464478,0,0,0.9937199950218201
1.203222266,0,0,1.558625340461731,0,0,0.3822000026702881
1.204223406,0,0,1.6041151285171509,0,0,0.8408399820327759
1.205223342,0,0,1.4915876388549805,0,0,1.1466000080108643
1.206250333,0,0,1.4724340438842773,0,0,0.9172800183296204
1.207230583,0,0,1.4484920501708984,0,0,0.9172800183296204
1.208226575,0,0,1.3311761617660522,0,0,0.8408399820327759
1.209225955,0,0,1.3886369466781616,0,0,1.1466000080108643
1.210226853,0,0,1.4939818382263184,0,0,0.8408399820327759
1.211225326,0,0,1.5466543436050415,0,0,0.5350799560546875
1.212225984,0,0,1.5514427423477173,0,0,0.611519992351532
1.213225753,0,0,1.625662922859192,0,0,0.5350799560546875
1.214226504,0,0,1.6831238269805908,0,0,0.6879600286483765
1.215225217,0,0,1.7046716213226318,0,0,0.611519992351532
1.216225764,0,0,1.6112977266311646,0,0,0.9172800183296204
1.217225866,0,0,1.4221558570861816,0,0,1.070159912109375
1.218226395,0,0,1.4484920501708984,0,0,0.9172800183296204
1.219225256,0,0,1.4748282432556152,0,0,0.9172800183296204
1.220225877,0,0,1.3934253454208374,0,0,0.8408399820327759
1.221225443,0,0,1.4891934394836426,0,0,0.7644000053405762
1.2222274340000001,0,0,1.5466543436050415,0,0,0.6879600286483765
1.223225277,0,0,1.5705963373184204,0,0,0.9172800183296204
1.224225898,0,0,1.5514427423477173,0,0,0.6879600286483765
1.225225778,0,0,1.6496049165725708,0,0,0.611519992351532
1.22622664,0,0,1.6519991159439087,0,0,0.6879600286483765
1.227225187,0,0,1.6328455209732056,0,0,0.9172800183296204
1.228225548,0,0,1.5322890281677246,0,0,0.9172800183296204
1.229225743,0,0,1.400607943534851,0,0,0.7644000053405762
1.230226438,0,0,1.3862427473068237,0,0,0.8408399820327759
1.231225355,0,0,1.3024457693099976,0,0,0.9172800183296204
1.232225847,0,0,1.37906014919281,0,0,0.8408399820327759
1.233226208,0,0,1.5849615335464478,0,0,0.8408399820327759
1.234226663,0,0,1.6160861253738403,0,0,0.5350799560546875
1.235225524,0,0,1.5753847360610962,0,0,0.7644000053405762
1.23622583,0,0,1.580173134803772,0,0,0.611519992351532
1.237225748,0,0,1.6184803247451782,0,0,0.7644000053405762
1.238226554,0,0,1.6184803247451782,0,0,0.9172800183296204
1.239225212,0,0,1.6903064250946045,0,0,1.1466000080108643
1.240225832,0,0,1.4508862495422363,0,0,0.7644000053405762
1.241225953,0,0,1.4508862495422363,0,0,0.6879600286483765
1.242226482,0,0,1.4245500564575195,0,0,0.6879600286483765
1.24322488,0,0,1.3503297567367554,0,0,0.8408399820327759
1.244225872,0,0,1.53707754611969,0,0,0.611519992351532
1.245226085,0,0,1.680729627609253,0,0,0.4586400091648102
1.246226687,0,0,1.599326729774475,0,0,0.7644000053405762
1.247225531,0,0,1.5298948287963867,0,0,0.9172800183296204
1.248225855,0,0,1.6112977266311646,0,0,0.611519992351532
1.249225976,0,0,1.678335428237915,0,0,0.8408399820327759
1.250226486,0,0,1.6160861253738403,0,0,0.8408399820327759
1.25122544,0,0,1.5298948287963867,0,0,1.1466000080108643
1.252225968,0,0,1.4844050407409668,0,0,0.9172800183296204
1.253225756,0,0,1.460463047027588,0,0,1.070159912109375
1.2542265989999999,0,0,1.3551181554794312,0,0,1.070159912109375
1.255225479,0,0,1.403002142906189,0,0,0.9172800183296204
1.256225989,0,0,1.4844050407409668,0,0,0.9172800183296204
1.257225999,0,0,1.556231141090393,0,0,0.9172800183296204
1.258226286,0,0,1.5945383310317993,0,0,0.611519992351532
1.259225963,0,0,1.6136919260025024,0,0,0.9172800183296204
1.260225899,0,0,1.6184803247451782,0,0,0.9937199950218201
1.261225316,0,0,1.5729905366897583,0,0,0.9172800183296204
1.262226603,0,0,1.4173674583435059,0,0,0.7644000053405762
1.263225113,0,0,1.4077905416488647,0,0,0.7644000053405762
1.264225438,0,0,1.4077905416488647,0,0,0.7644000053405762
1.265225633,0,0,1.4939818382263184,0,0,0.9937199950218201
1.266226828,0,0,1.3958195447921753,0,0,0.6879600286483765
1.267225541,0,0,1.3694833517074585,0,0,0.611519992351532
1.268225958,0,0,1.434126853942871,0,0,0.6879600286483765
1.269225709,0,0,1.4748282432556152,0,0,0.9937199950218201
1.270226756,0,0,1.5538369417190552,0,0,0.611519992351532
1.2712254139999999,0,0,1.6615760326385498,0,0,0.7644000053405762
1.2722259980000001,0,0,1.7262194156646729,0,0,0.8408399820327759
1.2732258220000001,0,0,1.7477672100067139,0,0,0.9937199950218201
1.274226758,0,0,1.5179238319396973,0,0,0.9937199950218201
1.275225231,0,0,1.45806884765625,0,0,0.8408399820327759
1.276225685,0,0,1.479616641998291,0,0,0.9172800183296204
1.2772256579999999,0,0,1.3239935636520386,0,0,0.6879600286483765
1.278226445,0,0,1.335964560508728,0,0,0.6879600286483765
1.279225307,0,0,1.381454348564148,0,0,0.611519992351532
1.280225798,0,0,1.525106430053711,0,0,0.6879600286483765
1.281225919,0,0,1.6160861253738403,0,0,0.8408399820327759
1.282226707,0,0,1.7118542194366455,0,0,0.7644000053405762
1.283225513,0,0,1.6855180263519287,0,0,1.070159912109375
1.284225948,0,0,1.6328455209732056,0,0,1.1466000080108643
1.285225718,0,0,1.5873557329177856,0,0,1.070159912109375
1.286226264,0,0,1.4317326545715332,0,0,0.9937199950218201
1.287225441,0,0,1.4317326545715332,0,0,0.7644000053405762
1.288225895,0,0,1.5298948287963867,0,0,0.8408399820327759
1.289225905,0,0,1.4867992401123047,0,0,0.611519992351532
1.2902268590000001,0,0,1.4700398445129395,0,0,0.9937199950218201
1.291225443,0,0,1.479616641998291,0,0,0.6879600286483765
1.292225879,0,0,1.50355863571167,0,0,0.9172800183296204
1.293225888,0,0,1.6304513216018677,0,0,0.8408399820327759
1.294226713,0,0,1.659181833267212,0,0,0.8408399820327759
1.295225501,0,0,1.6352397203445435,0,0,0.7644000053405762
1.296225918,0,0,1.6208745241165161,0,0,0.6879600286483765
1.297225761,0,0,1.53707754611969,0,0,0.7644000053405762
1.298226604,0,0,1.4700398445129395,0,0,0.8408399820327759
1.299222984,0,0,1.4460978507995605,0,0,0.8408399820327759
1.300223457,0,0,1.3455413579940796,0,0,0.611519992351532
1.301223282,0,0,1.4293384552001953,0,0,0.8408399820327759
1.302269569,0,0,1.53707754611969,0,0,0.7644000053405762
1.303231912,0,0,1.525106430053711,0,0,0.7644000053405762
1.304226292,0,0,1.5753847360610962,0,0,0.7644000053405762
1.3052261170000001,0,0,1.6065093278884888,0,0,0.8408399820327759
1.3062267379999999,0,0,1.5945383310317993,0,0,0.9172800183296204
1.3072254700000001,0,0,1.5849615335464478,0,0,0.8408399820327759
1.308225702,0,0,1.4437036514282227,0,0,1.1466000080108643
1.309225804,0,0,1.479616641998291,0,0,0.9937199950218201
1.310226777,0,0,1.4532804489135742,0,0,0.9937199950218201
1.311225565,0,0,1.460463047027588,0,0,0.9937199950218201
1.312225852,0,0,1.3910311460494995,0,0,1.070159912109375
1.313226029,0,0,1.3934253454208374,0,0,0.6879600286483765
1.31422665,0,0,1.4939818382263184,0,0,0.4586400091648102
1.315225326,0,0,1.5753847360610962,0,0,0.9172800183296204
1.316226058,0,0,1.5610195398330688,0,0,0.7644000053405762
1.31722592,0,0,1.577778935432434,0,0,0.611519992351532
1.318226522,0,0,1.5729905366897583,0,0,0.7644000053405762
1.319225476,0,0,1.5705963373184204,0,0,0.305759996175766
1.320225782,0,0,1.4460978507995605,0,0,0.7644000053405762
1.321225737,0,0,1.3838485479354858,0,0,0.5350799560546875
1.322231395,0,0,1.4508862495422363,0,0,0.8408399820327759
1.323225682,0,0,1.4077905416488647,0,0,0.611519992351532
1.32422584,0,0,1.4317326545715332,0,0,0.8408399820327759
1.325225906,0,0,1.4915876388549805,0,0,0.611519992351532
1.326226267,0,0,1.5059528350830078,0,0,0.8408399820327759
1.32722511,0,0,1.599326729774475,0,0,0.8408399820327759
1.328225676,0,0,1.6639702320098877,0,0,0.5350799560546875
1.329225334,0,0,1.5490485429763794,0,0,0.9937199950218201
1.330226584,0,0,1.6759412288665771,0,0,0.611519992351532
1.331225131,0,0,1.4844050407409668,0,0,0.9172800183296204
1.332225881,0,0,1.403002142906189,0,0,0.9937199950218201
1.333226095,0,0,1.5059528350830078,0,0,0.7644000053405762
1.334226438,0,0,1.4173674583435059,0,0,0.8408399820327759
1.335225337,0,0,1.41257905960083,0,0,0.8408399820327759
1.336225772,0,0,1.4245500564575195,0,0,0.8408399820327759
1.3372254670000001,0,0,1.5059528350830078,0,0,0.8408399820327759
1.338226533,0,0,1.580173134803772,0,0,0.6879600286483765
1.339225339,0,0,1.6184803247451782,0,0,0.8408399820327759
1.340225738,0,0,1.647210717201233,0,0,1.070159912109375
1.341225896,0,0,1.6424223184585571,0,0,0.7644000053405762
1.342226442,0,0,1.5849615335464478,0,0,0.8408399820327759
1.3432251370000001,0,0,1.4173674583435059,0,0,0.9172800183296204
1.344225462,0,0,1.3670891523361206,0,0,0.611519992351532
1.345225731,0,0,1.41257905960083,0,0,0.611519992351532
1.3462266299999999,0,0,1.4293384552001953,0,0,0.611519992351532
1.347239176,0,0,1.4844050407409668,0,0,0.7644000053405762
1.3482266680000001,0,0,1.577778935432434,0,0,0.8408399820327759
1.3492257699999999,0,0,1.580173134803772,0,0,0.8408399820327759
1.350226243,0,0,1.5466543436050415,0,0,0.611519992351532
1.351224845,0,0,1.6065093278884888,0,0,0.8408399820327759
1.352225818,0,0,1.580173134803772,0,0,0.5350799560546875
1.3532255690000001,0,0,1.6376339197158813,0,0,1.070159912109375
1.354226393,0,0,1.5682021379470825,0,0,0.7644000053405762
1.3552262179999999,0,0,1.3646949529647827,0,0,0.6879600286483765
1.356225839,0,0,1.3287819623947144,0,0,0.611519992351532
1.357225849,0,0,1.3120225667953491,0,0,0.6879600286483765
1.358226951,0,0,1.3718775510787964,0,0,0.8408399820327759
1.35922859,0,0,1.4317326545715332,0,0,0.611519992351532
1.360225878,0,0,1.4987702369689941,0,0,0.611519992351532
1.361225795,0,0,1.580173134803772,0,0,0.5350799560546875
1.362226509,0,0,1.599326729774475,0,0,0.5350799560546875
1.363226204,0,0,1.6879122257232666,0,0,1.1466000080108643
1.364225917,0,0,1.723825216293335,0,0,0.8408399820327759
1.365246741,0,0,1.5275006294250488,0,0,0.9937199950218201
1.366295066,0,0,1.4221558570861816,0,0,0.9937199950218201
1.367263539,0,0,1.3742717504501343,0,0,0.9172800183296204
1.3682957519999999,0,0,1.359906554222107,0,0,0.6879600286483765
1.369292651,0,0,1.4508862495422363,0,0,0.7644000053405762
1.370273827,0,0,1.4532804489135742,0,0,0.7644000053405762
1.371285448,0,0,1.5442601442337036,0,0,0.8408399820327759
1.372263588,0,0,1.6328455209732056,0,0,0.9937199950218201
1.373259449,0,0,1.6041151285171509,0,0,0.3822000026702881
1.374315736,0,0,1.5490485429763794,0,0,0.8408399820327759
1.375287098,0,0,1.7166426181793213,0,0,0.7644000053405762
1.376287719,0,0,1.5873557329177856,0,0,1.1466000080108643
1.377305525,0,0,1.4844050407409668,0,0,1.070159912109375
1.378293387,0,0,1.479616641998291,0,0,0.6879600286483765
1.379284397,0,0,1.3263877630233765,0,0,1.070159912109375
1.380255796,0,0,1.3527239561080933,0,0,1.070159912109375
1.3812733050000001,0,0,1.4460978507995605,0,0,0.9172800183296204
1.382281871,0,0,1.5873557329177856,0,0,0.6879600286483765
1.3832661769999999,0,0,1.580173134803772,0,0,0.7644000053405762
1.384260224,0,0,1.625662922859192,0,0,0.4586400091648102
1.385255752,0,0,1.6711528301239014,0,0,0.7644000053405762
1.386286169,0,0,1.7477672100067139,0,0,0.9937199950218201
1.387302493,0,0,1.6376339197158813,0,0,0.8408399820327759
1.388253318,0,0,1.4173674583435059,0,0,1.070159912109375
1.3892438280000001,0,0,1.4269442558288574,0,0,0.6879600286483765
1.390245097,0,0,1.400607943534851,0,0,0.7644000053405762
1.391239589,0,0,1.4437036514282227,0,0,0.7644000053405762
1.392241561,0,0,1.4484920501708984,0,0,1.070159912109375
1.393240516,0,0,1.4508862495422363,0,0,0.7644000053405762
1.394244266,0,0,1.5203180313110352,0,0,0.7644000053405762
1.3952422389999999,0,0,1.6041151285171509,0,0,0.9172800183296204
1.3962415639999999,0,0,1.556231141090393,0,0,0.611519992351532
1.397239388,0,0,1.6639702320098877,0,0,0.9937199950218201
1.398243065,0,0,1.742978811264038,0,0,0.8408399820327759
1.399244463,0,0,1.522712230682373,0,0,0.8408399820327759
1.400240047,0,0,1.4293384552001953,0,0,0.7644000053405762
1.401243501,0,0,1.4508862495422363,0,0,0.6879600286483765
1.4022469929999999,0,0,1.45806884765625,0,0,0.8408399820327759
1.403245762,0,0,1.434126853942871,0,0,0.8408399820327759
1.404243605,0,0,1.4987702369689941,0,0,0.5350799560546875
1.405267874,0,0,1.5418659448623657,0,0,0.611519992351532
1.4063177900000001,0,0,1.6041151285171509,0,0,1.070159912109375
1.407280023,0,0,1.6184803247451782,0,0,0.611519992351532
1.408254866,0,0,1.6304513216018677,0,0,0.8408399820327759
1.410016258,0,0,1.6304513216018677,0,0,0.8408399820327759
1.410208701,0,0,1.5298948287963867,0,0,0.7644000053405762
1.411255636,0,0,1.4269442558288574,0,0,0.8408399820327759
1.412250479,0,0,1.37906014919281,0,0,0.9172800183296204
1.413287193,0,0,1.434126853942871,0,0,0.8408399820327759
1.414429868,0,0,1.4221558570861816,0,0,0.9937199950218201
1.415297749,0,0,1.534683346748352,0,0,0.7644000053405762
1.416280778,0,0,1.5705963373184204,0,0,0.611519992351532
1.417272584,0,0,1.6065093278884888,0,0,0.9172800183296204
1.418262057,0,0,1.6615760326385498,0,0,0.7644000053405762
1.419265122,0,0,1.6065093278884888,0,0,0.6879600286483765
1.420249762,0,0,1.6687586307525635,0,0,0.7644000053405762
1.421279919,0,0,1.6184803247451782,0,0,0.9937199950218201
1.422484075,0,0,1.5155296325683594,0,0,1.070159912109375
1.423265939,0,0,1.4221558570861816,0,0,0.9172800183296204
1.42426956,0,0,1.3838485479354858,0,0,0.9172800183296204
1.4252601440000001,0,0,1.357512354850769,0,0,0.6879600286483765
1.426272524,0,0,1.4437036514282227,0,0,0.6879600286483765
1.427265719,0,0,1.522712230682373,0,0,0.7644000053405762
1.428264062,0,0,1.5753847360610962,0,0,0.7644000053405762
1.4292740720000001,0,0,1.5897499322891235,0,0,0.7644000053405762
1.430264415,0,0,1.6376339197158813,0,0,0.5350799560546875
1.431266628,0,0,1.6112977266311646,0,0,0.9172800183296204
1.432272453,0,0,1.6065093278884888,0,0,0.9172800183296204
1.433237648,0,0,1.5275006294250488,0,0,0.6879600286483765
1.434239936,0,0,1.4484920501708984,0,0,0.9937199950218201
1.435242149,0,0,1.3958195447921753,0,0,0.7644000053405762
1.436224326,0,0,1.434126853942871,0,0,0.9172800183296204
1.437223428,0,0,1.4867992401123047,0,0,0.4586400091648102
1.438225919,0,0,1.50355863571167,0,0,1.070159912109375
1.439223596,0,0,1.5753847360610962,0,0,0.9172800183296204
1.440223402,0,0,1.599326729774475,0,0,0.7644000053405762
1.441230764,0,0,1.6759412288665771,0,0,0.7644000053405762
1.442223811,0,0,1.702277421951294,0,0,0.611519992351532
1.443223765,0,0,1.644816517829895,0,0,0.8408399820327759
1.444223441,0,0,1.5825673341751099,0,0,0.7644000053405762
1.445223358,0,0,1.45806884765625,0,0,1.070159912109375
1.446223887,0,0,1.4748282432556152,0,0,1.1466000080108643
1.447223878,0,0,1.4748282432556152,0,0,0.7644000053405762
1.448223369,0,0,1.4532804489135742,0,0,0.9937199950218201
1.449223379,0,0,1.460463047027588,0,0,0.9172800183296204
1.450223611,0,0,1.5275006294250488,0,0,0.611519992351532
1.451223862,0,0,1.4844050407409668,0,0,0.9172800183296204
1.452223353,0,0,1.6543933153152466,0,0,0.8408399820327759
1.453223455,0,0,1.6615760326385498,0,0,0.8408399820327759
1.454346353,0,0,1.5418659448623657,0,0,0.9937199950218201
1.455225493,0,0,1.5179238319396973,0,0,0.6879600286483765
1.456223966,0,0,1.4891934394836426,0,0,0.8408399820327759
1.457223624,0,0,1.4508862495422363,0,0,0.9937199950218201
1.458223745,0,0,1.4484920501708984,0,0,0.8408399820327759
1.459223162,0,0,1.3048399686813354,0,0,0.9172800183296204
1.460223357,0,0,1.455674648284912,0,0,0.6879600286483765
1.461223774,0,0,1.4293384552001953,0,0,0.611519992351532
1.462223451,0,0,1.5155296325683594,0,0,0.6879600286483765
1.463223572,0,0,1.5658079385757446,0,0,0.9172800183296204
1.464223433,0,0,1.6400281190872192,0,0,0.9937199950218201
1.465223314,0,0,1.6735470294952393,0,0,0.6879600286483765
1.466239194,0,0,1.680729627609253,0,0,0.611519992351532
1.467224574,0,0,1.534683346748352,0,0,0.6879600286483765
1.468223435,0,0,1.3862427473068237,0,0,0.7644000053405762
1.469223223,0,0,1.4173674583435059,0,0,0.8408399820327759
1.470224011,0,0,1.37906014919281,0,0,0.9172800183296204
1.471224113,0,0,1.4197616577148438,0,0,0.9172800183296204
1.472223475,0,0,1.580173134803772,0,0,0.5350799560546875
1.473223355,0,0,1.580173134803772,0,0,0.7644000053405762
1.4742253650000001,0,0,1.5897499322891235,0,0,0.7644000053405762
1.475226911,0,0,1.644816517829895,0,0,0.611519992351532
1.4762263469999999,0,0,1.5945383310317993,0,0,0.5350799560546875
1.477225764,0,0,1.6136919260025024,0,0,0.8408399820327759
1.478226682,0,0,1.5753847360610962,0,0,0.9937199950218201
1.479223469,0,0,1.4891934394836426,0,0,0.9172800183296204
1.48022309,0,0,1.5298948287963867,0,0,1.1466000080108643
1.481223118,0,0,1.5107412338256836,0,0,0.8408399820327759
1.482225295,0,0,1.414973258972168,0,0,0.8408399820327759
1.483226416,0,0,1.4173674583435059,0,0,0.9172800183296204
1.484226148,0,0,1.4772224426269531,0,0,0.611519992351532
1.485226009,0,0,1.5490485429763794,0,0,0.7644000053405762
1.486226778,0,0,1.580173134803772,0,0,1.070159912109375
1.487225751,0,0,1.6424223184585571,0,0,0.5350799560546875
1.48822615,0,0,1.6711528301239014,0,0,0.6879600286483765
1.4892259,0,0,1.625662922859192,0,0,0.9172800183296204
1.49022691,0,0,1.5682021379470825,0,0,0.9172800183296204
1.491225124,0,0,1.5155296325683594,0,0,0.9172800183296204
1.492225967,0,0,1.3958195447921753,0,0,0.611519992351532
1.493225977,0,0,1.3527239561080933,0,0,0.9937199950218201
1.494226579,0,0,1.414973258972168,0,0,0.9172800183296204
1.495225496,0,0,1.5107412338256836,0,0,0.9937199950218201
1.496226006,0,0,1.5418659448623657,0,0,0.8408399820327759
1.497226016,0,0,1.5394717454910278,0,0,0.611519992351532
1.49822697,0,0,1.6328455209732056,0,0,0.7644000053405762
1.499225258,0,0,1.6735470294952393,0,0,0.8408399820327759
1.500225823,0,0,1.580173134803772,0,0,0.6879600286483765
1.501225907,0,0,1.482010841369629,0,0,0.7644000053405762
1.5022264170000001,0,0,1.4939818382263184,0,0,0.9937199950218201
1.503225426,0,0,1.4844050407409668,0,0,0.8408399820327759
1.504225862,0,0,1.4197616577148438,0,0,0.7644000053405762
1.505225853,0,0,1.4197616577148438,0,0,0.9172800183296204
1.506226622,0,0,1.4891934394836426,0,0,0.611519992351532
1.507225595,0,0,1.5179238319396973,0,0,0.5350799560546875
1.508225957,0,0,1.6400281190872192,0,0,0.7644000053405762
1.509226041,0,0,1.6615760326385498,0,0,0.8408399820327759
1.510226828,0,0,1.6974890232086182,0,0,0.6879600286483765
1.511225208,0,0,1.6687586307525635,0,0,0.5350799560546875
1.512225718,0,0,1.623268723487854,0,0,0.5350799560546875
1.51322595,0,0,1.460463047027588,0,0,0.7644000053405762
1.51422696,0,0,1.3934253454208374,0,0,0.9172800183296204
1.5152251730000001,0,0,1.4676456451416016,0,0,0.8408399820327759
1.5162260349999999,0,0,1.4508862495422363,0,0,0.6879600286483765
1.5172324339999999,0,0,1.4221558570861816,0,0,0.4586400091648102
1.518227999,0,0,1.4508862495422363,0,0,1.070159912109375
1.519225305,0,0,1.501164436340332,0,0,0.9172800183296204
1.5202256109999999,0,0,1.6041151285171509,0,0,0.7644000053405762
1.52122588,0,0,1.6304513216018677,0,0,0.6879600286483765
1.522227779,0,0,1.6160861253738403,0,0,0.9172800183296204
1.52322577,0,0,1.6663644313812256,0,0,0.7644000053405762
1.524225447,0,0,1.522712230682373,0,0,0.611519992351532
1.525226253,0,0,1.4676456451416016,0,0,1.070159912109375
1.526227337,0,0,1.4437036514282227,0,0,0.611519992351532
1.527224939,0,0,1.3718775510787964,0,0,0.6879600286483765
1.5282258560000002,0,0,1.359906554222107,0,0,0.611519992351532
1.529225848,0,0,1.5059528350830078,0,0,0.6879600286483765
1.5302326910000001,0,0,1.5921441316604614,0,0,0.6879600286483765
1.5312258490000001,0,0,1.6376339197158813,0,0,0.9172800183296204
1.5322259329999999,0,0,1.6112977266311646,0,0,0.611519992351532
1.533226016,0,0,1.644816517829895,0,0,0.5350799560546875
1.534226489,0,0,1.5921441316604614,0,0,0.8408399820327759
1.535278221,0,0,1.455674648284912,0,0,0.7644000053405762
1.536226749,0,0,1.4245500564575195,0,0,0.7644000053405762
1.53740998,0,0,1.4317326545715332,0,0,0.611519992351532
1.538416175,0,0,1.4484920501708984,0,0,0.7644000053405762
1.539411222,0,0,1.3623007535934448,0,0,0.9172800183296204
1.540412861,0,0,1.4293384552001953,0,0,0.8408399820327759
1.541411667,0,0,1.4748282432556152,0,0,0.7644000053405762
1.542412751,0,0,1.5514427423477173,0,0,0.8408399820327759
1.543410835,0,0,1.5394717454910278,0,0,0.7644000053405762
1.544411863,0,0,1.5634137392044067,0,0,0.8408399820327759
1.545412354,0,0,1.601720929145813,0,0,1.070159912109375
1.546413957,0,0,1.6041151285171509,0,0,1.1466000080108643
1.5474112629999999,0,0,1.4700398445129395,0,0,0.9172800183296204
1.548412328,0,0,1.4317326545715332,0,0,0.7644000053405762
1.549411208,0,0,1.3910311460494995,0,0,0.8408399820327759
1.550413848,0,0,1.3718775510787964,0,0,0.5350799560546875
1.551410358,0,0,1.414973258972168,0,0,0.9172800183296204
1.552412127,0,0,1.558625340461731,0,0,0.7644000053405762
1.553412118,0,0,1.5705963373184204,0,0,0.6879600286483765
1.55441272,0,0,1.644816517829895,0,0,0.7644000053405762
1.555409434,0,0,1.5682021379470825,0,0,0.611519992351532
1.556406944,0,0,1.5442601442337036,0,0,0.6879600286483765
1.557407509,0,0,1.623268723487854,0,0,0.9937199950218201
1.558410704,0,0,1.5203180313110352,0,0,1.1466000080108643
1.559442565,0,0,1.3718775510787964,0,0,0.5350799560546875
1.560415446,0,0,1.455674648284912,0,0,0.9172800183296204
1.561406437,0,0,1.3886369466781616,0,0,0.9937199950218201
1.562407965,0,0,1.357512354850769,0,0,0.7644000053405762
1.563408401,0,0,1.4939818382263184,0,0,0.611519992351532
1.5644068,0,0,1.534683346748352,0,0,0.6879600286483765
1.5654060319999998,0,0,1.5969325304031372,0,0,0.611519992351532
1.566406875,0,0,1.6543933153152466,0,0,0.611519992351532
1.567407181,0,0,1.7142484188079834,0,0,0.611519992351532
1.568406228,0,0,1.656787633895874,0,0,0.611519992351532
1.569659106,0,0,1.4700398445129395,0,0,0.9172800183296204
1.570411988,0,0,1.4221558570861816,0,0,0.8408399820327759
1.5714074980000001,0,0,1.4197616577148438,0,0,0.8408399820327759
1.572406674,0,0,1.2832920551300049,0,0,0.8408399820327759
1.573406647,0,0,1.338358759880066,0,0,0.9937199950218201
1.5744148610000002,0,0,1.5179238319396973,0,0,0.9937199950218201
1.575407759,0,0,1.4891934394836426,0,0,0.7644000053405762
1.57640788,0,0,1.580173134803772,0,0,0.611519992351532
1.57740626,0,0,1.6759412288665771,0,0,0.9172800183296204
1.578408233,0,0,1.5729905366897583,0,0,0.7644000053405762
1.579407743,0,0,1.6376339197158813,0,0,0.9172800183296204
1.5804065120000002,0,0,1.6376339197158813,0,0,0.7644000053405762
1.581406485,0,0,1.4963760375976563,0,0,0.611519992351532
1.582406809,0,0,1.4700398445129395,0,0,0.9172800183296204
1.583407375,0,0,1.460463047027588,0,0,0.8408399820327759
1.5844066620000001,0,0,1.4293384552001953,0,0,0.8408399820327759
1.585405265,0,0,1.3958195447921753,0,0,0.8408399820327759
1.586413793,0,0,1.357512354850769,0,0,0.7644000053405762
1.5874181360000001,0,0,1.4867992401123047,0,0,0.9172800183296204
1.588412757,0,0,1.5945383310317993,0,0,0.7644000053405762
1.5894126370000001,0,0,1.659181833267212,0,0,0.7644000053405762
1.5904130539999999,0,0,1.6376339197158813,0,0,0.6879600286483765
1.591412305,0,0,1.5873557329177856,0,0,0.9172800183296204
1.592411555,0,0,1.4724340438842773,0,0,1.070159912109375
1.593412325,0,0,1.403002142906189,0,0,0.8408399820327759
1.594429242,0,0,1.4221558570861816,0,0,0.8408399820327759
1.5954076590000001,0,0,1.4413094520568848,0,0,0.7644000053405762
1.596407298,0,0,1.4269442558288574,0,0,0.9172800183296204
1.597405734,0,0,1.5155296325683594,0,0,0.6879600286483765
1.5984098740000001,0,0,1.5634137392044067,0,0,0.611519992351532
1.599412068,0,0,1.5753847360610962,0,0,0.7644000053405762
1.600411152,0,0,1.6352397203445435,0,0,1.070159912109375
1.601411625,0,0,1.6687586307525635,0,0,0.3822000026702881
1.602411283,0,0,1.656787633895874,0,0,0.9172800183296204
1.6034113479999998,0,0,1.6376339197158813,0,0,0.5350799560546875
1.60441108,0,0,1.5107412338256836,0,0,0.9937199950218201
1.605411257,0,0,1.5298948287963867,0,0,0.8408399820327759
1.606412396,0,0,1.4053963422775269,0,0,0.6879600286483765
1.607411184,0,0,1.359906554222107,0,0,1.070159912109375
1.6084111939999999,0,0,1.4652514457702637,0,0,0.8408399820327759
1.6094117959999998,0,0,1.5179238319396973,0,0,0.8408399820327759
1.610413065,0,0,1.6112977266311646,0,0,0.9937199950218201
1.611409964,0,0,1.6663644313812256,0,0,0.8408399820327759
1.61241127,0,0,1.6663644313812256,0,0,0.7644000053405762
1.613410391,0,0,1.6711528301239014,0,0,0.9937199950218201
1.614412271,0,0,1.6759412288665771,0,0,0.8408399820327759
1.615409984,0,0,1.5442601442337036,0,0,0.8408399820327759
1.616411383,0,0,1.3934253454208374,0,0,0.8408399820327759
1.6174113,0,0,1.3335703611373901,0,0,0.9172800183296204
1.618412884,0,0,1.4173674583435059,0,0,0.8408399820327759
1.619410524,0,0,1.381454348564148,0,0,0.7644000053405762
1.62041083,0,0,1.4772224426269531,0,0,0.7644000053405762
1.6214115059999998,0,0,1.5442601442337036,0,0,0.6879600286483765
1.622413127,0,0,1.4915876388549805,0,0,-9.019920349121094
1.623410859,0,0,1.5873557329177856,0,0,0.7644000053405762
1.624411332,0,0,1.6496049165725708,0,0,0.8408399820327759
1.625411212,0,0,1.7334020137786865,0,0,1.070159912109375
1.6264124070000001,0,0,1.6041151285171509,0,0,0.9172800183296204
1.627410343,0,0,1.4748282432556152,0,0,1.070159912109375
1.6284102599999999,0,0,1.4772224426269531,0,0,0.9937199950218201
1.6294112699999999,0,0,1.4221558570861816,0,0,0.7644000053405762
1.630413168,0,0,1.3910311460494995,0,0,0.611519992351532
1.631410215,0,0,1.5083470344543457,0,0,0.611519992351532
1.632411281,0,0,1.4891934394836426,0,0,0.6879600286483765
1.63341129,0,0,1.6160861253738403,0,0,0.611519992351532
1.634412893,0,0,1.6352397203445435,0,0,0.4586400091648102
1.635409125,0,0,1.6376339197158813,0,0,0.6879600286483765
1.6364395969999999,0,0,1.6041151285171509,0,0,1.070159912109375
1.637411496,0,0,1.5107412338256836,0,0,0.9172800183296204
1.6384134320000001,0,0,1.4460978507995605,0,0,0.8408399820327759
1.639422053,0,0,1.4437036514282227,0,0,0.9172800183296204
1.6404142849999999,0,0,1.3311761617660522,0,0,0.9937199950218201
1.641411443,0,0,1.3503297567367554,0,0,0.6879600286483765
1.642413045,0,0,1.5179238319396973,0,0,0.6879600286483765
1.643409314,0,0,1.53707754611969,0,0,0.7644000053405762
1.644411676,0,0,1.5825673341751099,0,0,0.7644000053405762
1.645411204,0,0,1.534683346748352,0,0,0.9172800183296204
1.6464127880000001,0,0,1.5873557329177856,0,0,0.5350799560546875
1.6474095389999999,0,0,1.5945383310317993,0,0,0.8408399820327759
1.648411326,0,0,1.6112977266311646,0,0,0.7644000053405762
1.6494112429999999,0,0,1.5634137392044067,0,0,1.070159912109375
1.650412049,0,0,1.4844050407409668,0,0,0.6879600286483765
1.651410318,0,0,1.5322890281677246,0,0,0.9172800183296204
1.652412217,0,0,1.4173674583435059,0,0,0.9172800183296204
1.6534111710000001,0,0,1.4460978507995605,0,0,0.7644000053405762
1.654413274,0,0,1.5394717454910278,0,0,0.8408399820327759
1.655410635,0,0,1.6304513216018677,0,0,0.9172800183296204
1.656412423,0,0,1.577778935432434,0,0,0.7644000053405762
1.657410136,0,0,1.6112977266311646,0,0,1.070159912109375
1.658426868,0,0,1.6711528301239014,0,0,0.9172800183296204
1.659411897,0,0,1.6735470294952393,0,0,0.6879600286483765
1.660422295,0,0,1.5131354331970215,0,0,1.070159912109375
1.661412509,0,0,1.455674648284912,0,0,1.070159912109375
1.662413463,0,0,1.4437036514282227,0,0,0.9172800183296204
1.663409454,0,0,1.4389152526855469,0,0,0.9172800183296204
1.6644157229999998,0,0,1.4772224426269531,0,0,0.8408399820327759
1.6654269739999998,0,0,1.5155296325683594,0,0,0.611519992351532
1.6664165020000001,0,0,1.5490485429763794,0,0,0.9172800183296204
1.667413642,0,0,1.5921441316604614,0,0,1.070159912109375
1.668412485,0,0,1.5897499322891235,0,0,0.7644000053405762
1.669412809,0,0,1.647210717201233,0,0,0.611519992351532
1.6704131530000002,0,0,1.6280571222305298,0,0,0.6879600286483765
1.6714055700000001,0,0,1.580173134803772,0,0,0.9937199950218201
1.6724061350000001,0,0,1.5107412338256836,0,0,0.611519992351532
1.673406497,0,0,1.4724340438842773,0,0,0.9172800183296204
1.674413229,0,0,1.4221558570861816,0,0,0.7644000053405762
1.675412461,0,0,1.3192051649093628,0,0,0.8408399820327759
1.676411119,0,0,1.4987702369689941,0,0,0.4586400091648102
1.6774112209999998,0,0,1.45806884765625,0,0,0.611519992351532
1.67840999,0,0,1.5083470344543457,0,0,0.5350799560546875
1.679406685,0,0,1.5897499322891235,0,0,0.9172800183296204
1.680406528,0,0,1.6424223184585571,0,0,0.611519992351532
1.681406057,0,0,1.5538369417190552,0,0,0.8408399820327759
1.6825881759999999,0,0,1.5394717454910278,0,0,0.8408399820327759
1.683415613,0,0,1.403002142906189,0,0,0.6879600286483765
1.684495141,0,0,1.41257905960083,0,0,1.070159912109375
1.685627464,0,0,1.5753847360610962,0,0,0.9172800183296204
1.686430735,0,0,1.4772224426269531,0,0,0.6879600286483765
1.6874053930000001,0,0,1.455674648284912,0,0,0.9172800183296204
1.688429384,0,0,1.357512354850769,0,0,0.611519992351532
1.68940532,0,0,1.4460978507995605,0,0,0.7644000053405762
1.690409015,0,0,1.50355863571167,0,0,0.7644000053405762
1.691411451,0,0,1.6855180263519287,0,0,0.611519992351532
1.6924089420000001,0,0,1.6855180263519287,0,0,0.6879600286483765
1.693407119,0,0,1.6376339197158813,0,0,0.9937199950218201
1.694409702,0,0,1.6112977266311646,0,0,0.9937199950218201
1.6954087310000001,0,0,1.5849615335464478,0,0,0.9172800183296204
1.696409074,0,0,1.3527239561080933,0,0,0.7644000053405762
1.697408158,0,0,1.41257905960083,0,0,0.9172800183296204
1.698408927,0,0,1.403002142906189,0,0,0.8408399820327759
1.699408955,0,0,1.3718775510787964,0,0,0.6879600286483765
1.700408576,0,0,1.4269442558288574,0,0,0.6879600286483765
1.701408345,0,0,1.5634137392044067,0,0,0.7644000053405762
1.7024119469999999,0,0,1.5298948287963867,0,0,0.6879600286483765
1.703408976,0,0,1.5945383310317993,0,0,0.6879600286483765
1.704408356,0,0,1.702277421951294,0,0,0.611519992351532
1.7054085319999999,0,0,1.6280571222305298,0,0,0.8408399820327759
1.706411098,0,0,1.5729905366897583,0,0,0.5350799560546875
1.707409367,0,0,1.3862427473068237,0,0,0.8408399820327759
1.708407562,0,0,1.3694833517074585,0,0,0.611519992351532
1.709409053,0,0,1.3886369466781616,0,0,0.9172800183296204
1.710411285,0,0,1.3934253454208374,0,0,1.070159912109375
1.7114095169999999,0,0,1.5083470344543457,0,0,0.6879600286483765
1.712408471,0,0,1.5610195398330688,0,0,0.9937199950218201
1.7134088699999999,0,0,1.623268723487854,0,0,0.6879600286483765
1.714410565,0,0,1.5897499322891235,0,0,0.5350799560546875
1.715406223,0,0,1.5610195398330688,0,0,0.611519992351532
1.716408714,0,0,1.6615760326385498,0,0,0.9937199950218201
1.7174085940000001,0,0,1.7190368175506592,0,0,0.9172800183296204
1.718410641,0,0,1.5155296325683594,0,0,1.223039984703064
1.719407392,0,0,1.4077905416488647,0,0,0.8408399820327759
1.720408753,0,0,1.414973258972168,0,0,0.9172800183296204
1.7214085959999998,0,0,1.3670891523361206,0,0,0.8408399820327759
1.722438439,0,0,1.4173674583435059,0,0,1.070159912109375
1.7234213010000001,0,0,1.479616641998291,0,0,0.611519992351532
1.724410052,0,0,1.534683346748352,0,0,0.7644000053405762
1.7254087839999999,0,0,1.5945383310317993,0,0,0.9172800183296204
1.7264121449999998,0,0,1.601720929145813,0,0,0.9172800183296204
1.727409285,0,0,1.599326729774475,0,0,0.8408399820327759
1.728409109,0,0,1.6352397203445435,0,0,1.070159912109375
1.7294085639999999,0,0,1.5753847360610962,0,0,1.1466000080108643
1.7304111660000001,0,0,1.4437036514282227,0,0,0.9937199950218201
1.731409435,0,0,1.4101848602294922,0,0,0.7644000053405762
1.732408315,0,0,1.3910311460494995,0,0,0.8408399820327759
1.733408733,0,0,1.3623007535934448,0,0,0.8408399820327759
1.734410983,0,0,1.400607943534851,0,0,0.7644000053405762
1.735408993,0,0,1.4891934394836426,0,0,0.7644000053405762
1.736407743,0,0,1.525106430053711,0,0,0.611519992351532
1.737408753,0,0,1.6376339197158813,0,0,1.070159912109375
1.738411726,0,0,1.6041151285171509,0,0,0.9172800183296204
1.7395356789999998,0,0,1.601720929145813,0,0,0.7644000053405762
1.7404521339999999,0,0,1.5466543436050415,0,0,0.6879600286483765
1.741453718,0,0,1.381454348564148,0,0,1.070159912109375
1.742456709,0,0,1.4077905416488647,0,0,0.9172800183296204
1.74345196,0,0,1.4389152526855469,0,0,0.9172800183296204
1.74445121,0,0,1.3551181554794312,0,0,0.4586400091648102
1.745450646,0,0,1.4245500564575195,0,0,0.8408399820327759
1.746454415,0,0,1.5131354331970215,0,0,0.8408399820327759
1.747452295,0,0,1.558625340461731,0,0,0.611519992351532
1.748451657,0,0,1.5897499322891235,0,0,0.8408399820327759
1.749451204,0,0,1.6352397203445435,0,0,0.7644000053405762
1.7504541580000001,0,0,1.558625340461731,0,0,0.6879600286483765
1.751450945,0,0,1.659181833267212,0,0,0.8408399820327759
1.75245127,0,0,1.5634137392044067,0,0,0.7644000053405762
1.753451428,0,0,1.41257905960083,0,0,0.7644000053405762
1.754454123,0,0,1.5753847360610962,0,0,0.8408399820327759
1.755452707,0,0,1.460463047027588,0,0,0.9937199950218201
1.756451217,0,0,1.3934253454208374,0,0,0.9172800183296204
1.757451004,0,0,1.403002142906189,0,0,0.6879600286483765
1.758453958,0,0,1.4867992401123047,0,0,0.5350799560546875
1.75945119,0,0,1.5753847360610962,0,0,0.6879600286483765
1.7604514409999998,0,0,1.702277421951294,0,0,0.611519992351532
1.76145134,0,0,1.7357962131500244,0,0,1.070159912109375
1.762452535,0,0,1.6831238269805908,0,0,1.1466000080108643
1.763467859,0,0,1.5155296325683594,0,0,0.8408399820327759
1.7644765169999999,0,0,1.41257905960083,0,0,1.070159912109375
1.765514601,0,0,1.4413094520568848,0,0,0.6879600286483765
1.766488203,0,0,1.5083470344543457,0,0,0.611519992351532
1.767470861,0,0,1.4293384552001953,0,0,-8.714159965515137
1.7684891120000001,0,0,1.4676456451416016,0,0,0.6879600286483765
1.769459677,0,0,1.5203180313110352,0,0,0.6879600286483765
1.770461946,0,0,1.6304513216018677,0,0,1.070159912109375
1.7714779,0,0,1.6663644313812256,0,0,0.611519992351532
1.772466651,0,0,1.6687586307525635,0,0,0.5350799560546875
1.77392049,0,0,1.5969325304031372,0,0,0.6879600286483765
1.774545392,0,0,1.556231141090393,0,0,1.1466000080108643
1.7756614929999999,0,0,1.556231141090393,0,0,0.7644000053405762
1.776465135,0,0,1.4532804489135742,0,0,0.8408399820327759
1.777452515,0,0,1.3982137441635132,0,0,0.8408399820327759
1.7784673020000001,0,0,1.381454348564148,0,0,0.611519992351532
1.779467645,0,0,1.4077905416488647,0,0,1.1466000080108643
1.780461192,0,0,1.4389152526855469,0,0,0.7644000053405762
1.781511553,0,0,1.5490485429763794,0,0,0.9937199950218201
1.7824881559999999,0,0,1.6328455209732056,0,0,0.6879600286483765
1.783472833,0,0,1.659181833267212,0,0,0.5350799560546875
1.784467324,0,0,1.6160861253738403,0,0,0.6879600286483765
1.78548313,0,0,1.525106430053711,0,0,1.070159912109375
1.789551428,0,0,1.4293384552001953,0,0,0.9937199950218201
1.7899994609999998,0,0,1.4293384552001953,0,0,0.5350799560546875
1.7903879200000001,0,0,1.4437036514282227,0,0,0.305759996175766
1.7907696579999999,0,0,1.4437036514282227,0,0,0.8408399820327759
1.791141544,0,0,1.4437036514282227,0,0,0.7644000053405762
1.791514448,0,0,1.5179238319396973,0,0,0.6879600286483765
1.792475032,0,0,1.5490485429763794,0,0,0.5350799560546875
1.793470468,0,0,1.6041151285171509,0,0,0.9172800183296204
1.7944715329999998,0,0,1.6735470294952393,0,0,0.9172800183296204
1.79545645,0,0,1.6759412288665771,0,0,0.611519992351532
1.7964592929999998,0,0,1.6879122257232666,0,0,0.611519992351532
1.797455507,0,0,1.556231141090393,0,0,0.8408399820327759
1.798461646,0,0,1.4652514457702637,0,0,0.9937199950218201
1.799462286,0,0,1.4413094520568848,0,0,-8.943479537963867
1.800455259,0,0,1.4173674583435059,0,0,0.9937199950218201
1.801453565,0,0,1.3934253454208374,0,0,0.9172800183296204
1.8024563150000001,0,0,1.3766659498214722,0,0,0.9937199950218201
1.803451232,0,0,1.5466543436050415,0,0,0.7644000053405762
1.804448742,0,0,1.6280571222305298,0,0,0.6879600286483765
1.8054493630000001,0,0,1.5442601442337036,0,0,0.8408399820327759
1.806451928,0,0,1.6208745241165161,0,0,0.6879600286483765
1.807451049,0,0,1.6184803247451782,0,0,0.6879600286483765
1.808450059,0,0,1.6112977266311646,0,0,0.9937199950218201
1.8094692719999999,0,0,1.501164436340332,0,0,0.611519992351532
1.810453023,0,0,1.4628572463989258,0,0,1.070159912109375
1.811449996,0,0,1.4053963422775269,0,0,0.9172800183296204
1.812452302,0,0,1.41257905960083,0,0,1.070159912109375
1.8134863669999999,0,0,1.4700398445129395,0,0,0.7644000053405762
1.814615987,0,0,1.5155296325683594,0,0,0.7644000053405762
1.8160704189999999,0,0,1.5538369417190552,0,0,0.611519992351532
1.8181128819999999,0,0,1.6759412288665771,0,0,0.611519992351532
1.8190455779999999,0,0,1.6759412288665771,0,0,0.9937199950218201
1.819428926,0,0,1.6280571222305298,0,0,1.1466000080108643
1.819801793,0,0,1.6280571222305298,0,0,0.8408399820327759
1.8204676210000001,0,0,1.4963760375976563,0,0,1.223039984703064
1.82159263,0,0,1.403002142906189,0,0,0.7644000053405762
1.8226298239999998,0,0,1.4724340438842773,0,0,0.6879600286483765
1.8236226119999999,0,0,1.4772224426269531,0,0,0.7644000053405762
1.824955211,0,0,1.4221558570861816,0,0,0.9172800183296204
1.8258177039999999,0,0,1.4844050407409668,0,0,0.6879600286483765
1.826494179,0,0,1.5322890281677246,0,0,0.7644000053405762
1.827493689,0,0,1.53707754611969,0,0,0.7644000053405762
1.8284800140000002,0,0,1.6519991159439087,0,0,0.6879600286483765
1.8294935049999999,0,0,1.5418659448623657,0,0,0.9937199950218201
1.83049783,0,0,1.6543933153152466,0,0,0.9172800183296204
1.831491728,0,0,1.6831238269805908,0,0,0.8408399820327759
1.832484479,0,0,1.4844050407409668,0,0,0.9172800183296204
1.833521748,0,0,1.4676456451416016,0,0,0.7644000053405762
1.834682608,0,0,1.4867992401123047,0,0,0.8408399820327759
1.835533619,0,0,1.482010841369629,0,0,0.9937199950218201
1.836477092,0,0,1.5059528350830078,0,0,0.9937199950218201
1.837463528,0,0,1.6065093278884888,0,0,0.9172800183296204
1.838455353,0,0,1.5873557329177856,0,0,0.7644000053405762
1.83934479,0,0,1.5729905366897583,0,0,0.6879600286483765
1.840329003,0,0,1.601720929145813,0,0,0.9937199950218201
1.841326383,0,0,1.647210717201233,0,0,0.9172800183296204
1.8423302449999999,0,0,1.6496049165725708,0,0,0.8408399820327759
1.8433313839999999,0,0,1.53707754611969,0,0,0.9172800183296204
1.844342709,0,0,1.4676456451416016,0,0,0.9172800183296204
1.845332182,0,0,1.4700398445129395,0,0,0.7644000053405762
1.846331951,0,0,1.3862427473068237,0,0,0.9172800183296204
1.847350016,0,0,1.403002142906189,0,0,0.9172800183296204
1.848365655,0,0,1.41257905960083,0,0,0.7644000053405762
1.849401887,0,0,1.525106430053711,0,0,0.8408399820327759
1.850394675,0,0,1.6735470294952393,0,0,0.6879600286483765
1.851368481,0,0,1.680729627609253,0,0,0.8408399820327759
1.8523648609999999,0,0,1.6160861253738403,0,0,0.8408399820327759
1.854270919,0,0,1.6112977266311646,0,0,0.8408399820327759
1.8546511369999998,0,0,1.5897499322891235,0,0,1.070159912109375
1.855419575,0,0,1.436521053314209,0,0,0.8408399820327759
1.856426511,0,0,1.5825673341751099,0,0,0.8408399820327759
1.857419502,0,0,1.5083470344543457,0,0,0.6879600286483765
1.858470845,0,0,1.4532804489135742,0,0,0.8408399820327759
1.859391244,0,0,1.4987702369689941,0,0,0.9172800183296204
1.860370921,0,0,1.5155296325683594,0,0,0.611519992351532
1.8613810050000001,0,0,1.6089035272598267,0,0,0.8408399820327759
1.862383959,0,0,1.53707754611969,0,0,0.9172800183296204
1.863381746,0,0,1.647210717201233,0,0,0.9172800183296204
1.8643774039999998,0,0,1.6543933153152466,0,0,0.8408399820327759
1.865444858,0,0,1.6136919260025024,0,0,0.9172800183296204
1.8663954980000002,0,0,1.522712230682373,0,0,0.7644000053405762
1.867374897,0,0,1.4053963422775269,0,0,0.9172800183296204
1.868405536,0,0,1.400607943534851,0,0,0.8408399820327759
1.869375583,0,0,1.3766659498214722,0,0,0.8408399820327759
1.8703717229999999,0,0,1.434126853942871,0,0,0.6879600286483765
1.8713819360000001,0,0,1.5945383310317993,0,0,0.4586400091648102
1.872386723,0,0,1.580173134803772,0,0,0.8408399820327759
1.873387659,0,0,1.5921441316604614,0,0,0.6879600286483765
1.874403928,0,0,1.6950948238372803,0,0,1.1466000080108643
1.8753653460000002,0,0,1.5682021379470825,0,0,0.8408399820327759
1.876404651,0,0,1.6519991159439087,0,0,0.8408399820327759
1.877390069,0,0,1.6041151285171509,0,0,0.4586400091648102
1.878378264,0,0,1.460463047027588,0,0,0.7644000053405762
1.879379533,0,0,1.4317326545715332,0,0,0.9172800183296204
1.880339969,0,0,1.3934253454208374,0,0,0.8408399820327759
1.881334701,0,0,1.3766659498214722,0,0,0.8408399820327759
1.882348618,0,0,1.414973258972168,0,0,0.5350799560546875
1.883351331,0,0,1.4867992401123047,0,0,0.7644000053405762
1.884347545,0,0,1.5322890281677246,0,0,1.070159912109375
1.8853583139999999,0,0,1.601720929145813,0,0,0.8408399820327759
1.886347139,0,0,1.6208745241165161,0,0,0.611519992351532
1.887347982,0,0,1.702277421951294,0,0,0.9937199950218201
1.888343084,0,0,1.5682021379470825,0,0,0.611519992351532
1.88934115,0,0,1.4844050407409668,0,0,0.9172800183296204
1.890345585,0,0,1.460463047027588,0,0,0.9172800183296204
1.891344965,0,0,1.482010841369629,0,0,0.611519992351532
1.892372975,0,0,1.41257905960083,0,0,0.8408399820327759
1.893377281,0,0,1.4508862495422363,0,0,0.8408399820327759
1.894443457,0,0,1.4772224426269531,0,0,0.6879600286483765
1.895349505,0,0,1.558625340461731,0,0,0.6879600286483765
1.896400384,0,0,1.6376339197158813,0,0,0.8408399820327759
1.897374524,0,0,1.6424223184585571,0,0,0.611519992351532
1.898378182,0,0,1.556231141090393,0,0,1.1466000080108643
1.899380895,0,0,1.6376339197158813,0,0,0.8408399820327759
1.900402201,0,0,1.455674648284912,0,0,0.9172800183296204
1.901399637,0,0,1.4437036514282227,0,0,0.8408399820327759
1.902384777,0,0,1.41257905960083,0,0,0.9937199950218201
1.903371601,0,0,1.3958195447921753,0,0,1.070159912109375
1.90433326,0,0,1.3718775510787964,0,0,0.9937199950218201
1.905331492,0,0,1.460463047027588,0,0,0.5350799560546875
1.9063967229999998,0,0,1.5466543436050415,0,0,0.6879600286483765
1.907345085,0,0,1.580173134803772,0,0,0.8408399820327759
1.908348947,0,0,1.647210717201233,0,0,0.6879600286483765
1.909332901,0,0,1.6496049165725708,0,0,0.9937199950218201
1.9104646870000002,0,0,1.5897499322891235,0,0,1.070159912109375
1.9114324379999998,0,0,1.5897499322891235,0,0,0.9172800183296204
1.9123944480000001,0,0,1.4748282432556152,0,0,0.9937199950218201
1.913376069,0,0,1.460463047027588,0,0,0.9172800183296204
1.914357394,0,0,1.3694833517074585,0,0,0.9172800183296204
1.915325701,0,0,1.3239935636520386,0,0,0.6879600286483765
1.916333636,0,0,1.4077905416488647,0,0,0.9172800183296204
1.9173658310000001,0,0,1.4915876388549805,0,0,0.9172800183296204
1.918383452,0,0,1.601720929145813,0,0,0.6879600286483765
1.9193780729999999,0,0,1.556231141090393,0,0,0.7644000053405762
1.920359231,0,0,1.6424223184585571,0,0,0.3822000026702881
1.92134063,0,0,1.6208745241165161,0,0,0.8408399820327759
1.922370047,0,0,1.577778935432434,0,0,0.7644000053405762
1.923362242,0,0,1.4915876388549805,0,0,0.7644000053405762
1.9244299169999999,0,0,1.460463047027588,0,0,0.4586400091648102
1.92537965,0,0,1.4508862495422363,0,0,0.6879600286483765
1.926361641,0,0,1.3407529592514038,0,0,0.8408399820327759
1.927390151,0,0,1.4700398445129395,0,0,0.6879600286483765
1.928350383,0,0,1.5538369417190552,0,0,0.8408399820327759
1.9293665039999999,0,0,1.5729905366897583,0,0,0.611519992351532
1.930396643,0,0,1.6352397203445435,0,0,0.611519992351532
1.93138306,0,0,1.6711528301239014,0,0,0.8408399820327759
1.932387292,0,0,1.6280571222305298,0,0,0.8408399820327759
1.933390561,0,0,1.5705963373184204,0,0,0.9172800183296204
1.934384571,0,0,1.460463047027588,0,0,0.9172800183296204
1.935347378,0,0,1.4269442558288574,0,0,0.6879600286483765
1.936330388,0,0,1.479616641998291,0,0,0.4586400091648102
1.937434878,0,0,1.534683346748352,0,0,0.6879600286483765
1.938335463,0,0,1.4460978507995605,0,0,0.8408399820327759
1.9393506390000002,0,0,1.525106430053711,0,0,0.9937199950218201
1.9402385020000001,0,0,1.4508862495422363,0,0,0.9172800183296204
1.941383658,0,0,1.53707754611969,0,0,0.7644000053405762
1.942250947,0,0,1.6160861253738403,0,0,0.9172800183296204
1.943234902,0,0,1.577778935432434,0,0,0.5350799560546875
1.9442287999999999,0,0,1.556231141090393,0,0,0.6879600286483765
1.945228217,0,0,1.5729905366897583,0,0,0.8408399820327759
1.946229005,0,0,1.4508862495422363,0,0,1.070159912109375
1.9472305699999999,0,0,1.4939818382263184,0,0,0.8408399820327759
1.948228339,0,0,1.4245500564575195,0,0,0.7644000053405762
1.949228997,0,0,1.4245500564575195,0,0,0.9937199950218201
1.950230211,0,0,1.5825673341751099,0,0,0.6879600286483765
1.9512294799999998,0,0,1.50355863571167,0,0,0.611519992351532
1.952230508,0,0,1.5275006294250488,0,0,0.5350799560546875
1.953226703,0,0,1.6711528301239014,0,0,0.9937199950218201
1.954228528,0,0,1.659181833267212,0,0,0.6879600286483765
1.955230464,0,0,1.580173134803772,0,0,1.1466000080108643
1.956229455,0,0,1.6615760326385498,0,0,0.9172800183296204
1.957229168,0,0,1.50355863571167,0,0,1.070159912109375
1.958233122,0,0,1.4628572463989258,0,0,0.7644000053405762
1.9592302990000001,0,0,1.4963760375976563,0,0,0.9937199950218201
1.960228512,0,0,1.3886369466781616,0,0,0.8408399820327759
1.961227059,0,0,1.3431471586227417,0,0,0.9172800183296204
1.9622339389999999,0,0,1.37906014919281,0,0,0.6879600286483765
1.963237597,0,0,1.4915876388549805,0,0,0.7644000053405762
1.964237755,0,0,1.5873557329177856,0,0,0.611519992351532
1.965252802,0,0,1.647210717201233,0,0,0.6879600286483765
1.966587587,0,0,1.6328455209732056,0,0,0.9172800183296204
1.967317784,0,0,1.580173134803772,0,0,0.7644000053405762
1.9682788119999999,0,0,1.5083470344543457,0,0,0.9172800183296204
1.969253508,0,0,1.4437036514282227,0,0,0.5350799560546875
1.970240332,0,0,1.4293384552001953,0,0,0.8408399820327759
1.971229213,0,0,1.4053963422775269,0,0,0.6879600286483765
1.9722240370000002,0,0,1.3838485479354858,0,0,0.9937199950218201
1.973223343,0,0,1.4101848602294922,0,0,0.7644000053405762
1.9742245569999999,0,0,1.5538369417190552,0,0,0.6879600286483765
1.975225215,0,0,1.5969325304031372,0,0,0.5350799560546875
1.976223725,0,0,1.647210717201233,0,0,0.9937199950218201
1.977222864,0,0,1.5634137392044067,0,0,0.7644000053405762
1.9782391700000002,0,0,1.558625340461731,0,0,0.9172800183296204
1.9792252540000002,0,0,1.601720929145813,0,0,0.7644000053405762
1.9802233930000002,0,0,1.4484920501708984,0,0,0.7644000053405762
1.981223736,0,0,1.4652514457702637,0,0,0.9937199950218201
1.982226117,0,0,1.50355863571167,0,0,0.9172800183296204
1.983225312,0,0,1.434126853942871,0,0,0.9172800183296204
1.984223395,0,0,1.4532804489135742,0,0,0.6879600286483765
1.9852234050000002,0,0,1.5466543436050415,0,0,0.9937199950218201
1.9862292849999998,0,0,1.5131354331970215,0,0,0.7644000053405762
1.9872237579999998,0,0,1.5490485429763794,0,0,0.8408399820327759
1.9882232119999999,0,0,1.7357962131500244,0,0,0.7644000053405762
1.989223296,0,0,1.7166426181793213,0,0,0.9172800183296204
1.9902238429999999,0,0,1.5945383310317993,0,0,0.9172800183296204
1.991226019,0,0,1.4652514457702637,0,0,0.7644000053405762
1.992223492,0,0,1.403002142906189,0,0,0.9172800183296204
1.99322328,0,0,1.482010841369629,0,0,0.8408399820327759
1.994224253,0,0,1.4317326545715332,0,0,1.070159912109375
1.995223373,0,0,1.4437036514282227,0,0,0.611519992351532
1.996223643,0,0,1.4772224426269531,0,0,0.9172800183296204
1.997223393,0,0,1.534683346748352,0,0,0.7644000053405762
1.9982232359999998,0,0,1.556231141090393,0,0,0.9172800183296204
1.9992234309999999,0,0,1.5466543436050415,0,0,0.9937199950218201
2.000223256,0,0,1.5059528350830078,0,0,0.8408399820327759
2.001223451,0,0,1.556231141090393,0,0,0.7644000053405762
2.002224294,0,0,1.5945383310317993,0,0,1.1466000080108643
2.003224544,0,0,1.455674648284912,0,0,0.9172800183296204
2.004223462,0,0,1.4700398445129395,0,0,1.070159912109375
2.005223434,0,0,1.4389152526855469,0,0,0.9172800183296204
2.006224314,0,0,1.434126853942871,0,0,0.9172800183296204
2.007223972,0,0,1.414973258972168,0,0,0.7644000053405762
2.008223278,0,0,1.4508862495422363,0,0,0.611519992351532
2.00922327,0,0,1.5897499322891235,0,0,0.9937199950218201
2.01022415,0,0,1.644816517829895,0,0,0.7644000053405762
2.011223512,0,0,1.6735470294952393,0,0,0.7644000053405762
2.012223447,0,0,1.6711528301239014,0,0,0.8408399820327759
2.01322305,0,0,1.6376339197158813,0,0,0.8408399820327759
2.014224096,0,0,1.5418659448623657,0,0,0.7644000053405762
2.015222884,0,0,1.4628572463989258,0,0,0.8408399820327759
2.01622319,0,0,1.4293384552001953,0,0,0.8408399820327759
2.017223033,0,0,1.3024457693099976,0,0,0.9172800183296204
2.018223524,0,0,1.335964560508728,0,0,0.7644000053405762
2.019223868,0,0,1.434126853942871,0,0,0.9937199950218201
2.020222674,0,0,1.556231141090393,0,0,0.9172800183296204
2.021223313,0,0,1.6304513216018677,0,0,0.8408399820327759
2.022228397,0,0,1.7046716213226318,0,0,0.5350799560546875
2.023242092,0,0,1.5897499322891235,0,0,0.9937199950218201
2.024228102,0,0,1.6855180263519287,0,0,0.9937199950218201
2.025226223,0,0,1.5610195398330688,0,0,0.7644000053405762
2.026226936,0,0,1.4652514457702637,0,0,0.7644000053405762
2.027225538,0,0,1.5418659448623657,0,0,0.9937199950218201
2.028225567,0,0,1.3886369466781616,0,0,0.611519992351532
2.029225558,0,0,1.3623007535934448,0,0,0.6879600286483765
2.030226327,0,0,1.381454348564148,0,0,0.9172800183296204
2.031224689,0,0,1.434126853942871,0,0,0.5350799560546875
2.03222555,0,0,1.460463047027588,0,0,0.7644000053405762
2.033225542,0,0,1.6424223184585571,0,0,0.9937199950218201
2.034226348,0,0,1.7070658206939697,0,0,0.6879600286483765
2.035224987,0,0,1.599326729774475,0,0,0.5350799560546875
2.036225664,0,0,1.4772224426269531,0,0,0.7644000053405762
2.037225673,0,0,1.4532804489135742,0,0,0.9172800183296204
2.038226183,0,0,1.4724340438842773,0,0,0.9172800183296204
2.039225082,0,0,1.4939818382263184,0,0,0.8408399820327759
2.040225592,0,0,1.414973258972168,0,0,0.7644000053405762
2.041225305,0,0,1.4867992401123047,0,0,0.6879600286483765
2.042240259,0,0,1.5083470344543457,0,0,0.611519992351532
2.043225788,0,0,1.5394717454910278,0,0,0.6879600286483765
2.044225446,0,0,1.659181833267212,0,0,0.8408399820327759
2.045225826,0,0,1.6160861253738403,0,0,0.611519992351532
2.046226132,0,0,1.5849615335464478,0,0,0.8408399820327759
2.047225123,0,0,1.5538369417190552,0,0,1.070159912109375
2.04822554,0,0,1.4772224426269531,0,0,0.9937199950218201
2.049342549,0,0,1.436521053314209,0,0,1.070159912109375
2.050228967,0,0,1.4676456451416016,0,0,0.8408399820327759
2.051225403,0,0,1.3623007535934448,0,0,0.9172800183296204
2.052225635,0,0,1.3718775510787964,0,0,0.7644000053405762
2.053225589,0,0,1.5107412338256836,0,0,0.9937199950218201
2.054226321,0,0,1.4939818382263184,0,0,0.6879600286483765
2.055224961,0,0,1.5969325304031372,0,0,0.6879600286483765
2.056225637,0,0,1.6663644313812256,0,0,0.9937199950218201
2.057225536,0,0,1.6208745241165161,0,0,0.9172800183296204
2.0582264710000002,0,0,1.6160861253738403,0,0,0.9937199950218201
2.059224722,0,0,1.5849615335464478,0,0,1.223039984703064
2.060225158,0,0,1.4652514457702637,0,0,0.9937199950218201
2.0612256860000002,0,0,1.5442601442337036,0,0,0.8408399820327759
2.062226344,0,0,1.5059528350830078,0,0,0.7644000053405762
2.063224687,0,0,1.460463047027588,0,0,0.6879600286483765
2.064225049,0,0,1.522712230682373,0,0,0.8408399820327759
2.065225484,0,0,1.4772224426269531,0,0,0.8408399820327759
2.066226346,0,0,1.5298948287963867,0,0,0.6879600286483765
