Time,AccelX1,AccelY1,AccelZ1,AccelX2,AccelY2,AccelZ2
0.000199943,0,0,1.2952631711959839,0,0,0.2293200045824051
0.000544589,0,0,1.2952631711959839,0,0,0.152879998087883
0.00075531,0,0,1.2952631711959839,0,0,0.4586400091648102
0.001087011,0,0,1.2952631711959839,0,0,0.3822000026702881
0.001420898,0,0,1.2952631711959839,0,0,0.6879600286483765
0.001754933,0,0,1.2952631711959839,0,0,0.9172800183296204
0.002086523,0,0,1.2952631711959839,0,0,1.1466000080108643
0.002423502,0,0,1.3934253454208374,0,0,0.9937199950218201
0.002775166,0,0,1.3934253454208374,0,0,0.9172800183296204
0.003102516,0,0,1.3934253454208374,0,0,0.5350799560546875
0.00342231,0,0,1.3934253454208374,0,0,0.305759996175766
0.003753012,0,0,1.3934253454208374,0,0,0.5350799560546875
0.004086232,0,0,1.3934253454208374,0,0,0.5350799560546875
0.004427396,0,0,1.3934253454208374,0,0,1.2994799613952637
0.004768634,0,0,1.3431471586227417,0,0,0.0764399990439415
0.005091299,0,0,1.3431471586227417,0,0,0
0.005419982,0,0,1.3431471586227417,0,0,1.6816799640655518
0.005756424,0,0,1.3431471586227417,0,0,0.5350799560546875
0.006086533,0,0,1.3431471586227417,0,0,0.3822000026702881
0.00641929,0,0,1.3431471586227417,0,0,-0.2293200045824051
0.006756639,0,0,1.3431471586227417,0,0,0.4586400091648102
0.007086581,0,0,1.3120225667953491,0,0,0
0.007419487,0,0,1.3120225667953491,0,0,0.8408399820327759
0.007753392,0,0,1.3120225667953491,0,0,0.8408399820327759
0.008086093,0,0,1.3120225667953491,0,0,0.7644000053405762
0.008419535,0,0,1.3120225667953491,0,0,0.9172800183296204
0.008753255,0,0,1.3120225667953491,0,0,0.4586400091648102
0.009086438,0,0,1.3120225667953491,0,0,0.9937199950218201
0.00941988,0,0,1.2282254695892334,0,0,0.7644000053405762
0.009754323,0,0,1.2282254695892334,0,0,0.8408399820327759
0.010086931,0,0,1.2282254695892334,0,0,0.8408399820327759
0.010424892,0,0,1.2282254695892334,0,0,0.8408399820327759
0.010753631,0,0,1.2282254695892334,0,0,0.4586400091648102
0.01109985,0,0,1.2282254695892334,0,0,0.7644000053405762
0.011420385,0,0,1.2282254695892334,0,0,0.9172800183296204
0.011752902,0,0,1.213860273361206,0,0,0.611519992351532
0.012086159,0,0,1.213860273361206,0,0,0.611519992351532
0.012419582,0,0,1.213860273361206,0,0,0.4586400091648102
0.012752839,0,0,1.213860273361206,0,0,0.6879600286483765
0.013086763,0,0,1.213860273361206,0,0,0.9172800183296204
0.013419427,0,0,1.213860273361206,0,0,1.1466000080108643
0.013752814,0,0,1.213860273361206,0,0,0.9937199950218201
0.014086645,0,0,1.2018892765045166,0,0,1.1466000080108643
0.014419457,0,0,1.2018892765045166,0,0,0.7644000053405762
0.014753344,0,0,1.2018892765045166,0,0,0.4586400091648102
0.015086953,0,0,1.2018892765045166,0,0,0.6879600286483765
0.015419673,0,0,1.2018892765045166,0,0,0.611519992351532
0.015752856,0,0,1.2018892765045166,0,0,1.452359914779663
0.016087057,0,0,1.2018892765045166,0,0,1.2994799613952637
0.016419518,0,0,1.2234370708465576,0,0,1.5288000106811523
0.01675296,0,0,1.2234370708465576,0,0,1.223039984703064
0.017086717,0,0,1.2234370708465576,0,0,0.4586400091648102
0.017419678,0,0,1.2234370708465576,0,0,0.5350799560546875
0.01775299,0,0,1.2234370708465576,0,0,-0.152879998087883
0.018086932,0,0,1.2234370708465576,0,0,-0.2293200045824051
0.018419634,0,0,1.2234370708465576,0,0,1.452359914779663
0.018754928,0,0,1.335964560508728,0,0,0
0.0190865,0,0,1.335964560508728,0,0,0.9937199950218201
0.019419812,0,0,1.335964560508728,0,0,1.758120059967041
0.019752921,0,0,1.335964560508728,0,0,0.611519992351532
0.020086271,0,0,1.335964560508728,0,0,0.6879600286483765
0.020420268,0,0,1.335964560508728,0,0,0.7644000053405762
0.020755451,0,0,1.335964560508728,0,0,0.7644000053405762
0.021086394,0,0,1.4460978507995605,0,0,0.611519992351532
0.021420428,0,0,1.4460978507995605,0,0,0.7644000053405762
0.021760778,0,0,1.4460978507995605,0,0,0.9172800183296204
0.022087109,0,0,1.4460978507995605,0,0,0.6879600286483765
0.022420199,0,0,1.4460978507995605,0,0,0.9937199950218201
0.022753345,0,0,1.4460978507995605,0,0,0.7644000053405762
0.023086324,0,0,1.4460978507995605,0,0,0.8408399820327759
0.0234201,0,0,1.338358759880066,0,0,0.8408399820327759
0.023752783,0,0,1.338358759880066,0,0,0.9172800183296204
0.024086151,0,0,1.338358759880066,0,0,0.9172800183296204
0.024419889,0,0,1.338358759880066,0,0,1.070159912109375
0.024752739,0,0,1.338358759880066,0,0,0.8408399820327759
0.025086181,0,0,1.338358759880066,0,0,0.611519992351532
0.025419808,0,0,1.338358759880066,0,0,0.6879600286483765
0.025752825,0,0,1.37906014919281,0,0,0.4586400091648102
0.026086137,0,0,1.37906014919281,0,0,0.3822000026702881
0.026419431,0,0,1.37906014919281,0,0,0.4586400091648102
0.026752799,0,0,1.37906014919281,0,0,1.223039984703064
0.027086167,0,0,1.37906014919281,0,0,0.9172800183296204
0.02741948,0,0,1.37906014919281,0,0,1.2994799613952637
0.027753422,0,0,1.37906014919281,0,0,1.5288000106811523
0.02808605,0,0,1.4724340438842773,0,0,0.6879600286483765
0.028419529,0,0,1.4724340438842773,0,0,0.2293200045824051
0.028753138,0,0,1.4724340438842773,0,0,0.611519992351532
0.029086024,0,0,1.4724340438842773,0,0,0.2293200045824051
0.029419429,0,0,1.4724340438842773,0,0,0.152879998087883
0.029753446,0,0,1.4724340438842773,0,0,1.452359914779663
0.030086091,0,0,1.4724340438842773,0,0,1.758120059967041
0.030419497,0,0,1.455674648284912,0,0,1.8345600366592407
0.030753568,0,0,1.455674648284912,0,0,1.375920057296753
0.03108814,0,0,1.455674648284912,0,0,0
0.031419545,0,0,1.455674648284912,0,0,0.305759996175766
0.031753432,0,0,1.455674648284912,0,0,0.9172800183296204
0.032325928,0,0,1.455674648284912,0,0,0.8408399820327759
0.032427464,0,0,1.455674648284912,0,0,0.4586400091648102
0.032765351,0,0,1.3982137441635132,0,0,0.611519992351532
0.033090552,0,0,1.3982137441635132,0,0,0.7644000053405762
0.033423143,0,0,1.3982137441635132,0,0,0.8408399820327759
0.033763974,0,0,1.3982137441635132,0,0,0.8408399820327759
0.034090935,0,0,1.3982137441635132,0,0,1.070159912109375
0.03442208,0,0,1.3982137441635132,0,0,0.7644000053405762
0.034760504,0,0,1.3982137441635132,0,0,0.8408399820327759
0.035088854,0,0,1.2713210582733154,0,0,0.611519992351532
0.035424962,0,0,1.2713210582733154,0,0,0.5350799560546875
0.035763256,0,0,1.2713210582733154,0,0,0.7644000053405762
0.036088995,0,0,1.2713210582733154,0,0,0.9172800183296204
0.036422215,0,0,1.2713210582733154,0,0,0.8408399820327759
0.036763342,0,0,1.2713210582733154,0,0,0.6879600286483765
0.037089136,0,0,1.2713210582733154,0,0,1.070159912109375
0.037422116,0,0,1.2713210582733154,0,0,0.8408399820327759
0.037760947,0,0,1.2186486721038818,0,0,0.7644000053405762
0.038101555,0,0,1.2186486721038818,0,0,0.6879600286483765
0.038470831,0,0,1.2186486721038818,0,0,0.611519992351532
0.038786717,0,0,1.2186486721038818,0,0,1.1466000080108643
0.039101141,0,0,1.2186486721038818,0,0,0.611519992351532
0.039452731,0,0,1.2186486721038818,0,0,0.7644000053405762
0.039786192,0,0,1.2186486721038818,0,0,0.611519992351532
0.040144838,0,0,1.278503656387329,0,0,1.2994799613952637
0.040452391,0,0,1.278503656387329,0,0,0.9172800183296204
0.040792685,0,0,1.278503656387329,0,0,0.4586400091648102
0.041141201,0,0,1.278503656387329,0,0,1.2994799613952637
0.041457644,0,0,1.278503656387329,0,0,0.0764399990439415
0.04178929,0,0,1.278503656387329,0,0,1.2994799613952637
0.042121009,0,0,1.278503656387329,0,0,0.7644000053405762
0.042463378,0,0,1.1492167711257935,0,0,0.9937199950218201
0.042790172,0,0,1.1492167711257935,0,0,0.9937199950218201
0.043138891,0,0,1.1492167711257935,0,0,1.2994799613952637
0.043453445,0,0,1.1492167711257935,0,0,0.305759996175766
0.043790294,0,0,1.1492167711257935,0,0,0.8408399820327759
0.044121848,0,0,1.1492167711257935,0,0,0.7644000053405762
0.044452216,0,0,1.1492167711257935,0,0,0.8408399820327759
0.044789639,0,0,1.3551181554794312,0,0,0.7644000053405762
0.045120915,0,0,1.3551181554794312,0,0,0.9937199950218201
0.045452487,0,0,1.3551181554794312,0,0,0.9937199950218201
0.045788633,0,0,1.3551181554794312,0,0,0.611519992351532
0.046142278,0,0,1.3551181554794312,0,0,0.8408399820327759
0.046453387,0,0,1.3551181554794312,0,0,0.4586400091648102
0.046788255,0,0,1.3551181554794312,0,0,0.3822000026702881
0.047119587,0,0,1.5729905366897583,0,0,0.7644000053405762
0.047452529,0,0,1.5729905366897583,0,0,0.6879600286483765
0.047791063,0,0,1.5729905366897583,0,0,1.223039984703064
0.048121654,0,0,1.5729905366897583,0,0,0.7644000053405762
0.048454207,0,0,1.5729905366897583,0,0,0.9172800183296204
0.048798334,0,0,1.5729905366897583,0,0,1.223039984703064
0.049155147,0,0,1.5729905366897583,0,0,0.2293200045824051
0.049463571,0,0,1.5179238319396973,0,0,0.3822000026702881
0.049790605,0,0,1.5179238319396973,0,0,1.1466000080108643
0.050143659,0,0,1.5179238319396973,0,0,0.9172800183296204
0.050458656,0,0,1.5179238319396973,0,0,0.305759996175766
0.050804654,0,0,1.5179238319396973,0,0,0.0764399990439415
0.051145504,0,0,1.5179238319396973,0,0,0.4586400091648102
0.051452872,0,0,1.5179238319396973,0,0,1.375920057296753
0.051800629,0,0,1.4101848602294922,0,0,0.2293200045824051
0.052132738,0,0,1.4101848602294922,0,0,-0.6879600286483765
0.052455643,0,0,1.4101848602294922,0,0,0.3822000026702881
0.052794215,0,0,1.4101848602294922,0,0,0.4586400091648102
0.053139268,0,0,1.4101848602294922,0,0,0.9172800183296204
0.05346358,0,0,1.4101848602294922,0,0,0.611519992351532
0.05483496,0,0,1.4101848602294922,0,0,0.611519992351532
0.054877182,0,0,1.4700398445129395,0,0,0.611519992351532
0.054917533,0,0,1.4700398445129395,0,0,0.611519992351532
0.054958292,0,0,1.4700398445129395,0,0,1.6816799640655518
0.055136199,0,0,1.4700398445129395,0,0,0.5350799560546875
0.055473752,0,0,1.4700398445129395,0,0,0.9172800183296204
0.05611484,0,0,1.4700398445129395,0,0,0.305759996175766
0.056156895,0,0,1.4700398445129395,0,0,1.070159912109375
0.056477115,0,0,1.3096283674240112,0,0,0.9937199950218201
0.056813113,0,0,1.3096283674240112,0,0,0.9172800183296204
0.057118667,0,0,1.3096283674240112,0,0,0.7644000053405762
0.057465238,0,0,1.3096283674240112,0,0,0.8408399820327759
0.057816588,0,0,1.3096283674240112,0,0,0.6879600286483765
0.058130234,0,0,1.3096283674240112,0,0,0.7644000053405762
0.058477639,0,0,1.3096283674240112,0,0,0.9937199950218201
0.058823359,0,0,1.2473790645599365,0,0,1.1466000080108643
0.059118301,0,0,1.2473790645599365,0,0,1.070159912109375
0.059458854,0,0,1.2473790645599365,0,0,0.5350799560546875
0.059793241,0,0,1.2473790645599365,0,0,0.9172800183296204
0.060117794,0,0,1.2473790645599365,0,0,0.7644000053405762
0.06047644,0,0,1.2473790645599365,0,0,0.6879600286483765
0.062049151,0,0,1.2473790645599365,0,0,0.6879600286483765
0.062091503,0,0,1.2282254695892334,0,0,0.6879600286483765
0.062149706,0,0,1.2282254695892334,0,0,0.6879600286483765
0.062193632,0,0,1.2282254695892334,0,0,0.6879600286483765
0.062247076,0,0,1.2282254695892334,0,0,0
0.062475593,0,0,1.2282254695892334,0,0,0.3822000026702881
0.062807294,0,0,1.2282254695892334,0,0,0.611519992351532
0.063145181,0,0,1.2282254695892334,0,0,1.223039984703064
0.063495531,0,0,1.2258312702178955,0,0,-0.305759996175766
0.063785936,0,0,1.2258312702178955,0,0,0.5350799560546875
0.064127711,0,0,1.2258312702178955,0,0,0.3822000026702881
0.064472172,0,0,1.2258312702178955,0,0,2.446079969406128
0.064807466,0,0,1.2258312702178955,0,0,1.223039984703064
0.065145501,0,0,1.2258312702178955,0,0,0.4586400091648102
0.065650016,0,0,1.2258312702178955,0,0,0.4586400091648102
0.065802459,0,0,1.2258312702178955,0,0,0.7644000053405762
0.066142957,0,0,1.2449848651885986,0,0,1.2994799613952637
0.06645101,0,0,1.2449848651885986,0,0,0.7644000053405762
0.066790119,0,0,1.2449848651885986,0,0,1.1466000080108643
0.067127747,0,0,1.2449848651885986,0,0,0.611519992351532
0.068025611,0,0,1.2449848651885986,0,0,0.611519992351532
0.068067351,0,0,1.2449848651885986,0,0,0
0.068108184,0,0,1.2449848651885986,0,0,0.611519992351532
0.068886938,0,0,1.2737152576446533,0,0,0.611519992351532
0.068928216,0,0,1.2737152576446533,0,0,1.070159912109375
0.069141362,0,0,1.2737152576446533,0,0,0.9172800183296204
0.069775969,0,0,1.2737152576446533,0,0,0.9172800183296204
0.069817043,0,0,1.2737152576446533,0,0,0.7644000053405762
0.070561205,0,0,1.2737152576446533,0,0,0.7644000053405762
0.070607964,0,0,1.2737152576446533,0,0,0.7644000053405762
0.070793796,0,0,1.436521053314209,0,0,0.4586400091648102
0.071132201,0,0,1.436521053314209,0,0,0.7644000053405762
0.071455347,0,0,1.436521053314209,0,0,0.6879600286483765
0.071784474,0,0,1.436521053314209,0,0,0.6879600286483765
0.072116138,0,0,1.436521053314209,0,0,0.9172800183296204
0.072459062,0,0,1.436521053314209,0,0,0.9937199950218201
0.072782134,0,0,1.436521053314209,0,0,1.2994799613952637
0.073115039,0,0,1.5298948287963867,0,0,0.6879600286483765
0.073449444,0,0,1.5298948287963867,0,0,0.7644000053405762
0.073859201,0,0,1.5298948287963867,0,0,0.611519992351532
0.074512622,0,0,1.5298948287963867,0,0,0.611519992351532
0.074592103,0,0,1.5298948287963867,0,0,0.9937199950218201
0.074788676,0,0,1.5298948287963867,0,0,0.4586400091648102
0.075130636,0,0,1.5298948287963867,0,0,0.7644000053405762
0.075466412,0,0,1.3982137441635132,0,0,1.2994799613952637
0.075791928,0,0,1.3982137441635132,0,0,1.070159912109375
0.076128759,0,0,1.3982137441635132,0,0,1.070159912109375
0.076471794,0,0,1.3982137441635132,0,0,2.2167599201202393
0.076784218,0,0,1.3982137441635132,0,0,1.758120059967041
0.077126197,0,0,1.3982137441635132,0,0,0.2293200045824051
0.077480417,0,0,1.3982137441635132,0,0,-0.9937199950218201
0.077788841,0,0,1.3407529592514038,0,0,-0.305759996175766
0.078123727,0,0,1.3407529592514038,0,0,1.223039984703064
0.078464243,0,0,1.3407529592514038,0,0,0.9937199950218201
0.078789649,0,0,1.3407529592514038,0,0,0.9937199950218201
0.079127776,0,0,1.3407529592514038,0,0,0.611519992351532
0.079467755,0,0,1.3407529592514038,0,0,0.8408399820327759
0.079788808,0,0,1.3407529592514038,0,0,0.4586400091648102
0.080133213,0,0,1.436521053314209,0,0,0.9172800183296204
0.080471082,0,0,1.436521053314209,0,0,0.9172800183296204
0.08078282,0,0,1.436521053314209,0,0,0.9172800183296204
0.08112417,0,0,1.436521053314209,0,0,0.8408399820327759
0.081453649,0,0,1.436521053314209,0,0,0.5350799560546875
0.081786721,0,0,1.436521053314209,0,0,0.7644000053405762
0.082130996,0,0,1.436521053314209,0,0,0.8408399820327759
0.082475401,0,0,1.314416766166687,0,0,1.070159912109375
0.082794899,0,0,1.314416766166687,0,0,0.8408399820327759
0.083152656,0,0,1.314416766166687,0,0,0.6879600286483765
0.08344982,0,0,1.314416766166687,0,0,0.6879600286483765
0.083782559,0,0,1.314416766166687,0,0,0.5350799560546875
0.08414689,0,0,1.314416766166687,0,0,0.305759996175766
0.084449536,0,0,1.314416766166687,0,0,0.611519992351532
0.08482307,0,0,1.3407529592514038,0,0,0.9937199950218201
0.085116105,0,0,1.3407529592514038,0,0,0.9172800183296204
0.085449548,0,0,1.3407529592514038,0,0,0.5350799560546875
0.085853286,0,0,1.3407529592514038,0,0,0.0764399990439415
0.08611821,0,0,1.3407529592514038,0,0,0.7644000053405762
0.086487744,0,0,1.3407529592514038,0,0,0.5350799560546875
0.086784835,0,0,1.3407529592514038,0,0,0.3822000026702881
0.087115462,0,0,1.2976573705673218,0,0,1.223039984703064
0.087473349,0,0,1.2976573705673218,0,0,0
0.087782272,0,0,1.2976573705673218,0,0,0.3822000026702881
0.088150881,0,0,1.2976573705673218,0,0,1.070159912109375
0.08844936,0,0,1.2976573705673218,0,0,0.4586400091648102
0.088782006,0,0,1.2976573705673218,0,0,1.1466000080108643
0.089139411,0,0,1.2976573705673218,0,0,0
0.089449909,0,0,1.2880805730819702,0,0,0.6879600286483765
0.089816721,0,0,1.2880805730819702,0,0,0
0.090115923,0,0,1.2880805730819702,0,0,1.9874399900436401
0.090449699,0,0,1.2880805730819702,0,0,0.5350799560546875
0.090807307,0,0,1.3192051649093628,0,0,0.8408399820327759
0.091115639,0,0,1.3192051649093628,0,0,0.9937199950218201
0.091488784,0,0,1.3192051649093628,0,0,0.7644000053405762
0.091782745,0,0,1.3192051649093628,0,0,0.611519992351532
0.092115298,0,0,1.2186486721038818,0,0,0.5350799560546875
0.092471981,0,0,1.2186486721038818,0,0,0.8408399820327759
0.092782498,0,0,1.2186486721038818,0,0,0.7644000053405762
0.093155273,0,0,1.2186486721038818,0,0,0.9172800183296204
0.093449437,0,0,1.3742717504501343,0,0,1.070159912109375
0.093782472,0,0,1.3742717504501343,0,0,1.1466000080108643
0.094138748,0,0,1.3742717504501343,0,0,0.9172800183296204
0.09444919,0,0,1.3742717504501343,0,0,0.7644000053405762
0.094823187,0,0,1.5155296325683594,0,0,0.7644000053405762
0.095116796,0,0,1.5155296325683594,0,0,0.7644000053405762
0.095449368,0,0,1.5155296325683594,0,0,0.8408399820327759
0.095806588,0,0,1.5155296325683594,0,0,0.9172800183296204
0.096115771,0,0,1.3982137441635132,0,0,0.8408399820327759
0.096483417,0,0,1.3982137441635132,0,0,0.9172800183296204
0.096782785,0,0,1.3982137441635132,0,0,0.9937199950218201
0.097115653,0,0,1.3982137441635132,0,0,0.6879600286483765
0.097472317,0,0,1.3742717504501343,0,0,0.305759996175766
0.097783482,0,0,1.3742717504501343,0,0,0.611519992351532
0.098150331,0,0,1.3742717504501343,0,0,0.8408399820327759
0.098449385,0,0,1.3742717504501343,0,0,1.070159912109375
0.09878292,0,0,1.3670891523361206,0,0,0.9172800183296204
0.099139843,0,0,1.3670891523361206,0,0,0.7644000053405762
0.0994491,0,0,1.3670891523361206,0,0,0.9937199950218201
0.099817542,0,0,1.3670891523361206,0,0,0.6879600286483765
0.100116096,0,0,1.3120225667953491,0,0,0.8408399820327759
0.100449186,0,0,1.3120225667953491,0,0,0.6879600286483765
0.100805054,0,0,1.3120225667953491,0,0,0.7644000053405762
0.101116255,0,0,1.3120225667953491,0,0,-0.4586400091648102
0.101483475,0,0,1.3311761617660522,0,0,2.446079969406128
0.10178314,0,0,1.3311761617660522,0,0,1.758120059967041
0.102116008,0,0,1.3311761617660522,0,0,0.0764399990439415
0.102471024,0,0,1.3311761617660522,0,0,1.223039984703064
0.102786411,0,0,1.2473790645599365,0,0,0.9172800183296204
0.103155945,0,0,1.2473790645599365,0,0,1.5288000106811523
0.103456165,0,0,1.2473790645599365,0,0,0.5350799560546875
0.103784404,0,0,1.2473790645599365,0,0,0.7644000053405762
0.104144679,0,0,1.2665326595306396,0,0,0.611519992351532
0.104451603,0,0,1.2665326595306396,0,0,0.611519992351532
0.104823767,0,0,1.2665326595306396,0,0,0.9172800183296204
0.105122284,0,0,1.2665326595306396,0,0,0.9172800183296204
0.105451522,0,0,1.2952631711959839,0,0,0.6879600286483765
0.105815501,0,0,1.2952631711959839,0,0,0.5350799560546875
0.106118147,0,0,1.2952631711959839,0,0,0.2293200045824051
0.106492034,0,0,1.2952631711959839,0,0,0.305759996175766
0.106785883,0,0,1.2832920551300049,0,0,0.4586400091648102
0.107118122,0,0,1.2832920551300049,0,0,0.4586400091648102
0.10748849,0,0,1.2832920551300049,0,0,0.6879600286483765
0.107784932,0,0,1.2832920551300049,0,0,1.070159912109375
0.108117967,0,0,1.482010841369629,0,0,0.305759996175766
0.108458131,0,0,1.482010841369629,0,0,0.3822000026702881
0.108784999,0,0,1.482010841369629,0,0,0.8408399820327759
0.110766671,0,0,1.482010841369629,0,0,0.8408399820327759
0.110808208,0,0,1.4724340438842773,0,0,0.8408399820327759
0.110848559,0,0,1.4724340438842773,0,0,0.8408399820327759
0.110888318,0,0,1.4293384552001953,0,0,-1.758120059967041
0.110928355,0,0,1.4293384552001953,0,0,-1.758120059967041
0.110968522,0,0,1.4724340438842773,0,0,-1.758120059967041
0.11111865,0,0,1.4724340438842773,0,0,0.152879998087883
0.111449722,0,0,1.4724340438842773,0,0,0.9172800183296204
0.111781257,0,0,1.4724340438842773,0,0,0.3822000026702881
0.112114162,0,0,1.4245500564575195,0,0,1.6816799640655518
0.112448326,0,0,1.4245500564575195,0,0,0.7644000053405762
0.112781102,0,0,1.4245500564575195,0,0,0.6879600286483765
0.113117951,0,0,1.4245500564575195,0,0,1.6816799640655518
0.113452264,0,0,1.3742717504501343,0,0,0.7644000053405762
0.114683422,0,0,1.3742717504501343,0,0,0.7644000053405762
0.114725718,0,0,1.3742717504501343,0,0,0.7644000053405762
0.114765959,0,0,1.3742717504501343,0,0,-9.019920349121094
0.114806236,0,0,1.3670891523361206,0,0,-0.9937199950218201
0.115122845,0,0,1.3670891523361206,0,0,0.8408399820327759
0.115450898,0,0,1.3670891523361206,0,0,0
0.115780915,0,0,1.3670891523361206,0,0,0.4586400091648102
0.116115412,0,0,1.2952631711959839,0,0,0.9172800183296204
0.116448058,0,0,1.2952631711959839,0,0,0.5350799560546875
0.116780371,0,0,1.2952631711959839,0,0,0.6879600286483765
0.117114535,0,0,1.2952631711959839,0,0,0.4586400091648102
0.117447218,0,0,1.2832920551300049,0,0,0.9172800183296204
0.117782697,0,0,1.2832920551300049,0,0,0.611519992351532
0.118114825,0,0,1.259350061416626,0,0,0.7644000053405762
0.118447785,0,0,1.3287819623947144,0,0,0.9172800183296204
0.118786209,0,0,1.3287819623947144,0,0,0.3822000026702881
0.119115059,0,0,1.3287819623947144,0,0,0.2293200045824051
0.119448297,0,0,1.455674648284912,0,0,0.5350799560546875
0.119784184,0,0,1.455674648284912,0,0,0.611519992351532
0.120114533,0,0,1.455674648284912,0,0,0.305759996175766
0.120448327,0,0,1.455674648284912,0,0,0.8408399820327759
0.121147285,0,0,1.4245500564575195,0,0,0.8408399820327759
0.121189156,0,0,1.4245500564575195,0,0,0.152879998087883
0.121455894,0,0,1.4245500564575195,0,0,0.7644000053405762
0.121815559,0,0,1.4245500564575195,0,0,0.9937199950218201
0.122116353,0,0,1.3503297567367554,0,0,0.611519992351532
0.12261159,0,0,1.3503297567367554,0,0,0.611519992351532
0.122786682,0,0,1.3503297567367554,0,0,0.7644000053405762
0.123116531,0,0,1.4772224426269531,0,0,0.0764399990439415
0.123481029,0,0,1.4772224426269531,0,0,0
0.123783601,0,0,1.4772224426269531,0,0,0.611519992351532
0.124170857,0,0,1.4460978507995605,0,0,1.5288000106811523
0.124451744,0,0,1.4460978507995605,0,0,1.452359914779663
0.124783168,0,0,1.1516109704971313,0,0,0.6879600286483765
0.12513998,0,0,1.1516109704971313,0,0,1.2994799613952637
0.125450367,0,0,1.2018892765045166,0,0,0.611519992351532
0.125830328,0,0,1.2018892765045166,0,0,0.611519992351532
0.126116585,0,0,1.2018892765045166,0,0,-0.6879600286483765
0.126455175,0,0,1.2018892765045166,0,0,0.611519992351532
0.126812154,0,0,1.2880805730819702,0,0,0.611519992351532
0.127118967,0,0,1.2880805730819702,0,0,2.751840114593506
0.127462613,0,0,1.2617442607879639,0,0,1.223039984703064
0.12924199,0,0,1.2617442607879639,0,0,1.223039984703064
0.129283674,0,0,1.2617442607879639,0,0,1.223039984703064
0.129324082,0,0,1.2617442607879639,0,0,1.223039984703064
0.129364378,0,0,1.2832920551300049,0,0,1.223039984703064
0.129404507,0,0,1.2832920551300049,0,0,-1.070159912109375
0.129444784,0,0,1.2832920551300049,0,0,0.7644000053405762
0.129837041,0,0,1.2832920551300049,0,0,0.2293200045824051
0.130148557,0,0,1.3982137441635132,0,0,0.6879600286483765
0.130454889,0,0,1.3982137441635132,0,0,0.8408399820327759
0.130783738,0,0,1.3982137441635132,0,0,0.9937199950218201
0.131117625,0,0,1.3982137441635132,0,0,0.8408399820327759
0.131449419,0,0,1.558625340461731,0,0,0.7644000053405762
0.131782639,0,0,1.558625340461731,0,0,1.1466000080108643
0.132116803,0,0,1.558625340461731,0,0,0.6879600286483765
0.132449431,0,0,1.558625340461731,0,0,0.9937199950218201
0.132782484,0,0,1.4915876388549805,0,0,0.9937199950218201
0.133117019,0,0,1.4915876388549805,0,0,0.3822000026702881
0.133449183,0,0,1.4915876388549805,0,0,0.8408399820327759
0.133782588,0,0,1.4915876388549805,0,0,0.6879600286483765
0.134115956,0,0,1.4676456451416016,0,0,0.8408399820327759
0.13445725,0,0,1.4676456451416016,0,0,0.611519992351532
0.134785785,0,0,1.4676456451416016,0,0,0.9172800183296204
0.135144931,0,0,1.4676456451416016,0,0,0.152879998087883
0.135452095,0,0,1.4915876388549805,0,0,1.223039984703064
0.135826648,0,0,1.4915876388549805,0,0,0.9172800183296204
0.136123017,0,0,1.4915876388549805,0,0,0.7644000053405762
0.136451218,0,0,1.4915876388549805,0,0,0.8408399820327759
0.136816327,0,0,1.4053963422775269,0,0,0.9937199950218201
0.137118899,0,0,1.4053963422775269,0,0,0.7644000053405762
0.137493007,0,0,1.4053963422775269,0,0,0.6879600286483765
0.137785672,0,0,1.4053963422775269,0,0,0.7644000053405762
0.138117688,0,0,1.3551181554794312,0,0,0.611519992351532
0.138488852,0,0,1.3551181554794312,0,0,0.305759996175766
0.138784906,0,0,1.3551181554794312,0,0,1.375920057296753
0.139118367,0,0,1.3551181554794312,0,0,0.152879998087883
0.139463827,0,0,1.2234370708465576,0,0,0.4586400091648102
0.139784881,0,0,1.2234370708465576,0,0,0.611519992351532
0.140159063,0,0,1.2234370708465576,0,0,0.7644000053405762
0.140452635,0,0,1.2234370708465576,0,0,0.611519992351532
0.140784226,0,0,1.2880805730819702,0,0,0.5350799560546875
0.141141649,0,0,1.2880805730819702,0,0,0.4586400091648102
0.141451462,0,0,1.2880805730819702,0,0,0.7644000053405762
0.141823681,0,0,1.2880805730819702,0,0,0.6879600286483765
0.142120031,0,0,1.2713210582733154,0,0,0.9172800183296204
0.142450807,0,0,1.2713210582733154,0,0,0.8408399820327759
0.142829452,0,0,1.2713210582733154,0,0,0.8408399820327759
0.143118154,0,0,1.2713210582733154,0,0,0.8408399820327759
0.143451078,0,0,1.213860273361206,0,0,0.3822000026702881
0.14382976,0,0,1.213860273361206,0,0,0.6879600286483765
0.144117925,0,0,1.213860273361206,0,0,0.611519992351532
0.144491163,0,0,1.213860273361206,0,0,0.152879998087883
0.144792957,0,0,1.213860273361206,0,0,0.7644000053405762
0.145117881,0,0,1.335964560508728,0,0,0.9937199950218201
0.145488786,0,0,1.335964560508728,0,0,1.5288000106811523
0.145786432,0,0,1.335964560508728,0,0,0.7644000053405762
0.146121374,0,0,1.335964560508728,0,0,0.7644000053405762
0.146470057,0,0,1.4197616577148438,0,0,1.223039984703064
0.146789259,0,0,1.4197616577148438,0,0,0.8408399820327759
0.147173034,0,0,1.4197616577148438,0,0,0.8408399820327759
0.147459532,0,0,1.4197616577148438,0,0,0.7644000053405762
0.147789474,0,0,1.3455413579940796,0,0,1.2994799613952637
0.148165101,0,0,1.3455413579940796,0,0,0.6879600286483765
0.148455914,0,0,1.3455413579940796,0,0,0.9937199950218201
0.148790264,0,0,1.3455413579940796,0,0,0.6879600286483765
0.149146631,0,0,1.2952631711959839,0,0,1.375920057296753
0.149451944,0,0,1.2952631711959839,0,0,0.7644000053405762
0.14982496,0,0,1.2952631711959839,0,0,0.6879600286483765
0.150116329,0,0,1.2952631711959839,0,0,0.5350799560546875
0.150451474,0,0,1.381454348564148,0,0,0.8408399820327759
0.150825176,0,0,1.381454348564148,0,0,1.2994799613952637
0.151121933,0,0,1.381454348564148,0,0,0
0.151451171,0,0,1.381454348564148,0,0,0.2293200045824051
0.15181391,0,0,1.381454348564148,0,0,0.2293200045824051
0.152118463,0,0,1.2425906658172607,0,0,1.375920057296753
0.152490961,0,0,1.2425906658172607,0,0,0.6879600286483765
0.152783162,0,0,1.2425906658172607,0,0,1.070159912109375
0.153119049,0,0,1.2425906658172607,0,0,0.7644000053405762
0.153486806,0,0,1.139639973640442,0,0,0.6879600286483765
0.153784878,0,0,1.139639973640442,0,0,0.611519992351532
0.154118523,0,0,1.139639973640442,0,0,0.6879600286483765
0.154488039,0,0,1.139639973640442,0,0,0.8408399820327759
0.1547845,0,0,1.3670891523361206,0,0,0.6879600286483765
0.155159979,0,0,1.3670891523361206,0,0,0.6879600286483765
0.155451607,0,0,1.3670891523361206,0,0,0.9172800183296204
0.155784438,0,0,1.3670891523361206,0,0,0.7644000053405762
0.156132788,0,0,1.314416766166687,0,0,0.8408399820327759
0.156451804,0,0,1.314416766166687,0,0,0
0.156824005,0,0,1.314416766166687,0,0,0.3822000026702881
0.157118207,0,0,1.314416766166687,0,0,0.3822000026702881
0.157451093,0,0,1.3311761617660522,0,0,1.223039984703064
0.157808035,0,0,1.3311761617660522,0,0,0.6879600286483765
0.158117922,0,0,1.3311761617660522,0,0,0.611519992351532
0.158489568,0,0,1.3311761617660522,0,0,0.9172800183296204
0.158787177,0,0,1.3311761617660522,0,0,1.1466000080108643
0.159117471,0,0,1.3455413579940796,0,0,0.8408399820327759
0.159477505,0,0,1.3455413579940796,0,0,1.5288000106811523
0.159784577,0,0,1.3455413579940796,0,0,0.7644000053405762
0.160157167,0,0,1.3455413579940796,0,0,0.305759996175766
0.160455277,0,0,1.3982137441635132,0,0,0.8408399820327759
0.160784663,0,0,1.3982137441635132,0,0,0.611519992351532
0.161147624,0,0,1.3982137441635132,0,0,1.375920057296753
0.161451844,0,0,1.3982137441635132,0,0,1.1466000080108643
0.161826656,0,0,1.4437036514282227,0,0,0.611519992351532
0.162118599,0,0,1.4437036514282227,0,0,0.8408399820327759
0.162451041,0,0,1.4437036514282227,0,0,0.305759996175766
0.162826612,0,0,1.4437036514282227,0,0,0.4586400091648102
0.163117944,0,0,1.4077905416488647,0,0,-0.9937199950218201
0.163451108,0,0,1.4077905416488647,0,0,0.5350799560546875
0.163806346,0,0,1.4077905416488647,0,0,0.5350799560546875
0.16411827,0,0,1.4077905416488647,0,0,0.305759996175766
0.164487731,0,0,1.4413094520568848,0,0,0.7644000053405762
0.164784673,0,0,1.4413094520568848,0,0,0.9937199950218201
0.165138633,0,0,1.4413094520568848,0,0,0.9172800183296204
0.165485261,0,0,1.4413094520568848,0,0,1.070159912109375
0.165785185,0,0,1.6615760326385498,0,0,0.7644000053405762
0.166157312,0,0,1.6615760326385498,0,0,0.611519992351532
0.166449736,0,0,1.6615760326385498,0,0,0.6879600286483765
0.166785122,0,0,1.6615760326385498,0,0,1.070159912109375
0.167154009,0,0,1.6615760326385498,0,0,0.8408399820327759
0.167451451,0,0,1.53707754611969,0,0,0.9172800183296204
0.167785449,0,0,1.53707754611969,0,0,0.8408399820327759
0.16815452,0,0,1.53707754611969,0,0,0.9172800183296204
0.168450981,0,0,1.53707754611969,0,0,0.611519992351532
0.168821868,0,0,1.3239935636520386,0,0,0.5350799560546875
0.169118292,0,0,1.3239935636520386,0,0,0.7644000053405762
0.1694514,0,0,1.3239935636520386,0,0,0.6879600286483765
0.169790731,0,0,1.3239935636520386,0,0,0.9172800183296204
0.170118655,0,0,1.2737152576446533,0,0,0.6879600286483765
0.170491578,0,0,1.2737152576446533,0,0,0.8408399820327759
0.170784965,0,0,1.2737152576446533,0,0,0.7644000053405762
0.171206629,0,0,1.2737152576446533,0,0,0.6879600286483765
0.171476479,0,0,1.0989385843276978,0,0,0.5350799560546875
0.171785255,0,0,1.0989385843276978,0,0,1.223039984703064
0.172157104,0,0,1.0989385843276978,0,0,1.223039984703064
0.172453121,0,0,1.0989385843276978,0,0,1.5288000106811523
0.172784285,0,0,1.139639973640442,0,0,0.9172800183296204
0.173144505,0,0,1.139639973640442,0,0,1.375920057296753
0.17345104,0,0,1.139639973640442,0,0,0.611519992351532
0.173823685,0,0,1.139639973640442,0,0,0
0.17412235,0,0,1.139639973640442,0,0,0.7644000053405762
0.174451366,0,0,1.1779472827911377,0,0,9.325679779052734
0.174826419,0,0,1.1779472827911377,0,0,1.375920057296753
0.175118195,0,0,1.1779472827911377,0,0,2.06387996673584
0.175451156,0,0,1.1779472827911377,0,0,0.4586400091648102
0.175811283,0,0,1.3670891523361206,0,0,0.611519992351532
0.176118559,0,0,1.3670891523361206,0,0,0.6879600286483765
0.176488686,0,0,1.3670891523361206,0,0,0.611519992351532
0.176788054,0,0,1.3670891523361206,0,0,0.611519992351532
0.177117737,0,0,1.4508862495422363,0,0,0.7644000053405762
0.177487123,0,0,1.4508862495422363,0,0,0.8408399820327759
0.177785973,0,0,1.4508862495422363,0,0,1.1466000080108643
0.178117841,0,0,1.4508862495422363,0,0,0.9172800183296204
0.178459598,0,0,1.3407529592514038,0,0,0.5350799560546875
0.178784966,0,0,1.3407529592514038,0,0,0.9172800183296204
0.179158686,0,0,1.3407529592514038,0,0,0.7644000053405762
0.179451425,0,0,1.3407529592514038,0,0,0.9172800183296204
0.1797842,0,0,1.4891934394836426,0,0,0.611519992351532
0.180138087,0,0,1.4891934394836426,0,0,1.2994799613952637
0.180451381,0,0,1.3503297567367554,0,0,1.070159912109375
0.180820249,0,0,1.3503297567367554,0,0,0.7644000053405762
0.181118228,0,0,1.3503297567367554,0,0,1.070159912109375
0.181452022,0,0,1.3503297567367554,0,0,0.611519992351532
0.18181039,0,0,1.3263877630233765,0,0,0.7644000053405762
0.182117832,0,0,1.3263877630233765,0,0,0.611519992351532
0.182492311,0,0,1.3263877630233765,0,0,0.9172800183296204
0.182783587,0,0,1.3263877630233765,0,0,0.9172800183296204
0.183117603,0,0,1.3263877630233765,0,0,0.9172800183296204
0.183482731,0,0,1.3263877630233765,0,0,0.9172800183296204
0.183784617,0,0,1.3263877630233765,0,0,0.611519992351532
0.184174985,0,0,1.3263877630233765,0,0,0.7644000053405762
0.184464909,0,0,1.3263877630233765,0,0,1.070159912109375
0.184784555,0,0,1.2234370708465576,0,0,0.9172800183296204
0.185157201,0,0,1.2234370708465576,0,0,0.7644000053405762
0.185451402,0,0,1.2234370708465576,0,0,1.375920057296753
0.185784641,0,0,1.2234370708465576,0,0,0.6879600286483765
0.186145657,0,0,1.3551181554794312,0,0,1.8345600366592407
0.186451358,0,0,1.3551181554794312,0,0,1.375920057296753
0.186823578,0,0,1.3551181554794312,0,0,0.3822000026702881
0.187121798,0,0,1.3551181554794312,0,0,1.9109998941421509
0.187451018,0,0,1.4508862495422363,0,0,0.7644000053405762
0.187814627,0,0,1.4508862495422363,0,0,0.7644000053405762
0.188118273,0,0,1.4508862495422363,0,0,9.172800064086914
0.188490437,0,0,1.4508862495422363,0,0,0.9172800183296204
0.188790546,0,0,1.5658079385757446,0,0,1.070159912109375
0.189120099,0,0,1.5658079385757446,0,0,1.1466000080108643
0.189495152,0,0,1.5658079385757446,0,0,0.9172800183296204
0.189789743,0,0,1.5658079385757446,0,0,0.7644000053405762
0.190125389,0,0,1.5658079385757446,0,0,0.7644000053405762
0.190475535,0,0,1.6208745241165161,0,0,0.305759996175766
0.190787162,0,0,1.6208745241165161,0,0,0.6879600286483765
0.191160586,0,0,1.6208745241165161,0,0,0.8408399820327759
0.191450232,0,0,1.6208745241165161,0,0,0.611519992351532
0.191785711,0,0,1.50355863571167,0,0,0.6879600286483765
0.192157153,0,0,1.50355863571167,0,0,0.5350799560546875
0.192451447,0,0,1.50355863571167,0,0,0.7644000053405762
0.192785074,0,0,1.50355863571167,0,0,0.305759996175766
0.193131517,0,0,1.4460978507995605,0,0,0.6879600286483765
0.193455422,0,0,1.4460978507995605,0,0,0.4586400091648102
0.193829178,0,0,1.4460978507995605,0,0,0.9937199950218201
0.194120417,0,0,1.4460978507995605,0,0,0.611519992351532
0.194453637,0,0,1.4460978507995605,0,0,1.223039984703064
0.194817838,0,0,1.3982137441635132,0,0,0.0764399990439415
0.195120633,0,0,1.3982137441635132,0,0,0
0.195494241,0,0,1.3982137441635132,0,0,0.8408399820327759
0.195785702,0,0,1.3982137441635132,0,0,0.8408399820327759
0.196121163,0,0,1.1683704853057861,0,0,0.9172800183296204
0.196504438,0,0,1.1683704853057861,0,0,0.3822000026702881
0.196788195,0,0,1.1683704853057861,0,0,0.9937199950218201
0.1971846,0,0,1.1683704853057861,0,0,0.6879600286483765
0.197486116,0,0,1.2401964664459229,0,0,0.9172800183296204
0.197786651,0,0,1.2401964664459229,0,0,1.2994799613952637
0.19816289,0,0,1.2401964664459229,0,0,0.5350799560546875
0.198454147,0,0,1.2401964664459229,0,0,1.1466000080108643
0.198787404,0,0,1.1899182796478271,0,0,0.6879600286483765
0.199168494,0,0,1.1899182796478271,0,0,0.7644000053405762
0.199453751,0,0,1.1899182796478271,0,0,-0.305759996175766
0.199786508,0,0,1.1899182796478271,0,0,0.7644000053405762
0.200141469,0,0,1.1540051698684692,0,0,0.7644000053405762
0.200453911,0,0,1.1540051698684692,0,0,1.6816799640655518
0.200827186,0,0,1.1540051698684692,0,0,1.1466000080108643
0.201116703,0,0,1.1540051698684692,0,0,0.8408399820327759
0.201452682,0,0,1.1540051698684692,0,0,0.9937199950218201
0.201824272,0,0,1.237802267074585,0,0,0.4586400091648102
0.20212027,0,0,1.237802267074585,0,0,0.6879600286483765
0.202453934,0,0,1.237802267074585,0,0,0.9172800183296204
0.202794747,0,0,1.237802267074585,0,0,0.6879600286483765
0.203120726,0,0,1.2114660739898682,0,0,0.8408399820327759
0.203495724,0,0,1.2114660739898682,0,0,0.6879600286483765
0.203786425,0,0,1.525106430053711,0,0,0.8408399820327759
0.204119127,0,0,1.525106430053711,0,0,0.5350799560546875
0.204483458,0,0,1.525106430053711,0,0,0.6879600286483765
0.20478703,0,0,1.5490485429763794,0,0,0.9172800183296204
0.205160694,0,0,1.5490485429763794,0,0,1.1466000080108643
0.205453118,0,0,1.5490485429763794,0,0,0.4586400091648102
0.205786856,0,0,1.5490485429763794,0,0,0.4586400091648102
0.206157539,0,0,1.5466543436050415,0,0,0.9172800183296204
0.206453815,0,0,1.5466543436050415,0,0,0.5350799560546875
0.20679672,0,0,1.5466543436050415,0,0,0.8408399820327759
0.207145606,0,0,1.5466543436050415,0,0,1.375920057296753
0.207455604,0,0,1.501164436340332,0,0,0.8408399820327759
0.207825083,0,0,1.501164436340332,0,0,0.0764399990439415
0.208117655,0,0,1.501164436340332,0,0,0.9172800183296204
0.208453023,0,0,1.501164436340332,0,0,1.452359914779663
0.208824224,0,0,1.3910311460494995,0,0,0.5350799560546875
0.20912137,0,0,1.3910311460494995,0,0,1.223039984703064
0.209453609,0,0,1.3910311460494995,0,0,0.4586400091648102
0.209796292,0,0,1.3910311460494995,0,0,0.7644000053405762
0.210121382,0,0,1.3718775510787964,0,0,0.611519992351532
0.210494991,0,0,1.3718775510787964,0,0,0
0.210789785,0,0,1.3718775510787964,0,0,0.7644000053405762
0.211148616,0,0,1.2473790645599365,0,0,0.8408399820327759
0.211507262,0,0,1.2473790645599365,0,0,0.8408399820327759
0.211801278,0,0,1.2473790645599365,0,0,1.223039984703064
0.212127868,0,0,1.2473790645599365,0,0,0.8408399820327759
0.212492014,0,0,1.3455413579940796,0,0,0.8408399820327759
0.212794419,0,0,1.3455413579940796,0,0,1.070159912109375
0.213128121,0,0,1.3455413579940796,0,0,0.8408399820327759
0.213509341,0,0,1.3455413579940796,0,0,0.9172800183296204
0.213790616,0,0,1.3455413579940796,0,0,0.611519992351532
0.214206947,0,0,1.2737152576446533,0,0,0.5350799560546875
0.214511093,0,0,1.2737152576446533,0,0,0.5350799560546875
0.214821702,0,0,1.2737152576446533,0,0,0.9172800183296204
0.2151402,0,0,1.2737152576446533,0,0,0.9172800183296204
0.215521845,0,0,1.2282254695892334,0,0,0.6879600286483765
0.21580464,0,0,1.2282254695892334,0,0,1.1466000080108643
0.216131063,0,0,1.2282254695892334,0,0,1.1466000080108643
0.216505968,0,0,1.2282254695892334,0,0,0.611519992351532
0.216794207,0,0,1.3670891523361206,0,0,0.611519992351532
0.217138094,0,0,1.3670891523361206,0,0,0.9172800183296204
0.217494924,0,0,1.3670891523361206,0,0,0.7644000053405762
0.217796052,0,0,1.3670891523361206,0,0,0.9937199950218201
0.218123161,0,0,1.3239935636520386,0,0,1.070159912109375
0.218464233,0,0,1.3239935636520386,0,0,0.8408399820327759
0.218801878,0,0,1.3239935636520386,0,0,0.611519992351532
0.219185265,0,0,1.3239935636520386,0,0,0.6879600286483765
0.219463763,0,0,1.292868971824646,0,0,1.1466000080108643
0.219794353,0,0,1.292868971824646,0,0,0.3822000026702881
0.220175647,0,0,1.292868971824646,0,0,0.7644000053405762
0.220475404,0,0,1.292868971824646,0,0,0.8408399820327759
0.220797513,0,0,1.3838485479354858,0,0,0.8408399820327759
0.221180381,0,0,1.3838485479354858,0,0,0.2293200045824051
0.221460712,0,0,1.3838485479354858,0,0,0.152879998087883
0.221796432,0,0,1.3838485479354858,0,0,0.7644000053405762
0.222181244,0,0,1.3455413579940796,0,0,0.4586400091648102
0.22247602,0,0,1.3455413579940796,0,0,-0.3822000026702881
0.222799425,0,0,1.3455413579940796,0,0,0.7644000053405762
0.223174034,0,0,1.3455413579940796,0,0,0.611519992351532
0.223464513,0,0,1.3455413579940796,0,0,0.9937199950218201
0.22379427,0,0,1.2665326595306396,0,0,0.7644000053405762
0.224184601,0,0,1.2665326595306396,0,0,0.7644000053405762
0.224463118,0,0,1.2665326595306396,0,0,1.8345600366592407
0.224791689,0,0,1.2665326595306396,0,0,1.070159912109375
0.225157113,0,0,1.3239935636520386,0,0,0.9172800183296204
0.225457778,0,0,1.3239935636520386,0,0,0.6879600286483765
0.225789849,0,0,1.3239935636520386,0,0,0.9172800183296204
0.226138365,0,0,1.3239935636520386,0,0,0.7644000053405762
0.226456363,0,0,1.2114660739898682,0,0,1.223039984703064
0.226831472,0,0,1.2114660739898682,0,0,0.6879600286483765
0.227128711,0,0,1.2114660739898682,0,0,0.4586400091648102
0.227468782,0,0,1.2114660739898682,0,0,0.305759996175766
0.227838409,0,0,1.2689268589019775,0,0,1.070159912109375
0.228123482,0,0,1.2689268589019775,0,0,0.4586400091648102
0.228454239,0,0,1.2689268589019775,0,0,0.7644000053405762
0.228817088,0,0,1.2689268589019775,0,0,0.8408399820327759
0.229124178,0,0,1.2761094570159912,0,0,0.5350799560546875
0.229519528,0,0,1.2761094570159912,0,0,1.1466000080108643
0.2298131,0,0,1.2761094570159912,0,0,0.9937199950218201
0.230121746,0,0,1.2761094570159912,0,0,0.6879600286483765
0.230498521,0,0,1.335964560508728,0,0,0.9937199950218201
0.230808982,0,0,1.335964560508728,0,0,0.3822000026702881
0.231123128,0,0,1.335964560508728,0,0,0.8408399820327759
0.231497625,0,0,1.335964560508728,0,0,0.6879600286483765
0.231787364,0,0,1.4772224426269531,0,0,0.9937199950218201
0.232122102,0,0,1.4772224426269531,0,0,0.9937199950218201
0.232494304,0,0,1.4772224426269531,0,0,0.9937199950218201
0.23279145,0,0,1.4772224426269531,0,0,0.9172800183296204
0.233177595,0,0,1.434126853942871,0,0,0.9937199950218201
0.23348226,0,0,1.434126853942871,0,0,0.8408399820327759
0.233790498,0,0,1.434126853942871,0,0,1.452359914779663
0.234162144,0,0,1.434126853942871,0,0,0.9937199950218201
0.234453679,0,0,1.278503656387329,0,0,0.6879600286483765
0.23478964,0,0,1.278503656387329,0,0,1.070159912109375
0.235162471,0,0,1.278503656387329,0,0,1.223039984703064
0.235457209,0,0,1.278503656387329,0,0,0.8408399820327759
0.235793929,0,0,1.278503656387329,0,0,0.7644000053405762
0.23615663,0,0,1.4508862495422363,0,0,0.7644000053405762
0.23646211,0,0,1.4508862495422363,0,0,0.9937199950218201
0.236790478,0,0,1.4508862495422363,0,0,0.9937199950218201
0.237315252,0,0,1.4508862495422363,0,0,1.452359914779663
0.237517917,0,0,1.3239935636520386,0,0,0.5350799560546875
0.237809601,0,0,1.3239935636520386,0,0,0.4586400091648102
0.238132561,0,0,1.3239935636520386,0,0,0.3822000026702881
0.238556818,0,0,1.3239935636520386,0,0,0.9937199950218201
0.238817557,0,0,1.2330138683319092,0,0,0.7644000053405762
0.239133888,0,0,1.2330138683319092,0,0,0.8408399820327759
0.239503534,0,0,1.2330138683319092,0,0,0.6879600286483765
0.239785624,0,0,1.2330138683319092,0,0,0.9937199950218201
0.240140677,0,0,1.237802267074585,0,0,0.9937199950218201
0.240454879,0,0,1.237802267074585,0,0,0.611519992351532
0.240787951,0,0,1.237802267074585,0,0,0.9172800183296204
0.241180818,0,0,1.237802267074585,0,0,0.7644000053405762
0.241454002,0,0,1.2018892765045166,0,0,0.5350799560546875
0.241834869,0,0,1.2018892765045166,0,0,0.611519992351532
0.242118756,0,0,1.2018892765045166,0,0,0.7644000053405762
0.242467161,0,0,1.2018892765045166,0,0,0.611519992351532
0.242781678,0,0,1.3407529592514038,0,0,0.7644000053405762
0.243118768,0,0,1.3407529592514038,0,0,0.8408399820327759
0.243496266,0,0,1.3407529592514038,0,0,0.7644000053405762
0.243795264,0,0,1.3407529592514038,0,0,0.611519992351532
0.244171909,0,0,1.3407529592514038,0,0,1.605239987373352
0.244445074,0,0,1.1971008777618408,0,0,0.611519992351532
0.244798109,0,0,1.1971008777618408,0,0,1.070159912109375
0.245110699,0,0,1.1971008777618408,0,0,1.070159912109375
0.245451234,0,0,1.1971008777618408,0,0,0.7644000053405762
0.245809435,0,0,1.2832920551300049,0,0,0.8408399820327759
0.246109285,0,0,1.2832920551300049,0,0,1.2994799613952637
0.246456097,0,0,1.2832920551300049,0,0,0.305759996175766
0.246775873,0,0,1.2832920551300049,0,0,-0.305759996175766
0.247107778,0,0,1.4173674583435059,0,0,1.6816799640655518
0.247474738,0,0,1.4173674583435059,0,0,0.6879600286483765
0.247774718,0,0,1.4173674583435059,0,0,0.0764399990439415
0.248118253,0,0,1.4173674583435059,0,0,0.611519992351532
0.24849512,0,0,1.4437036514282227,0,0,1.452359914779663
0.248782026,0,0,1.4437036514282227,0,0,0.5350799560546875
0.249143634,0,0,1.4437036514282227,0,0,0.5350799560546875
0.249442984,0,0,1.4437036514282227,0,0,0.9172800183296204
0.249774778,0,0,1.3742717504501343,0,0,0.3822000026702881
0.250170646,0,0,1.3742717504501343,0,0,0.6879600286483765
0.250446774,0,0,1.3742717504501343,0,0,0.611519992351532
0.25082029,0,0,1.3742717504501343,0,0,1.070159912109375
0.251117436,0,0,1.4437036514282227,0,0,0.7644000053405762
0.251461156,0,0,1.4437036514282227,0,0,0.5350799560546875
0.251778968,0,0,1.4437036514282227,0,0,1.070159912109375
0.252111207,0,0,1.4437036514282227,0,0,0.6879600286483765
0.252477075,0,0,1.4437036514282227,0,0,0.7644000053405762
0.252777276,0,0,1.3551181554794312,0,0,0.5350799560546875
0.253124144,0,0,1.3551181554794312,0,0,0.7644000053405762
0.253444772,0,0,1.3551181554794312,0,0,0.9172800183296204
0.253779029,0,0,1.3551181554794312,0,0,1.070159912109375
0.254147489,0,0,1.3527239561080933,0,0,0.7644000053405762
0.254445802,0,0,1.3527239561080933,0,0,1.070159912109375
0.254782744,0,0,1.3527239561080933,0,0,0.9937199950218201
0.255111316,0,0,1.3527239561080933,0,0,0.8408399820327759
0.255443832,0,0,1.335964560508728,0,0,0.6879600286483765
0.255803182,0,0,1.335964560508728,0,0,0.5350799560546875
0.256108013,0,0,1.335964560508728,0,0,0.9172800183296204
0.256446714,0,0,1.335964560508728,0,0,0.152879998087883
0.256810675,0,0,1.338358759880066,0,0,0.9172800183296204
0.257109987,0,0,1.338358759880066,0,0,0.611519992351532
0.2574563,0,0,1.338358759880066,0,0,0.152879998087883
0.257775076,0,0,1.338358759880066,0,0,0.9172800183296204
0.258107795,0,0,1.4269442558288574,0,0,0.3822000026702881
0.258481274,0,0,1.4269442558288574,0,0,0.9172800183296204
0.258775643,0,0,1.4269442558288574,0,0,1.070159912109375
0.2591104,0,0,1.4269442558288574,0,0,1.9109998941421509
0.259471323,0,0,1.3335703611373901,0,0,-0.611519992351532
0.25977521,0,0,1.3335703611373901,0,0,0.9172800183296204
0.260121856,0,0,1.3335703611373901,0,0,-0.4586400091648102
0.260441594,0,0,1.3335703611373901,0,0,0.0764399990439415
0.260773962,0,0,1.3335703611373901,0,0,0.6879600286483765
0.261141238,0,0,1.4628572463989258,0,0,0.6879600286483765
0.261441439,0,0,1.4628572463989258,0,0,0.6879600286483765
0.261774159,0,0,1.4628572463989258,0,0,0.8408399820327759
0.262147231,0,0,1.4628572463989258,0,0,0.6879600286483765
0.262441951,0,0,1.5107412338256836,0,0,0.5350799560546875
0.262811726,0,0,1.5107412338256836,0,0,0.8408399820327759
0.263108039,0,0,1.5107412338256836,0,0,0.8408399820327759
0.263442463,0,0,1.5107412338256836,0,0,0.4586400091648102
0.263810683,0,0,1.4293384552001953,0,0,0.5350799560546875
0.264117884,0,0,1.4293384552001953,0,0,0.6879600286483765
0.264474715,0,0,1.4293384552001953,0,0,1.223039984703064
0.264774843,0,0,1.4293384552001953,0,0,0.6879600286483765
0.265109451,0,0,1.3670891523361206,0,0,0.6879600286483765
0.26548856,0,0,1.3670891523361206,0,0,0.9172800183296204
0.265776743,0,0,1.3670891523361206,0,0,0.9937199950218201
0.266120741,0,0,1.3670891523361206,0,0,0.9172800183296204
0.266442202,0,0,1.4293384552001953,0,0,0.3822000026702881
0.266775977,0,0,1.4293384552001953,0,0,0.6879600286483765
0.267140178,0,0,1.4293384552001953,0,0,0.9172800183296204
0.267442084,0,0,1.4293384552001953,0,0,1.223039984703064
0.267792878,0,0,1.2042834758758545,0,0,0.3822000026702881
0.268139097,0,0,1.2042834758758545,0,0,0.9172800183296204
0.268441669,0,0,1.2042834758758545,0,0,0.6879600286483765
0.268795111,0,0,1.2042834758758545,0,0,1.1466000080108643
0.269107295,0,0,1.2042834758758545,0,0,0.611519992351532
0.269440885,0,0,1.158793568611145,0,0,0.7644000053405762
0.26981003,0,0,1.158793568611145,0,0,1.223039984703064
0.270106973,0,0,1.158793568611145,0,0,0.611519992351532
0.2704401,0,0,1.158793568611145,0,0,0.6879600286483765
0.270805061,0,0,1.213860273361206,0,0,-0.5350799560546875
0.271107262,0,0,1.213860273361206,0,0,1.070159912109375
0.271462408,0,0,1.213860273361206,0,0,1.605239987373352
0.271773684,0,0,1.213860273361206,0,0,-0.152879998087883
0.272106737,0,0,1.1492167711257935,0,0,2.06387996673584
0.272470216,0,0,1.1492167711257935,0,0,1.070159912109375
0.272773955,0,0,1.1492167711257935,0,0,1.5288000106811523
0.273106564,0,0,1.1492167711257935,0,0,9.707880020141602
0.273474061,0,0,1.2665326595306396,0,0,2.3696401119232178
0.273773985,0,0,1.2665326595306396,0,0,0.6879600286483765
0.274109797,0,0,1.2665326595306396,0,0,0.611519992351532
0.27444048,0,0,1.2665326595306396,0,0,0.9172800183296204
0.274773589,0,0,1.3431471586227417,0,0,0.9937199950218201
0.275128513,0,0,1.3431471586227417,0,0,0.9937199950218201
0.275440233,0,0,1.3431471586227417,0,0,0.5350799560546875
0.275773601,0,0,1.3431471586227417,0,0,0.4586400091648102
0.276137598,0,0,1.4317326545715332,0,0,0.7644000053405762
0.276440485,0,0,1.4317326545715332,0,0,0.9937199950218201
0.276771224,0,0,1.4317326545715332,0,0,0.7644000053405762
0.277138703,0,0,1.4317326545715332,0,0,0.611519992351532
0.277440515,0,0,1.3958195447921753,0,0,0.7644000053405762
0.277786328,0,0,1.3958195447921753,0,0,0.8408399820327759
0.278106881,0,0,1.3958195447921753,0,0,0.611519992351532
0.278440064,0,0,1.3958195447921753,0,0,0.6879600286483765
0.278803302,0,0,1.3958195447921753,0,0,0.611519992351532
0.279110448,0,0,1.4532804489135742,0,0,0.8408399820327759
0.279440224,0,0,1.4532804489135742,0,0,0.6879600286483765
0.279807184,0,0,1.4532804489135742,0,0,0.6879600286483765
0.280107201,0,0,1.4532804489135742,0,0,0.4586400091648102
0.280442847,0,0,1.5490485429763794,0,0,1.070159912109375
0.28077327,0,0,1.5490485429763794,0,0,0.6879600286483765
0.281106898,0,0,1.5490485429763794,0,0,0.5350799560546875
0.281461395,0,0,1.5490485429763794,0,0,0.3822000026702881
0.281773764,0,0,1.4867992401123047,0,0,1.2994799613952637
0.282106687,0,0,1.4867992401123047,0,0,1.223039984703064
0.282473129,0,0,1.4867992401123047,0,0,0.6879600286483765
0.282773831,0,0,1.4867992401123047,0,0,0.6879600286483765
0.283105069,0,0,1.338358759880066,0,0,0.5350799560546875
0.283473567,0,0,1.338358759880066,0,0,1.605239987373352
0.283774287,0,0,1.338358759880066,0,0,0.3822000026702881
0.284121488,0,0,1.338358759880066,0,0,-0.3822000026702881
0.28444019,0,0,1.335964560508728,0,0,1.375920057296753
0.284773206,0,0,1.335964560508728,0,0,0.7644000053405762
0.285137796,0,0,1.335964560508728,0,0,0.7644000053405762
0.285440387,0,0,1.335964560508728,0,0,0.611519992351532
0.285773459,0,0,1.2880805730819702,0,0,0.9937199950218201
0.286140049,0,0,1.2880805730819702,0,0,0.6879600286483765
0.286440398,0,0,1.2880805730819702,0,0,0.7644000053405762
0.286807211,0,0,1.2880805730819702,0,0,0.6879600286483765
0.287107375,0,0,1.2521674633026123,0,0,0.9172800183296204
0.287439855,0,0,1.2521674633026123,0,0,0.611519992351532
0.287806074,0,0,1.2521674633026123,0,0,0.4586400091648102
0.288107072,0,0,1.2521674633026123,0,0,0.8408399820327759
0.288448996,0,0,1.2521674633026123,0,0,0.9172800183296204
0.288773808,0,0,1.2449848651885986,0,0,1.070159912109375
0.289106769,0,0,1.2449848651885986,0,0,0.6879600286483765
0.289474489,0,0,1.2449848651885986,0,0,0.611519992351532
0.289773894,0,0,1.2449848651885986,0,0,0.5350799560546875
0.290107151,0,0,1.1971008777618408,0,0,0.9172800183296204
0.290474538,0,0,1.1971008777618408,0,0,0.6879600286483765
0.290773721,0,0,1.1971008777618408,0,0,0.3822000026702881
0.29111307,0,0,1.1971008777618408,0,0,0.5350799560546875
0.291440957,0,0,1.3670891523361206,0,0,0.6879600286483765
0.291773547,0,0,1.3670891523361206,0,0,0.9172800183296204
0.292128267,0,0,1.3670891523361206,0,0,0.9172800183296204
0.292440395,0,0,1.3670891523361206,0,0,0.4586400091648102
0.292782892,0,0,1.3239935636520386,0,0,0.8408399820327759
0.293135371,0,0,1.3239935636520386,0,0,0.9937199950218201
0.293440258,0,0,1.3239935636520386,0,0,0.8408399820327759
0.293772034,0,0,1.3239935636520386,0,0,1.375920057296753
0.294138272,0,0,1.3048399686813354,0,0,1.223039984703064
0.294440455,0,0,1.3048399686813354,0,0,1.223039984703064
0.294795804,0,0,1.3048399686813354,0,0,1.6816799640655518
0.295106784,0,0,1.3048399686813354,0,0,0.3822000026702881
0.295440207,0,0,1.381454348564148,0,0,1.2994799613952637
0.295803649,0,0,1.381454348564148,0,0,0.9172800183296204
0.296106758,0,0,1.381454348564148,0,0,0
0.296437923,0,0,1.381454348564148,0,0,1.9874399900436401
0.29680692,0,0,1.3766659498214722,0,0,0.9172800183296204
0.297107029,0,0,1.3766659498214722,0,0,2.3696401119232178
0.297453786,0,0,1.3766659498214722,0,0,0.9937199950218201
0.297774173,0,0,1.3766659498214722,0,0,0.8408399820327759
0.298106763,0,0,1.3766659498214722,0,0,0.7644000053405762
0.298470798,0,0,1.2856862545013428,0,0,0.6879600286483765
0.298774444,0,0,1.2856862545013428,0,0,0.9172800183296204
0.299106627,0,0,1.2856862545013428,0,0,0.6879600286483765
0.299473884,0,0,1.2856862545013428,0,0,0.6879600286483765
0.299777141,0,0,1.3263877630233765,0,0,0.8408399820327759
0.300112157,0,0,1.3263877630233765,0,0,0.9172800183296204
0.300440433,0,0,1.3263877630233765,0,0,0.6879600286483765
0.300773449,0,0,1.3263877630233765,0,0,0.7644000053405762
0.301128243,0,0,1.2449848651885986,0,0,0.5350799560546875
0.301440333,0,0,1.2449848651885986,0,0,0.8408399820327759
0.301773294,0,0,1.2449848651885986,0,0,0.9172800183296204
0.302135828,0,0,1.2449848651885986,0,0,1.2994799613952637
0.302440308,0,0,1.3215993642807007,0,0,0.7644000053405762
0.302772787,0,0,1.3215993642807007,0,0,0.5350799560546875
0.303139581,0,0,1.3215993642807007,0,0,0.5350799560546875
0.303440523,0,0,1.3215993642807007,0,0,0.4586400091648102
0.30378778,0,0,1.316810965538025,0,0,0.9172800183296204
0.304107759,0,0,1.316810965538025,0,0,0.8408399820327759
0.304439868,0,0,1.316810965538025,0,0,0
0.304804347,0,0,1.316810965538025,0,0,0.4586400091648102
0.305107475,0,0,1.3694833517074585,0,0,0.0764399990439415
0.305440047,0,0,1.3694833517074585,0,0,1.1466000080108643
0.305807137,0,0,1.3694833517074585,0,0,0.305759996175766
0.306107172,0,0,1.3694833517074585,0,0,0.4586400091648102
0.30644491,0,0,1.501164436340332,0,0,0.6879600286483765
0.306773926,0,0,1.501164436340332,0,0,1.1466000080108643
0.307106813,0,0,1.501164436340332,0,0,0.6879600286483765
0.307461422,0,0,1.501164436340332,0,0,0.3822000026702881
0.30777379,0,0,1.3886369466781616,0,0,1.070159912109375
0.308106658,0,0,1.3886369466781616,0,0,1.223039984703064
0.308470082,0,0,1.3886369466781616,0,0,1.223039984703064
0.308773635,0,0,1.3886369466781616,0,0,0.0764399990439415
0.309104411,0,0,1.3886369466781616,0,0,1.6816799640655518
0.309473556,0,0,1.359906554222107,0,0,1.5288000106811523
0.309774073,0,0,1.359906554222107,0,0,0.9172800183296204
0.310123774,0,0,1.359906554222107,0,0,0.7644000053405762
0.310440346,0,0,1.359906554222107,0,0,0.5350799560546875
0.310773881,0,0,1.4389152526855469,0,0,0.9937199950218201
0.311138693,0,0,1.4389152526855469,0,0,0.9172800183296204
0.311440932,0,0,1.4389152526855469,0,0,0.7644000053405762
0.311773652,0,0,1.4389152526855469,0,0,0.6879600286483765
0.312134649,0,0,1.4077905416488647,0,0,0.611519992351532
0.312440925,0,0,1.4077905416488647,0,0,0.9937199950218201
0.312782682,0,0,1.4077905416488647,0,0,0.9937199950218201
0.313106846,0,0,1.4077905416488647,0,0,0.9172800183296204
0.313440103,0,0,1.2114660739898682,0,0,0.7644000053405762
0.313798767,0,0,1.2114660739898682,0,0,0.7644000053405762
0.314116802,0,0,1.2114660739898682,0,0,0.9937199950218201
0.314440133,0,0,1.2114660739898682,0,0,0.3822000026702881
0.314807372,0,0,1.2090718746185303,0,0,0.9937199950218201
0.315107166,0,0,1.2090718746185303,0,0,1.1466000080108643
0.31544059,0,0,1.2090718746185303,0,0,0.9172800183296204
0.315806531,0,0,1.2090718746185303,0,0,0.7644000053405762
0.316107011,0,0,1.2210428714752197,0,0,0.6879600286483765
0.316457916,0,0,1.2210428714752197,0,0,0.4586400091648102
0.316773525,0,0,1.2210428714752197,0,0,0.9172800183296204
0.317106541,0,0,1.2210428714752197,0,0,0.4586400091648102
0.317471687,0,0,1.2258312702178955,0,0,0.9172800183296204
0.317773833,0,0,1.2258312702178955,0,0,0.9172800183296204
0.318107368,0,0,1.2258312702178955,0,0,1.1466000080108643
0.318468106,0,0,1.2258312702178955,0,0,1.223039984703064
0.318773826,0,0,1.259350061416626,0,0,0
0.319116527,0,0,1.259350061416626,0,0,1.2994799613952637
0.319440044,0,0,1.259350061416626,0,0,0.9937199950218201
0.319774078,0,0,1.259350061416626,0,0,1.605239987373352
0.320132446,0,0,1.3551181554794312,0,0,-1.070159912109375
0.32044337,0,0,1.3551181554794312,0,0,1.452359914779663
0.320773998,0,0,1.3551181554794312,0,0,1.375920057296753
0.321141736,0,0,1.3551181554794312,0,0,1.9874399900436401
0.321442697,0,0,1.482010841369629,0,0,1.223039984703064
0.321776694,0,0,1.482010841369629,0,0,0
0.32210697,0,0,1.482010841369629,0,0,0.7644000053405762
0.32247456,0,0,1.482010841369629,0,0,0.6879600286483765
0.322792706,0,0,1.4221558570861816,0,0,0.5350799560546875
0.323106463,0,0,1.4221558570861816,0,0,1.1466000080108643
0.323439794,0,0,1.4221558570861816,0,0,0.7644000053405762
0.32380531,0,0,1.4221558570861816,0,0,0.9172800183296204
0.324106993,0,0,1.4460978507995605,0,0,0.3822000026702881
0.324440454,0,0,1.4460978507995605,0,0,0.305759996175766
0.324801322,0,0,1.4460978507995605,0,0,0.305759996175766
0.325106949,0,0,1.4460978507995605,0,0,0.9172800183296204
0.325449373,0,0,1.4221558570861816,0,0,0.5350799560546875
0.325773371,0,0,1.4221558570861816,0,0,0.6879600286483765
0.326106646,0,0,1.4221558570861816,0,0,0.9937199950218201
0.326465607,0,0,1.4221558570861816,0,0,0.9937199950218201
0.326773568,0,0,1.3287819623947144,0,0,0.9172800183296204
0.327107214,0,0,1.3287819623947144,0,0,0.2293200045824051
0.327473526,0,0,1.3287819623947144,0,0,0.7644000053405762
0.32777345,0,0,1.3287819623947144,0,0,0.7644000053405762
0.328107077,0,0,1.2665326595306396,0,0,0.9172800183296204
0.328472815,0,0,1.2665326595306396,0,0,0.5350799560546875
0.32877311,0,0,1.2665326595306396,0,0,0.9937199950218201
0.329123848,0,0,1.2665326595306396,0,0,0.9937199950218201
0.329440161,0,0,1.2473790645599365,0,0,0.6879600286483765
0.329773195,0,0,1.2473790645599365,0,0,1.070159912109375
0.33013736,0,0,1.2473790645599365,0,0,0.6879600286483765
0.330440395,0,0,1.2473790645599365,0,0,1.2994799613952637
0.330777263,0,0,1.235408067703247,0,0,0.6879600286483765
0.331139075,0,0,1.235408067703247,0,0,0.8408399820327759
0.331440999,0,0,1.235408067703247,0,0,0.2293200045824051
0.331784311,0,0,1.235408067703247,0,0,0.9937199950218201
0.332107642,0,0,1.235408067703247,0,0,1.2994799613952637
0.332440251,0,0,1.235408067703247,0,0,9.402119636535645
0.332804471,0,0,1.235408067703247,0,0,1.1466000080108643
0.333107247,0,0,1.235408067703247,0,0,-0.2293200045824051
0.333441689,0,0,1.3192051649093628,0,0,0.9172800183296204
0.333805057,0,0,1.3192051649093628,0,0,9.172800064086914
0.334107147,0,0,1.3192051649093628,0,0,0.6879600286483765
0.334452849,0,0,1.3192051649093628,0,0,0.9172800183296204
0.334773828,0,0,1.3192051649093628,0,0,0.9937199950218201
0.3351069,0,0,1.3838485479354858,0,0,0.611519992351532
0.335496342,0,0,1.3838485479354858,0,0,0.4586400091648102
0.335774303,0,0,1.3838485479354858,0,0,0.8408399820327759
0.336106726,0,0,1.3838485479354858,0,0,1.070159912109375
0.336473483,0,0,1.4077905416488647,0,0,0.6879600286483765
0.336773944,0,0,1.4077905416488647,0,0,0.7644000053405762
0.337114645,0,0,1.4077905416488647,0,0,0.9937199950218201
0.337441254,0,0,1.4077905416488647,0,0,1.070159912109375
0.337773289,0,0,1.403002142906189,0,0,0.8408399820327759
0.338136805,0,0,1.403002142906189,0,0,0.611519992351532
0.338440155,0,0,1.403002142906189,0,0,0.5350799560546875
0.33877306,0,0,1.403002142906189,0,0,1.070159912109375
0.33914015,0,0,1.2880805730819702,0,0,0.4586400091648102
0.339440074,0,0,1.2880805730819702,0,0,0.7644000053405762
0.339788053,0,0,1.2880805730819702,0,0,0.9172800183296204
0.340106773,0,0,1.2880805730819702,0,0,1.375920057296753
0.340439604,0,0,1.3862427473068237,0,0,0.6879600286483765
0.340885638,0,0,1.3862427473068237,0,0,0.6879600286483765
0.341144414,0,0,1.3862427473068237,0,0,0.2293200045824051
0.341451894,0,0,1.3862427473068237,0,0,1.070159912109375
0.341930724,0,0,1.3551181554794312,0,0,0.5350799560546875
0.342120722,0,0,1.3551181554794312,0,0,1.375920057296753
0.342450961,0,0,1.3551181554794312,0,0,1.070159912109375
0.342821514,0,0,1.3551181554794312,0,0,0.305759996175766
0.343117901,0,0,1.280897855758667,0,0,1.070159912109375
0.343450676,0,0,1.280897855758667,0,0,0
0.343800118,0,0,1.280897855758667,0,0,0
0.344118023,0,0,1.280897855758667,0,0,8.867039680480957
0.344490243,0,0,1.3694833517074585,0,0,1.223039984703064
0.3447845,0,0,1.3694833517074585,0,0,1.605239987373352
0.345117257,0,0,1.3694833517074585,0,0,0.6879600286483765
0.345473588,0,0,1.3694833517074585,0,0,0.9172800183296204
0.345784197,0,0,1.3000515699386597,0,0,0.7644000053405762
0.346155047,0,0,1.3000515699386597,0,0,0.6879600286483765
0.346451008,0,0,1.3000515699386597,0,0,0.3822000026702881
0.346784005,0,0,1.3000515699386597,0,0,0.8408399820327759
0.347148392,0,0,1.3192051649093628,0,0,1.1466000080108643
0.347451019,0,0,1.3192051649093628,0,0,0.4586400091648102
0.347823702,0,0,1.3192051649093628,0,0,0.6879600286483765
0.348116552,0,0,1.3192051649093628,0,0,0.9172800183296204
0.348450883,0,0,1.3239935636520386,0,0,0.9937199950218201
0.348819417,0,0,1.3239935636520386,0,0,0.8408399820327759
0.349118841,0,0,1.3239935636520386,0,0,0.7644000053405762
0.349450746,0,0,1.3239935636520386,0,0,0.611519992351532
0.349785429,0,0,1.3239935636520386,0,0,0.8408399820327759
0.350117908,0,0,1.4700398445129395,0,0,0.9937199950218201
0.350488628,0,0,1.4700398445129395,0,0,0.6879600286483765
0.350784645,0,0,1.4700398445129395,0,0,0.9937199950218201
0.351117365,0,0,1.4700398445129395,0,0,0.9172800183296204
0.351460622,0,0,1.5322890281677246,0,0,0.6879600286483765
0.351784582,0,0,1.5322890281677246,0,0,0.5350799560546875
0.352158246,0,0,1.5322890281677246,0,0,1.223039984703064
0.352451096,0,0,1.4293384552001953,0,0,0.4586400091648102
0.352784316,0,0,1.4293384552001953,0,0,0.7644000053405762
0.353145647,0,0,1.4293384552001953,0,0,0.611519992351532
0.353451108,0,0,1.4293384552001953,0,0,0.611519992351532
0.353822717,0,0,1.3982137441635132,0,0,0.5350799560546875
0.354122048,0,0,1.3982137441635132,0,0,0.7644000053405762
0.354451749,0,0,1.3982137441635132,0,0,0.6879600286483765
0.354821376,0,0,1.3982137441635132,0,0,1.223039984703064
0.355117911,0,0,1.4413094520568848,0,0,1.375920057296753
0.355451446,0,0,1.4413094520568848,0,0,0.611519992351532
0.355800351,0,0,1.4413094520568848,0,0,0.8408399820327759
0.356118127,0,0,1.4413094520568848,0,0,1.1466000080108643
0.356491606,0,0,1.4413094520568848,0,0,1.070159912109375
0.3567844,0,0,1.292868971824646,0,0,0.9172800183296204
0.357117361,0,0,1.292868971824646,0,0,0
0.357474099,0,0,1.292868971824646,0,0,0.6879600286483765
0.357784227,0,0,1.292868971824646,0,0,9.249239921569824
0.358155113,0,0,1.292868971824646,0,0,1.758120059967041
0.358451185,0,0,1.290474772453308,0,0,0.9172800183296204
0.358784312,0,0,1.290474772453308,0,0,0.8408399820327759
0.359146736,0,0,1.290474772453308,0,0,0.9172800183296204
0.359450752,0,0,1.290474772453308,0,0,0.9937199950218201
0.359823102,0,0,1.290474772453308,0,0,0.7644000053405762
0.360114729,0,0,1.2761094570159912,0,0,0.7644000053405762
0.36045069,0,0,1.2761094570159912,0,0,0.6879600286483765
0.360815187,0,0,1.2761094570159912,0,0,0.8408399820327759
0.361117778,0,0,1.2761094570159912,0,0,0.6879600286483765
0.361490294,0,0,1.2521674633026123,0,0,1.375920057296753
0.361787736,0,0,1.2521674633026123,0,0,1.1466000080108643
0.362117938,0,0,1.2521674633026123,0,0,0.6879600286483765
0.362489954,0,0,1.2521674633026123,0,0,0.3822000026702881
0.362784878,0,0,1.2521674633026123,0,0,0.611519992351532
0.363117486,0,0,1.2952631711959839,0,0,0.2293200045824051
0.363534632,0,0,1.2952631711959839,0,0,1.8345600366592407
0.363785223,0,0,1.2952631711959839,0,0,0.8408399820327759
0.364158257,0,0,1.2952631711959839,0,0,0.6879600286483765
0.364451033,0,0,1.2952631711959839,0,0,0.9937199950218201
0.364783901,0,0,1.3311761617660522,0,0,0.6879600286483765
0.365138936,0,0,1.3311761617660522,0,0,0.8408399820327759
0.365450915,0,0,1.3311761617660522,0,0,0.305759996175766
0.365822338,0,0,1.3311761617660522,0,0,0.6879600286483765
0.366115485,0,0,1.3311761617660522,0,0,1.070159912109375
0.366450704,0,0,1.4460978507995605,0,0,0.611519992351532
0.366820628,0,0,1.4460978507995605,0,0,0.8408399820327759
0.367118237,0,0,1.4460978507995605,0,0,0.3822000026702881
0.367450827,0,0,1.4460978507995605,0,0,0.9937199950218201
0.367800325,0,0,1.3862427473068237,0,0,0.305759996175766
0.368117786,0,0,1.3862427473068237,0,0,0.3822000026702881
0.368490839,0,0,1.3862427473068237,0,0,0.8408399820327759
0.368784448,0,0,1.3862427473068237,0,0,1.605239987373352
0.369118446,0,0,1.3862427473068237,0,0,0.9172800183296204
0.369474758,0,0,1.3000515699386597,0,0,0.7644000053405762
0.369784608,0,0,1.3000515699386597,0,0,1.452359914779663
0.370156309,0,0,1.3000515699386597,0,0,0.3822000026702881
0.370452677,0,0,1.3000515699386597,0,0,0.6879600286483765
0.370783823,0,0,1.3000515699386597,0,0,0.9937199950218201
0.371148209,0,0,1.4484920501708984,0,0,0.4586400091648102
0.371451022,0,0,1.4484920501708984,0,0,0.9172800183296204
0.371822631,0,0,1.4484920501708984,0,0,0.9172800183296204
0.372120536,0,0,1.4484920501708984,0,0,1.070159912109375
0.372450682,0,0,1.4484920501708984,0,0,0.6879600286483765
0.372815365,0,0,1.5298948287963867,0,0,0.6879600286483765
0.373117677,0,0,1.5298948287963867,0,0,0.7644000053405762
0.373490082,0,0,1.5298948287963867,0,0,0.5350799560546875
0.373782766,0,0,1.5298948287963867,0,0,0.611519992351532
0.374117745,0,0,1.3646949529647827,0,0,0.9172800183296204
0.374486964,0,0,1.3646949529647827,0,0,0.611519992351532
0.374784314,0,0,1.3646949529647827,0,0,0.9937199950218201
0.375117164,0,0,1.3646949529647827,0,0,0.7644000053405762
0.375487106,0,0,1.3646949529647827,0,0,0.4586400091648102
0.375783807,0,0,1.3192051649093628,0,0,0.8408399820327759
0.37615336,0,0,1.3192051649093628,0,0,0.9172800183296204
0.376451155,0,0,1.3192051649093628,0,0,0.611519992351532
0.376784504,0,0,1.3192051649093628,0,0,0.5350799560546875
0.377122521,0,0,1.3192051649093628,0,0,0.7644000053405762
0.377451926,0,0,1.3024457693099976,0,0,0.9172800183296204
0.377822812,0,0,1.3024457693099976,0,0,0.152879998087883
0.378118217,0,0,1.3024457693099976,0,0,0.9937199950218201
0.378450789,0,0,1.3024457693099976,0,0,0.7644000053405762
0.378803805,0,0,1.3024457693099976,0,0,0.4586400091648102
0.379117525,0,0,1.2282254695892334,0,0,0.0764399990439415
0.379484004,0,0,1.2282254695892334,0,0,2.14031982421875
0.379784391,0,0,1.2282254695892334,0,0,0.4586400091648102
0.380117204,0,0,1.2282254695892334,0,0,0.6879600286483765
0.380474201,0,0,1.2282254695892334,0,0,0
0.380784088,0,0,1.3096283674240112,0,0,0.2293200045824051
0.381155567,0,0,1.3096283674240112,0,0,0.8408399820327759
0.381466306,0,0,1.3096283674240112,0,0,0.9937199950218201
0.381784804,0,0,1.3096283674240112,0,0,0.6879600286483765
0.382146134,0,0,1.3096283674240112,0,0,0.6879600286483765
0.382454984,0,0,1.37906014919281,0,0,1.375920057296753
0.382823296,0,0,1.37906014919281,0,0,0.4586400091648102
0.383114146,0,0,1.37906014919281,0,0,0.7644000053405762
0.383450663,0,0,1.37906014919281,0,0,0.8408399820327759
0.383814901,0,0,1.436521053314209,0,0,0.6879600286483765
0.38411801,0,0,1.436521053314209,0,0,0.8408399820327759
0.384450711,0,0,1.436521053314209,0,0,0.8408399820327759
0.384820524,0,0,1.436521053314209,0,0,0.7644000053405762
0.385117077,0,0,1.436521053314209,0,0,0.5350799560546875
0.385485982,0,0,1.4915876388549805,0,0,0.8408399820327759
0.385784461,0,0,1.4915876388549805,0,0,1.375920057296753
0.386117292,0,0,1.4915876388549805,0,0,0.6879600286483765
0.386451549,0,0,1.4915876388549805,0,0,0.8408399820327759
0.386783918,0,0,1.4915876388549805,0,0,0.611519992351532
0.387154822,0,0,1.3215993642807007,0,0,0.6879600286483765
0.387450728,0,0,1.3215993642807007,0,0,0.6879600286483765
0.387783892,0,0,1.3215993642807007,0,0,0.8408399820327759
0.388123131,0,0,1.3215993642807007,0,0,0.8408399820327759
0.388451054,0,0,1.3215993642807007,0,0,0.6879600286483765
0.388823552,0,0,1.3862427473068237,0,0,1.070159912109375
0.389117791,0,0,1.3862427473068237,0,0,0.4586400091648102
0.389450325,0,0,1.3862427473068237,0,0,0.611519992351532
0.389803156,0,0,1.3862427473068237,0,0,0.305759996175766
0.390117524,0,0,1.3862427473068237,0,0,0.8408399820327759
0.390485411,0,0,1.3766659498214722,0,0,0.5350799560546875
0.390784724,0,0,1.3766659498214722,0,0,1.452359914779663
0.39111811,0,0,1.3766659498214722,0,0,0.9172800183296204
0.391477534,0,0,1.3766659498214722,0,0,0.9937199950218201
0.391784291,0,0,1.3766659498214722,0,0,0.9172800183296204
0.392158307,0,0,1.2401964664459229,0,0,-0.9172800183296204
0.392454453,0,0,1.2401964664459229,0,0,1.452359914779663
0.392787562,0,0,1.2401964664459229,0,0,0.3822000026702881
0.393147041,0,0,1.2401964664459229,0,0,-0.5350799560546875
0.393450891,0,0,1.2401964664459229,0,0,-1.070159912109375
0.39382237,0,0,1.316810965538025,0,0,2.446079969406128
0.394115608,0,0,1.316810965538025,0,0,1.1466000080108643
0.394450884,0,0,1.316810965538025,0,0,0.0764399990439415
0.39482714,0,0,1.316810965538025,0,0,1.070159912109375
0.395117731,0,0,1.237802267074585,0,0,0.7644000053405762
0.395451007,0,0,1.237802267074585,0,0,0.8408399820327759
0.395807282,0,0,1.237802267074585,0,0,0.6879600286483765
0.396117984,0,0,1.237802267074585,0,0,0.8408399820327759
0.396496814,0,0,1.237802267074585,0,0,0.9172800183296204
0.396786016,0,0,1.216254472732544,0,0,1.070159912109375
0.397121514,0,0,1.216254472732544,0,0,0.4586400091648102
0.397492678,0,0,1.216254472732544,0,0,1.070159912109375
0.397791935,0,0,1.216254472732544,0,0,0.6879600286483765
0.398123377,0,0,1.216254472732544,0,0,0.5350799560546875
0.398482671,0,0,1.2856862545013428,0,0,0.8408399820327759
0.398788058,0,0,1.2856862545013428,0,0,0.7644000053405762
0.399120593,0,0,1.2856862545013428,0,0,0.9172800183296204
0.399467887,0,0,1.2856862545013428,0,0,0.9937199950218201
0.399784459,0,0,1.2856862545013428,0,0,0.6879600286483765
0.400158752,0,0,1.3503297567367554,0,0,0.6879600286483765
0.400451658,0,0,1.3503297567367554,0,0,0.152879998087883
0.400784489,0,0,1.3503297567367554,0,0,0.7644000053405762
0.40114106,0,0,1.3503297567367554,0,0,0.5350799560546875
0.401451243,0,0,1.3503297567367554,0,0,0.305759996175766
0.401823667,0,0,1.4891934394836426,0,0,0.8408399820327759
0.402119443,0,0,1.4891934394836426,0,0,0.8408399820327759
0.402450996,0,0,1.4891934394836426,0,0,0.6879600286483765
0.402828753,0,0,1.4891934394836426,0,0,1.6816799640655518
0.403126028,0,0,1.4891934394836426,0,0,0.8408399820327759
0.403450971,0,0,1.4532804489135742,0,0,1.1466000080108643
0.403806301,0,0,1.4532804489135742,0,0,0.7644000053405762
0.404117744,0,0,1.4532804489135742,0,0,0.8408399820327759
0.404488056,0,0,1.4532804489135742,0,0,0.8408399820327759
0.404785554,0,0,1.4532804489135742,0,0,0.2293200045824051
0.405118052,0,0,1.414973258972168,0,0,2.6754000186920166
0.405476272,0,0,1.414973258972168,0,0,0.7644000053405762
0.405785343,0,0,1.414973258972168,0,0,0.7644000053405762
0.406157804,0,0,1.414973258972168,0,0,1.1466000080108643
0.406449598,0,0,1.4867992401123047,0,0,0.9172800183296204
0.406785337,0,0,1.4867992401123047,0,0,0.611519992351532
0.407153667,0,0,1.4867992401123047,0,0,1.2994799613952637
0.40745124,0,0,1.4867992401123047,0,0,1.070159912109375
0.407784237,0,0,1.4867992401123047,0,0,0.7644000053405762
0.408119587,0,0,1.4101848602294922,0,0,0.6879600286483765
0.408450992,0,0,1.4101848602294922,0,0,0.6879600286483765
0.408821267,0,0,1.4101848602294922,0,0,0.5350799560546875
0.409118191,0,0,1.4101848602294922,0,0,0.6879600286483765
0.40945093,0,0,1.4101848602294922,0,0,0.9172800183296204
0.409790168,0,0,1.2234370708465576,0,0,1.223039984703064
0.410117925,0,0,1.2234370708465576,0,0,0.6879600286483765
0.410491589,0,0,1.2234370708465576,0,0,0.8408399820327759
0.410785272,0,0,1.2234370708465576,0,0,0.3822000026702881
0.411118048,0,0,1.2234370708465576,0,0,0.4586400091648102
0.411472212,0,0,1.2761094570159912,0,0,0.9172800183296204
0.41178434,0,0,1.2761094570159912,0,0,0.611519992351532
0.412154096,0,0,1.2761094570159912,0,0,0.8408399820327759
0.412451891,0,0,1.2761094570159912,0,0,0.7644000053405762
0.412784499,0,0,1.2761094570159912,0,0,0.8408399820327759
0.413144867,0,0,1.2545616626739502,0,0,0.611519992351532
0.413455291,0,0,1.2545616626739502,0,0,1.1466000080108643
0.413825937,0,0,1.2545616626739502,0,0,1.070159912109375
0.414116564,0,0,1.2545616626739502,0,0,0.611519992351532
0.414450692,0,0,1.2545616626739502,0,0,0.9172800183296204
0.414823763,0,0,1.2042834758758545,0,0,0.7644000053405762
0.415117909,0,0,1.2042834758758545,0,0,0.5350799560546875
0.415451129,0,0,1.2042834758758545,0,0,0
0.415804571,0,0,1.2042834758758545,0,0,1.452359914779663
0.416118495,0,0,1.2042834758758545,0,0,0.6879600286483765
0.416455197,0,0,1.2306196689605713,0,0,0.7644000053405762
0.41681825,0,0,1.2306196689605713,0,0,2.6754000186920166
0.41711834,0,0,1.2306196689605713,0,0,0.0764399990439415
0.417490393,0,0,1.2306196689605713,0,0,0.9172800183296204
0.417783373,0,0,1.2306196689605713,0,0,-0.152879998087883
0.41811763,0,0,1.280897855758667,0,0,0.611519992351532
0.418487127,0,0,1.280897855758667,0,0,0.611519992351532
0.418784403,0,0,1.280897855758667,0,0,1.8345600366592407
0.419119104,0,0,1.280897855758667,0,0,0.3822000026702881
0.419458658,0,0,1.280897855758667,0,0,0.611519992351532
0.419784655,0,0,1.4652514457702637,0,0,0.9172800183296204
0.420158727,0,0,1.4652514457702637,0,0,0.5350799560546875
0.420451984,0,0,1.4652514457702637,0,0,0.7644000053405762
0.420784074,0,0,1.4652514457702637,0,0,0.9172800183296204
0.421138535,0,0,1.4676456451416016,0,0,1.070159912109375
0.421451107,0,0,1.4676456451416016,0,0,0.4586400091648102
0.421823586,0,0,1.4676456451416016,0,0,0.6879600286483765
0.422119991,0,0,1.4676456451416016,0,0,0.5350799560546875
0.4224506,0,0,1.4676456451416016,0,0,0.7644000053405762
0.422825116,0,0,1.4532804489135742,0,0,0.9937199950218201
0.423118096,0,0,1.4532804489135742,0,0,0.9172800183296204
0.423450834,0,0,1.4532804489135742,0,0,0.9937199950218201
0.423808572,0,0,1.4532804489135742,0,0,0.9172800183296204
0.4241182,0,0,1.4532804489135742,0,0,1.1466000080108643
0.424484809,0,0,1.5322890281677246,0,0,0.611519992351532
0.424784788,0,0,1.5322890281677246,0,0,1.223039984703064
0.42511773,0,0,1.5322890281677246,0,0,1.070159912109375
0.425477098,0,0,1.5322890281677246,0,0,0.5350799560546875
0.4257843,0,0,1.5322890281677246,0,0,0.9937199950218201
0.426156908,0,0,1.4532804489135742,0,0,0.6879600286483765
0.426454943,0,0,1.4532804489135742,0,0,1.223039984703064
0.426785034,0,0,1.4532804489135742,0,0,0.0764399990439415
0.427148068,0,0,1.4532804489135742,0,0,0.2293200045824051
0.427451344,0,0,1.4532804489135742,0,0,0.6879600286483765
0.42782423,0,0,1.2952631711959839,0,0,0.9172800183296204
0.428116376,0,0,1.2952631711959839,0,0,0.8408399820327759
0.428450874,0,0,1.2952631711959839,0,0,0.6879600286483765
0.42882402,0,0,1.2952631711959839,0,0,1.070159912109375
0.429117814,0,0,1.2952631711959839,0,0,0.611519992351532
0.429450645,0,0,1.3431471586227417,0,0,1.070159912109375
0.42978918,0,0,1.3431471586227417,0,0,0.9172800183296204
0.430117807,0,0,1.3431471586227417,0,0,2.751840114593506
0.430489934,0,0,1.3431471586227417,0,0,0.8408399820327759
0.430784932,0,0,1.3431471586227417,0,0,0
0.431117356,0,0,1.235408067703247,0,0,0.9172800183296204
0.431469928,0,0,1.235408067703247,0,0,0.7644000053405762
0.431784333,0,0,1.235408067703247,0,0,0.9172800183296204
0.43215183,0,0,1.235408067703247,0,0,0.7644000053405762
0.432451495,0,0,1.2282254695892334,0,0,0.305759996175766
0.432783956,0,0,1.2282254695892334,0,0,0.5350799560546875
0.433141268,0,0,1.2282254695892334,0,0,0.6879600286483765
0.433450729,0,0,1.2282254695892334,0,0,0.8408399820327759
0.433822949,0,0,1.2282254695892334,0,0,1.070159912109375
0.434124132,0,0,1.3718775510787964,0,0,0.9937199950218201
0.4344515,0,0,1.3718775510787964,0,0,0.7644000053405762
0.434826831,0,0,1.3718775510787964,0,0,0.6879600286483765
0.435118588,0,0,1.3718775510787964,0,0,0.4586400091648102
0.435450771,0,0,1.3718775510787964,0,0,0.8408399820327759
0.435803861,0,0,1.4508862495422363,0,0,0.8408399820327759
0.436117822,0,0,1.4508862495422363,0,0,0.9172800183296204
0.436489208,0,0,1.4508862495422363,0,0,0.9937199950218201
0.436785002,0,0,1.4508862495422363,0,0,0.8408399820327759
0.437117204,0,0,1.4508862495422363,0,0,0.9937199950218201
0.437453516,0,0,1.479616641998291,0,0,0.8408399820327759
0.437803458,0,0,1.479616641998291,0,0,1.1466000080108643
0.43811729,0,0,1.479616641998291,0,0,0.9937199950218201
0.438508972,0,0,1.479616641998291,0,0,2.2167599201202393
0.438785322,0,0,1.479616641998291,0,0,1.070159912109375
0.439117412,0,0,1.3670891523361206,0,0,0.611519992351532
0.439506336,0,0,1.3670891523361206,0,0,1.8345600366592407
0.439778612,0,0,1.3670891523361206,0,0,0.7644000053405762
0.440148591,0,0,1.3670891523361206,0,0,1.375920057296753
0.440444737,0,0,1.3670891523361206,0,0,1.223039984703064
0.44081203,0,0,1.3455413579940796,0,0,0.6879600286483765
0.441111565,0,0,1.3455413579940796,0,0,0.8408399820327759
0.44148147,0,0,1.3455413579940796,0,0,0.8408399820327759
0.441778394,0,0,1.3455413579940796,0,0,0.9172800183296204
0.442145021,0,0,1.3455413579940796,0,0,0.8408399820327759
0.442446075,0,0,1.4077905416488647,0,0,0.9172800183296204
0.442816091,0,0,1.4077905416488647,0,0,0.9172800183296204
0.443111737,0,0,1.4077905416488647,0,0,0.7644000053405762
0.443481642,0,0,1.4077905416488647,0,0,0.3822000026702881
0.443778918,0,0,1.4077905416488647,0,0,0.6879600286483765
0.444143545,0,0,1.3455413579940796,0,0,0.8408399820327759
0.444450228,0,0,1.3455413579940796,0,0,0.7644000053405762
0.444801762,0,0,1.3455413579940796,0,0,1.070159912109375
0.445111575,0,0,1.3455413579940796,0,0,0.9172800183296204
0.445465739,0,0,1.4269442558288574,0,0,0.9172800183296204
0.445778626,0,0,1.4269442558288574,0,0,0.5350799560546875
0.446130661,0,0,1.4269442558288574,0,0,0.9172800183296204
0.446445325,0,0,1.4269442558288574,0,0,0.6879600286483765
0.446806564,0,0,1.4269442558288574,0,0,0.6879600286483765
0.447111802,0,0,1.3527239561080933,0,0,0.6879600286483765
0.447466059,0,0,1.3527239561080933,0,0,0.2293200045824051
0.447778909,0,0,1.3527239561080933,0,0,1.070159912109375
0.448130721,0,0,1.3527239561080933,0,0,0.8408399820327759
0.448445256,0,0,1.3527239561080933,0,0,0.6879600286483765
0.448801587,0,0,1.2066776752471924,0,0,0.7644000053405762
0.449112455,0,0,1.2066776752471924,0,0,0.9172800183296204
0.449465434,0,0,1.2066776752471924,0,0,0.9172800183296204
0.449779191,0,0,1.2066776752471924,0,0,0.6879600286483765
0.450129708,0,0,1.2066776752471924,0,0,1.070159912109375
0.450445261,0,0,1.256955862045288,0,0,0.611519992351532
0.450811907,0,0,1.256955862045288,0,0,0
0.451111849,0,0,1.256955862045288,0,0,0.611519992351532
0.451467865,0,0,1.256955862045288,0,0,1.452359914779663
0.451778604,0,0,1.256955862045288,0,0,1.070159912109375
0.452132583,0,0,1.3048399686813354,0,0,0.5350799560546875
0.452445155,0,0,1.3048399686813354,0,0,0.611519992351532
0.452796319,0,0,1.3048399686813354,0,0,1.5288000106811523
0.453111984,0,0,1.3048399686813354,0,0,1.1466000080108643
0.453461333,0,0,1.3048399686813354,0,0,1.2994799613952637
0.453778516,0,0,1.4532804489135742,0,0,1.375920057296753
0.454128273,0,0,1.4532804489135742,0,0,0.4586400091648102
0.454445456,0,0,1.4532804489135742,0,0,1.1466000080108643
0.454799935,0,0,1.4532804489135742,0,0,0.8408399820327759
0.455111822,0,0,1.4532804489135742,0,0,0.6879600286483765
0.455461208,0,0,1.4724340438842773,0,0,0.7644000053405762
0.45577841,0,0,1.4724340438842773,0,0,0.7644000053405762
0.456127463,0,0,1.4724340438842773,0,0,0.9172800183296204
0.456444942,0,0,1.4724340438842773,0,0,0.9937199950218201
0.456793033,0,0,1.4724340438842773,0,0,0.7644000053405762
0.45711229,0,0,1.3982137441635132,0,0,0.7644000053405762
0.457461472,0,0,1.3982137441635132,0,0,0.6879600286483765
0.457778174,0,0,1.3982137441635132,0,0,0.8408399820327759
0.458128153,0,0,1.3982137441635132,0,0,0.8408399820327759
0.458444873,0,0,1.4867992401123047,0,0,0.6879600286483765
0.458799408,0,0,1.4867992401123047,0,0,0.7644000053405762
0.459112202,0,0,1.4867992401123047,0,0,0.8408399820327759
0.459464162,0,0,1.4867992401123047,0,0,0.9172800183296204
0.459778623,0,0,1.4867992401123047,0,0,0.6879600286483765
0.460130806,0,0,1.5418659448623657,0,0,0.9937199950218201
0.460445248,0,0,1.5418659448623657,0,0,0.7644000053405762
0.46079595,0,0,1.5418659448623657,0,0,1.070159912109375
0.461111744,0,0,1.5418659448623657,0,0,0.3822000026702881
0.461462575,0,0,1.5418659448623657,0,0,0.6879600286483765
0.461778313,0,0,1.357512354850769,0,0,0.3822000026702881
0.462129255,0,0,1.357512354850769,0,0,0.5350799560546875
0.462445679,0,0,1.357512354850769,0,0,0.305759996175766
0.462803714,0,0,1.357512354850769,0,0,1.070159912109375
0.463112138,0,0,1.357512354850769,0,0,0.9172800183296204
0.463467006,0,0,1.2689268589019775,0,0,0.4586400091648102
0.463778744,0,0,1.2689268589019775,0,0,0.9937199950218201
0.46413426,0,0,1.2689268589019775,0,0,0.3822000026702881
0.464445203,0,0,1.2689268589019775,0,0,1.1466000080108643
0.464799015,0,0,1.2689268589019775,0,0,0.3822000026702881
0.465115513,0,0,1.2425906658172607,0,0,0.611519992351532
0.465463436,0,0,1.2425906658172607,0,0,0.9172800183296204
0.465778453,0,0,1.2425906658172607,0,0,0.152879998087883
0.466128043,0,0,1.2425906658172607,0,0,2.06387996673584
0.466445152,0,0,1.2425906658172607,0,0,8.867039680480957
0.466797057,0,0,1.259350061416626,0,0,0.9172800183296204
0.467112036,0,0,1.259350061416626,0,0,1.223039984703064
0.467463108,0,0,1.259350061416626,0,0,1.223039984703064
0.467778624,0,0,1.259350061416626,0,0,1.070159912109375
0.468130455,0,0,1.259350061416626,0,0,0.611519992351532
0.468445064,0,0,1.2665326595306396,0,0,0.9172800183296204
0.468795117,0,0,1.2665326595306396,0,0,0.611519992351532
0.4691118,0,0,1.2665326595306396,0,0,0.6879600286483765
0.469461057,0,0,1.2665326595306396,0,0,1.1466000080108643
0.46978037,0,0,1.2665326595306396,0,0,0.8408399820327759
0.470127256,0,0,1.314416766166687,0,0,0.5350799560546875
0.470445439,0,0,1.314416766166687,0,0,0.8408399820327759
0.470795048,0,0,1.314416766166687,0,0,0.9172800183296204
0.471111972,0,0,1.314416766166687,0,0,0.9172800183296204
0.471463766,0,0,1.314416766166687,0,0,0.611519992351532
0.47177843,0,0,1.4724340438842773,0,0,0.611519992351532
0.472130983,0,0,1.4724340438842773,0,0,1.2994799613952637
0.472445833,0,0,1.4724340438842773,0,0,0.5350799560546875
0.472797109,0,0,1.4724340438842773,0,0,0.6879600286483765
0.473111662,0,0,1.4221558570861816,0,0,0.6879600286483765
0.473462011,0,0,1.4221558570861816,0,0,0.611519992351532
0.47377862,0,0,1.4221558570861816,0,0,0.8408399820327759
0.474128322,0,0,1.4221558570861816,0,0,0.2293200045824051
0.474445116,0,0,1.4221558570861816,0,0,0.9172800183296204
0.474795799,0,0,1.414973258972168,0,0,0.9172800183296204
0.475112148,0,0,1.414973258972168,0,0,0.7644000053405762
0.475466664,0,0,1.414973258972168,0,0,1.223039984703064
0.475778551,0,0,1.414973258972168,0,0,0.7644000053405762
0.476128604,0,0,1.414973258972168,0,0,0.7644000053405762
0.476445139,0,0,1.5131354331970215,0,0,1.1466000080108643
0.476795063,0,0,1.5131354331970215,0,0,0.8408399820327759
0.477112653,0,0,1.5131354331970215,0,0,0.2293200045824051
0.477463058,0,0,1.5131354331970215,0,0,1.9109998941421509
0.477779149,0,0,1.5131354331970215,0,0,0
0.478130702,0,0,1.4844050407409668,0,0,1.8345600366592407
0.478445014,0,0,1.4844050407409668,0,0,0.5350799560546875
0.478807068,0,0,1.4844050407409668,0,0,0.6879600286483765
0.479111899,0,0,1.4844050407409668,0,0,0.611519992351532
0.479466211,0,0,1.4844050407409668,0,0,0.611519992351532
0.479778357,0,0,1.2737152576446533,0,0,0.7644000053405762
0.480130984,0,0,1.2737152576446533,0,0,0.9172800183296204
0.480445075,0,0,1.2737152576446533,0,0,0.8408399820327759
0.480795591,0,0,1.2737152576446533,0,0,0.3822000026702881
0.481111589,0,0,1.2737152576446533,0,0,0.5350799560546875
0.481462012,0,0,1.3048399686813354,0,0,0.6879600286483765
0.48177864,0,0,1.3048399686813354,0,0,0.8408399820327759
0.482127749,0,0,1.3048399686813354,0,0,0
0.482445228,0,0,1.3048399686813354,0,0,0.611519992351532
0.482795781,0,0,1.3048399686813354,0,0,0.9937199950218201
0.483111742,0,0,1.235408067703247,0,0,0.611519992351532
0.483462739,0,0,1.235408067703247,0,0,0.6879600286483765
0.483778422,0,0,1.235408067703247,0,0,0.7644000053405762
0.484129253,0,0,1.235408067703247,0,0,0.611519992351532
0.484445918,0,0,1.235408067703247,0,0,0.611519992351532
0.484815156,0,0,1.2425906658172607,0,0,0.5350799560546875
0.485112302,0,0,1.2425906658172607,0,0,0.8408399820327759
0.485462448,0,0,1.2425906658172607,0,0,0.5350799560546875
0.485783131,0,0,1.2425906658172607,0,0,1.070159912109375
0.486129221,0,0,1.2425906658172607,0,0,0.3822000026702881
0.486445293,0,0,1.259350061416626,0,0,0.9172800183296204
0.48680605,0,0,1.259350061416626,0,0,0.9937199950218201
0.487111955,0,0,1.259350061416626,0,0,0.7644000053405762
0.487466657,0,0,1.259350061416626,0,0,0.152879998087883
0.487778488,0,0,1.316810965538025,0,0,0.5350799560546875
0.488131522,0,0,1.316810965538025,0,0,0.9172800183296204
0.488445354,0,0,1.316810965538025,0,0,0.7644000053405762
0.488795962,0,0,1.316810965538025,0,0,1.452359914779663
0.489111868,0,0,1.316810965538025,0,0,1.2994799613952637
0.489462236,0,0,1.4748282432556152,0,0,0.9937199950218201
0.489778289,0,0,1.4748282432556152,0,0,0.305759996175766
0.49012975,0,0,1.4748282432556152,0,0,0.152879998087883
0.490445155,0,0,1.4748282432556152,0,0,0.9172800183296204
0.490803652,0,0,1.4748282432556152,0,0,0.7644000053405762
0.491111743,0,0,1.4772224426269531,0,0,1.070159912109375
0.491466074,0,0,1.4772224426269531,0,0,1.070159912109375
0.491779405,0,0,1.4772224426269531,0,0,0.6879600286483765
0.492132588,0,0,1.4772224426269531,0,0,0.9937199950218201
0.492445104,0,0,1.4772224426269531,0,0,0.8408399820327759
0.492797935,0,0,1.434126853942871,0,0,0.9172800183296204
0.493112174,0,0,1.434126853942871,0,0,0.611519992351532
0.493461838,0,0,1.434126853942871,0,0,0.5350799560546875
0.493778317,0,0,1.434126853942871,0,0,0.8408399820327759
0.494127815,0,0,1.434126853942871,0,0,0.7644000053405762
0.494445553,0,0,1.5873557329177856,0,0,0.5350799560546875
0.494795551,0,0,1.5873557329177856,0,0,0.5350799560546875
0.495121864,0,0,1.5873557329177856,0,0,0.4586400091648102
0.495463158,0,0,1.5873557329177856,0,0,0.305759996175766
0.495778507,0,0,1.5873557329177856,0,0,0.6879600286483765
0.496133431,0,0,1.436521053314209,0,0,0.9172800183296204
0.49644554,0,0,1.436521053314209,0,0,0.9172800183296204
0.496795278,0,0,1.436521053314209,0,0,0.8408399820327759
0.497112109,0,0,1.436521053314209,0,0,0.6879600286483765
0.497461533,0,0,1.436521053314209,0,0,0.4586400091648102
0.497778753,0,0,1.3239935636520386,0,0,0.9172800183296204
0.498128213,0,0,1.3239935636520386,0,0,0.9937199950218201
0.498445174,0,0,1.3239935636520386,0,0,0.8408399820327759
0.498808635,0,0,1.3239935636520386,0,0,0.3822000026702881
0.49911267,0,0,1.3239935636520386,0,0,0.4586400091648102
0.499466723,0,0,1.3263877630233765,0,0,0.7644000053405762
0.499778239,0,0,1.3263877630233765,0,0,0.2293200045824051
0.500131515,0,0,1.3263877630233765,0,0,1.452359914779663
0.508129404,0,0,1.3263877630233765,0,0,0.7644000053405762
0.508248996,0,0,1.3263877630233765,0,0,0.7644000053405762
0.508286681,0,0,1.2282254695892334,0,0,0.7644000053405762
0.508323829,0,0,1.2282254695892334,0,0,0.8408399820327759
0.508360866,0,0,1.2282254695892334,0,0,0.8408399820327759
0.508440217,0,0,1.2282254695892334,0,0,0.8408399820327759
0.508479476,0,0,1.2737152576446533,0,0,0.8408399820327759
0.508516846,0,0,1.2737152576446533,0,0,0.8408399820327759
0.508553957,0,0,1.2737152576446533,0,0,0.8408399820327759
0.508590975,0,0,1.2737152576446533,0,0,0.8408399820327759
0.508668086,0,0,1.2737152576446533,0,0,-0.5350799560546875
0.508707993,0,0,1.2497732639312744,0,0,-0.5350799560546875
0.508768382,0,0,1.2497732639312744,0,0,-0.5350799560546875
0.508807678,0,0,1.2497732639312744,0,0,-0.5350799560546875
0.508892584,0,0,1.2497732639312744,0,0,-0.5350799560546875
0.508935399,0,0,1.2497732639312744,0,0,9.249239921569824
0.508972214,0,0,1.3862427473068237,0,0,1.1466000080108643
0.509009176,0,0,1.3862427473068237,0,0,1.1466000080108643
0.509054324,0,0,1.3862427473068237,0,0,1.1466000080108643
0.509138194,0,0,1.3862427473068237,0,0,1.1466000080108643
0.509177694,0,0,1.3862427473068237,0,0,1.1466000080108643
0.509215027,0,0,1.4676456451416016,0,0,1.1466000080108643
0.509252082,0,0,1.4676456451416016,0,0,1.1466000080108643
0.509289137,0,0,1.4676456451416016,0,0,3.592679977416992
0.509375489,0,0,1.4676456451416016,0,0,3.592679977416992
0.509413248,0,0,1.4676456451416016,0,0,3.592679977416992
0.509450358,0,0,1.3766659498214722,0,0,3.592679977416992
0.509487617,0,0,1.3766659498214722,0,0,0.152879998087883
0.509935318,0,0,1.3766659498214722,0,0,2.904719829559326
0.510154613,0,0,1.3766659498214722,0,0,0.7644000053405762
0.510445296,0,0,1.3766659498214722,0,0,0.6879600286483765
0.510781553,0,0,1.3263877630233765,0,0,0.8408399820327759
0.511113032,0,0,1.3263877630233765,0,0,0.0764399990439415
0.511443345,0,0,1.3263877630233765,0,0,0.6879600286483765
0.511776991,0,0,1.3263877630233765,0,0,0.6879600286483765
0.512144951,0,0,1.3263877630233765,0,0,1.070159912109375
0.51244356,0,0,1.4245500564575195,0,0,1.2994799613952637
0.51281165,0,0,1.4245500564575195,0,0,0.4586400091648102
0.513110074,0,0,1.4245500564575195,0,0,0.9172800183296204
0.513478368,0,0,1.4245500564575195,0,0,0.4586400091648102
0.513777366,0,0,1.403002142906189,0,0,0.9172800183296204
0.514142715,0,0,1.403002142906189,0,0,0.611519992351532
0.514444769,0,0,1.403002142906189,0,0,1.8345600366592407
0.514779081,0,0,1.403002142906189,0,0,0.611519992351532
0.515109672,0,0,1.403002142906189,0,0,1.452359914779663
0.515442743,0,0,1.3479355573654175,0,0,1.070159912109375
0.515776223,0,0,1.3479355573654175,0,0,0.4586400091648102
0.516145424,0,0,1.3479355573654175,0,0,0.6879600286483765
0.516443459,0,0,1.3479355573654175,0,0,0.5350799560546875
0.516813271,0,0,1.3479355573654175,0,0,0.611519992351532
0.517110158,0,0,1.316810965538025,0,0,0.5350799560546875
0.51747897,0,0,1.316810965538025,0,0,0.6879600286483765
0.517776672,0,0,1.316810965538025,0,0,0.7644000053405762
0.518145132,0,0,1.316810965538025,0,0,1.070159912109375
0.518442927,0,0,1.316810965538025,0,0,1.070159912109375
0.518810183,0,0,1.3024457693099976,0,0,0.5350799560546875
0.519109515,0,0,1.3024457693099976,0,0,0.5350799560546875
0.519479716,0,0,1.3024457693099976,0,0,0.611519992351532
0.519776584,0,0,1.3024457693099976,0,0,1.070159912109375
0.520136637,0,0,1.2617442607879639,0,0,0.4586400091648102
0.520443135,0,0,1.2617442607879639,0,0,0.9172800183296204
0.520795133,0,0,1.2617442607879639,0,0,0.8408399820327759
0.521110279,0,0,1.2617442607879639,0,0,0.6879600286483765
0.521456702,0,0,1.1827356815338135,0,0,0.9172800183296204
0.521775997,0,0,1.1827356815338135,0,0,0.6879600286483765
0.522118791,0,0,1.1827356815338135,0,0,1.223039984703064
0.522442696,0,0,1.1827356815338135,0,0,0.7644000053405762
0.522782638,0,0,1.2737152576446533,0,0,0.6879600286483765
0.523109839,0,0,1.2737152576446533,0,0,0.8408399820327759
0.523444374,0,0,1.2737152576446533,0,0,1.070159912109375
0.523776631,0,0,1.2737152576446533,0,0,1.223039984703064
0.524109481,0,0,1.4628572463989258,0,0,0.9172800183296204
0.52444296,0,0,1.4628572463989258,0,0,0.7644000053405762
0.524776161,0,0,1.4628572463989258,0,0,0.9937199950218201
0.525442064,0,0,1.4628572463989258,0,0,0.9172800183296204
0.525853765,0,0,1.4628572463989258,0,0,0.3822000026702881
0.526118689,0,0,1.4077905416488647,0,0,0.3822000026702881
0.526198689,0,0,1.4077905416488647,0,0,1.223039984703064
0.526483187,0,0,1.4077905416488647,0,0,0
0.52678237,0,0,1.4077905416488647,0,0,0.3822000026702881
0.527148219,0,0,1.3838485479354858,0,0,0.611519992351532
0.528088583,0,0,1.3838485479354858,0,0,0.7644000053405762
0.528128175,0,0,1.3838485479354858,0,0,0.7644000053405762
0.528165194,0,0,1.3838485479354858,0,0,0.7644000053405762
0.528450173,0,0,1.5610195398330688,0,0,0.7644000053405762
0.528779041,0,0,1.5610195398330688,0,0,1.070159912109375
0.529112039,0,0,1.5610195398330688,0,0,0.6879600286483765
0.529445352,0,0,1.5610195398330688,0,0,0.6879600286483765
0.529815571,0,0,1.335964560508728,0,0,0.5350799560546875
0.530112717,0,0,1.335964560508728,0,0,0.611519992351532
0.530481474,0,0,1.335964560508728,0,0,0.6879600286483765
0.530777268,0,0,1.335964560508728,0,0,0.7644000053405762
0.531141859,0,0,1.2737152576446533,0,0,0.9937199950218201
0.531443153,0,0,1.2737152576446533,0,0,0.611519992351532
0.531813095,0,0,1.2737152576446533,0,0,0.6879600286483765
0.532109945,0,0,1.2737152576446533,0,0,0.9172800183296204
0.532472812,0,0,1.3000515699386597,0,0,0.9172800183296204
0.532776551,0,0,1.3000515699386597,0,0,0.9937199950218201
0.533142456,0,0,1.3000515699386597,0,0,0.6879600286483765
0.533443158,0,0,1.3000515699386597,0,0,0.6879600286483765
0.533800433,0,0,1.3000515699386597,0,0,0.3822000026702881
0.534109542,0,0,1.213860273361206,0,0,0.9172800183296204
0.534460688,0,0,1.213860273361206,0,0,0.9172800183296204
0.534780649,0,0,1.213860273361206,0,0,1.1466000080108643
0.535127591,0,0,1.213860273361206,0,0,0.8408399820327759
0.535446014,0,0,1.3120225667953491,0,0,0.6879600286483765
0.535793975,0,0,1.3120225667953491,0,0,0.9937199950218201
0.536112565,0,0,1.3120225667953491,0,0,0.4586400091648102
0.536459711,0,0,1.3120225667953491,0,0,0.7644000053405762
0.536779098,0,0,1.278503656387329,0,0,0.2293200045824051
0.537126077,0,0,1.278503656387329,0,0,0.611519992351532
0.537450575,0,0,1.278503656387329,0,0,0.4586400091648102
0.53779211,0,0,1.278503656387329,0,0,0.9172800183296204
0.538114478,0,0,1.3551181554794312,0,0,0.305759996175766
0.538445105,0,0,1.3551181554794312,0,0,0
0.538776195,0,0,1.3551181554794312,0,0,1.1466000080108643
0.539109749,0,0,1.3551181554794312,0,0,0.6879600286483765
0.539475987,0,0,1.4939818382263184,0,0,0.6879600286483765
0.539809633,0,0,1.4939818382263184,0,0,0.9172800183296204
0.540171556,0,0,1.4939818382263184,0,0,0.5350799560546875
0.540448925,0,0,1.4939818382263184,0,0,0.3822000026702881
0.540797256,0,0,1.4508862495422363,0,0,0.611519992351532
0.541116031,0,0,1.4508862495422363,0,0,0.9172800183296204
0.541488825,0,0,1.4508862495422363,0,0,0.6879600286483765
0.541782527,0,0,1.4508862495422363,0,0,0.611519992351532
0.542116395,0,0,1.3766659498214722,0,0,0.7644000053405762
0.542466392,0,0,1.3766659498214722,0,0,0.9172800183296204
0.542785668,0,0,1.3766659498214722,0,0,0.7644000053405762
0.543159351,0,0,1.3766659498214722,0,0,0.9172800183296204
0.54345196,0,0,1.3766659498214722,0,0,0.4586400091648102
0.543784569,0,0,1.5179238319396973,0,0,0.9172800183296204
0.544141714,0,0,1.5179238319396973,0,0,0.611519992351532
0.544451657,0,0,1.5179238319396973,0,0,0.6879600286483765
0.54482295,0,0,1.5179238319396973,0,0,0.7644000053405762
0.545118948,0,0,1.3000515699386597,0,0,0.7644000053405762
0.545451279,0,0,1.3000515699386597,0,0,1.070159912109375
0.545810184,0,0,1.3000515699386597,0,0,0.5350799560546875
0.546118701,0,0,1.3000515699386597,0,0,0.9172800183296204
0.546490439,0,0,1.2210428714752197,0,0,0.305759996175766
0.546789344,0,0,1.2210428714752197,0,0,0.7644000053405762
0.54713599,0,0,1.2210428714752197,0,0,1.070159912109375
0.547481821,0,0,1.2210428714752197,0,0,1.1466000080108643
0.547789208,0,0,1.259350061416626,0,0,0.9172800183296204
0.548158668,0,0,1.259350061416626,0,0,0.9937199950218201
0.548450166,0,0,1.259350061416626,0,0,0.9172800183296204
0.548785146,0,0,1.259350061416626,0,0,0.6879600286483765
0.549155365,0,0,1.2497732639312744,0,0,0.0764399990439415
0.549451956,0,0,1.2497732639312744,0,0,-0.611519992351532
0.549785065,0,0,1.2497732639312744,0,0,1.9109998941421509
0.550123859,0,0,1.2497732639312744,0,0,0.8408399820327759
0.550452634,0,0,1.314416766166687,0,0,0.9937199950218201
0.55082578,0,0,1.314416766166687,0,0,0.9937199950218201
0.551118722,0,0,1.314416766166687,0,0,0.8408399820327759
0.551451405,0,0,1.314416766166687,0,0,0.4586400091648102
0.551804051,0,0,1.314416766166687,0,0,-9.325679779052734
0.55212916,0,0,1.3048399686813354,0,0,0.8408399820327759
0.55248625,0,0,1.3048399686813354,0,0,0.4586400091648102
0.5527851,0,0,1.3048399686813354,0,0,0.7644000053405762
0.553118098,0,0,1.3048399686813354,0,0,1.1466000080108643
0.553476928,0,0,1.381454348564148,0,0,0.6879600286483765
0.553785315,0,0,1.381454348564148,0,0,0.8408399820327759
0.554157016,0,0,1.381454348564148,0,0,0.611519992351532
0.554455292,0,0,1.381454348564148,0,0,0.7644000053405762
0.554784864,0,0,1.3958195447921753,0,0,0.6879600286483765
0.555149324,0,0,1.3958195447921753,0,0,0.5350799560546875
0.555451915,0,0,1.3958195447921753,0,0,0.9172800183296204
0.555825209,0,0,1.3958195447921753,0,0,0.8408399820327759
0.55611917,0,0,1.3479355573654175,0,0,1.223039984703064
0.556451723,0,0,1.3479355573654175,0,0,0.8408399820327759
0.556821517,0,0,1.3479355573654175,0,0,1.1466000080108643
0.557118367,0,0,1.3479355573654175,0,0,0.7644000053405762
0.557451716,0,0,1.4652514457702637,0,0,0.9937199950218201
0.557788343,0,0,1.4652514457702637,0,0,0.7644000053405762
0.558122267,0,0,1.4652514457702637,0,0,0.9937199950218201
0.558490098,0,0,1.4652514457702637,0,0,0.8408399820327759
0.558785189,0,0,1.50355863571167,0,0,0.4586400091648102
0.559117964,0,0,1.50355863571167,0,0,0.6879600286483765
0.559471017,0,0,1.50355863571167,0,0,0.611519992351532
0.559899588,0,0,1.50355863571167,0,0,1.5288000106811523
0.560154938,0,0,1.50355863571167,0,0,0.7644000053405762
0.560456492,0,0,1.3096283674240112,0,0,0.7644000053405762
0.560793804,0,0,1.3096283674240112,0,0,0.7644000053405762
0.561145043,0,0,1.3096283674240112,0,0,0.9937199950218201
0.561666484,0,0,1.3096283674240112,0,0,0.9937199950218201
0.561706983,0,0,1.3215993642807007,0,0,1.1466000080108643
0.56215598,0,0,1.3215993642807007,0,0,0.6879600286483765
0.562679884,0,0,1.3215993642807007,0,0,0.6879600286483765
0.562721125,0,0,1.3215993642807007,0,0,0.7644000053405762
0.563177084,0,0,1.2497732639312744,0,0,0.7644000053405762
0.563457434,0,0,1.2497732639312744,0,0,1.070159912109375
0.56378571,0,0,1.2497732639312744,0,0,0.9172800183296204
0.564135356,0,0,1.2497732639312744,0,0,0.9172800183296204
0.564452317,0,0,1.213860273361206,0,0,0.8408399820327759
0.564825351,0,0,1.213860273361206,0,0,0.8408399820327759
0.565126275,0,0,1.213860273361206,0,0,0.611519992351532
0.565651308,0,0,1.213860273361206,0,0,0.9937199950218201
0.565830566,0,0,1.3527239561080933,0,0,0.6879600286483765
0.566121935,0,0,1.3527239561080933,0,0,0.9172800183296204
0.566451914,0,0,1.3527239561080933,0,0,1.070159912109375
0.566893078,0,0,1.3527239561080933,0,0,0.6879600286483765
0.567137206,0,0,1.2617442607879639,0,0,0.611519992351532
0.567451852,0,0,1.2617442607879639,0,0,0.8408399820327759
0.567821275,0,0,1.2617442607879639,0,0,0.8408399820327759
0.568118532,0,0,1.2617442607879639,0,0,0.9937199950218201
0.568479919,0,0,1.2617442607879639,0,0,0.4586400091648102
0.568811953,0,0,1.4389152526855469,0,0,0.5350799560546875
0.569118174,0,0,1.4389152526855469,0,0,0.611519992351532
0.569492708,0,0,1.4389152526855469,0,0,0.8408399820327759
0.569789391,0,0,1.4389152526855469,0,0,0.6879600286483765
0.570117667,0,0,1.400607943534851,0,0,0.8408399820327759
0.570481683,0,0,1.400607943534851,0,0,0.611519992351532
0.570784533,0,0,1.400607943534851,0,0,0.611519992351532
0.57111816,0,0,1.400607943534851,0,0,0.8408399820327759
0.571457769,0,0,1.3862427473068237,0,0,0.5350799560546875
0.571785229,0,0,1.3862427473068237,0,0,1.605239987373352
0.572159116,0,0,1.3862427473068237,0,0,1.2994799613952637
0.572451577,0,0,1.3862427473068237,0,0,0.611519992351532
0.572784574,0,0,1.3742717504501343,0,0,0.6879600286483765
0.57313885,0,0,1.3742717504501343,0,0,0.3822000026702881
0.573451218,0,0,1.3742717504501343,0,0,0.6879600286483765
0.573820864,0,0,1.3742717504501343,0,0,0.6879600286483765
0.57411801,0,0,1.4413094520568848,0,0,1.5288000106811523
0.574451026,0,0,1.4413094520568848,0,0,0.4586400091648102
0.574811709,0,0,1.4413094520568848,0,0,0.8408399820327759
0.575118096,0,0,1.4413094520568848,0,0,1.223039984703064
0.575489649,0,0,1.3335703611373901,0,0,0.3822000026702881
0.575781017,0,0,1.3335703611373901,0,0,2.446079969406128
0.576117811,0,0,1.3335703611373901,0,0,0.9937199950218201
0.576481568,0,0,1.3335703611373901,0,0,0.9937199950218201
0.576784677,0,0,1.3335703611373901,0,0,0.611519992351532
0.577157415,0,0,1.3479355573654175,0,0,0.9172800183296204
0.577450857,0,0,1.3479355573654175,0,0,1.1466000080108643
0.577785189,0,0,1.3479355573654175,0,0,0.8408399820327759
0.578153575,0,0,1.3479355573654175,0,0,0.9172800183296204
0.578451258,0,0,1.2497732639312744,0,0,0.611519992351532
0.578789256,0,0,1.2497732639312744,0,0,0.611519992351532
0.579154846,0,0,1.2497732639312744,0,0,0.4586400091648102
0.579451529,0,0,1.2497732639312744,0,0,0.7644000053405762
0.579824175,0,0,1.1803414821624756,0,0,1.1466000080108643
0.580117821,0,0,1.1803414821624756,0,0,0.9937199950218201
0.580451244,0,0,1.1803414821624756,0,0,0.9937199950218201
0.580789687,0,0,1.1803414821624756,0,0,0.6879600286483765
0.581118073,0,0,1.173158884048462,0,0,0.6879600286483765
0.581491256,0,0,1.173158884048462,0,0,0.3822000026702881
0.58178455,0,0,1.173158884048462,0,0,0.5350799560546875
0.582117474,0,0,1.173158884048462,0,0,0.611519992351532
0.582471157,0,0,1.3024457693099976,0,0,1.2994799613952637
0.582784877,0,0,1.3024457693099976,0,0,0.6879600286483765
0.58315293,0,0,1.3024457693099976,0,0,1.2994799613952637
0.583451335,0,0,1.3024457693099976,0,0,1.1466000080108643
0.583784111,0,0,1.3024457693099976,0,0,0.5350799560546875
0.584144441,0,0,1.4652514457702637,0,0,-0.611519992351532
0.584451328,0,0,1.4652514457702637,0,0,0.7644000053405762
0.584822955,0,0,1.4652514457702637,0,0,0.5350799560546875
0.585115768,0,0,1.4652514457702637,0,0,0.5350799560546875
0.585450803,0,0,1.4484920501708984,0,0,1.6816799640655518
0.585818004,0,0,1.4484920501708984,0,0,1.452359914779663
0.586118854,0,0,1.4484920501708984,0,0,0.5350799560546875
0.586451259,0,0,1.4484920501708984,0,0,0.9172800183296204
0.586820738,0,0,1.359906554222107,0,0,-0.2293200045824051
0.587117421,0,0,1.359906554222107,0,0,0.6879600286483765
0.587487493,0,0,1.359906554222107,0,0,0.8408399820327759
0.587784713,0,0,1.359906554222107,0,0,1.6816799640655518
0.588117655,0,0,1.4508862495422363,0,0,9.631440162658691
0.588456968,0,0,1.4508862495422363,0,0,0.9937199950218201
0.588784725,0,0,1.4508862495422363,0,0,0.9937199950218201
0.589161741,0,0,1.4508862495422363,0,0,0.5350799560546875
0.58945159,0,0,1.359906554222107,0,0,0.7644000053405762
0.589795218,0,0,1.359906554222107,0,0,0.5350799560546875
0.590141141,0,0,1.359906554222107,0,0,0.611519992351532
0.590450972,0,0,1.359906554222107,0,0,0.6879600286483765
0.590823581,0,0,1.3024457693099976,0,0,0.611519992351532
0.59112019,0,0,1.3024457693099976,0,0,0.5350799560546875
0.591451317,0,0,1.3024457693099976,0,0,0.7644000053405762
0.591813297,0,0,1.3024457693099976,0,0,0.7644000053405762
0.592117998,0,0,1.3024457693099976,0,0,0.3822000026702881
0.592490496,0,0,1.2617442607879639,0,0,0.7644000053405762
0.59278116,0,0,1.2617442607879639,0,0,0.611519992351532
0.593117639,0,0,1.2617442607879639,0,0,0.7644000053405762
0.593487044,0,0,1.2617442607879639,0,0,0.9172800183296204
0.593784357,0,0,1.3263877630233765,0,0,1.070159912109375
0.59411767,0,0,1.3263877630233765,0,0,0.9937199950218201
0.594487908,0,0,1.3263877630233765,0,0,0.611519992351532
0.594784221,0,0,1.3263877630233765,0,0,0.5350799560546875
0.595154477,0,0,1.2689268589019775,0,0,0.5350799560546875
0.595451105,0,0,1.2689268589019775,0,0,0.7644000053405762
0.595784436,0,0,1.2689268589019775,0,0,0.0764399990439415
0.5961226,0,0,1.2689268589019775,0,0,0.9172800183296204
0.596451617,0,0,1.2737152576446533,0,0,0.8408399820327759
0.59682417,0,0,1.2737152576446533,0,0,0.7644000053405762
0.597117927,0,0,1.2737152576446533,0,0,1.1466000080108643
0.597450851,0,0,1.2737152576446533,0,0,0.4586400091648102
0.597804422,0,0,1.357512354850769,0,0,0.7644000053405762
0.598117476,0,0,1.357512354850769,0,0,0.8408399820327759
0.598485603,0,0,1.357512354850769,0,0,-0.4586400091648102
0.598782638,0,0,1.357512354850769,0,0,0.6879600286483765
0.599114932,0,0,1.556231141090393,0,0,0
0.599475392,0,0,1.556231141090393,0,0,0.0764399990439415
0.599782705,0,0,1.556231141090393,0,0,0.152879998087883
0.600149591,0,0,1.556231141090393,0,0,1.070159912109375
0.600448756,0,0,1.4676456451416016,0,0,1.070159912109375
0.600782902,0,0,1.4676456451416016,0,0,0.7644000053405762
0.601138418,0,0,1.4676456451416016,0,0,0.5350799560546875
0.601448583,0,0,1.4676456451416016,0,0,0.611519992351532
0.601817432,0,0,1.4221558570861816,0,0,0.9172800183296204
0.602115652,0,0,1.4221558570861816,0,0,0.8408399820327759
0.602448242,0,0,1.4221558570861816,0,0,0.6879600286483765
0.602809184,0,0,1.4221558570861816,0,0,0.9937199950218201
0.603118312,0,0,1.4221558570861816,0,0,0.8408399820327759
0.603490569,0,0,1.3910311460494995,0,0,0.6879600286483765
0.603787067,0,0,1.3910311460494995,0,0,0.6879600286483765
0.604117564,0,0,1.3910311460494995,0,0,0.7644000053405762
0.604480247,0,0,1.3910311460494995,0,0,0.8408399820327759
0.604784393,0,0,1.3431471586227417,0,0,0.9172800183296204
0.605156909,0,0,1.3431471586227417,0,0,0.9172800183296204
0.605448315,0,0,1.3431471586227417,0,0,0.611519992351532
0.60578409,0,0,1.3431471586227417,0,0,0.4586400091648102
0.606150051,0,0,1.3024457693099976,0,0,0.6879600286483765
0.606451252,0,0,1.3024457693099976,0,0,0.611519992351532
0.60682399,0,0,1.3024457693099976,0,0,0.9172800183296204
0.607116396,0,0,1.3024457693099976,0,0,0.5350799560546875
0.607450894,0,0,1.3239935636520386,0,0,1.452359914779663
0.607820687,0,0,1.3239935636520386,0,0,0.9172800183296204
0.608118833,0,0,1.3239935636520386,0,0,0.4586400091648102
0.608450702,0,0,1.3239935636520386,0,0,0.9937199950218201
0.608792995,0,0,1.259350061416626,0,0,0.7644000053405762
0.609136364,0,0,1.259350061416626,0,0,0.9172800183296204
0.609496102,0,0,1.259350061416626,0,0,-0.5350799560546875
0.609790785,0,0,1.259350061416626,0,0,0.8408399820327759
0.610119116,0,0,1.2617442607879639,0,0,0.152879998087883
0.610488725,0,0,1.2617442607879639,0,0,0.2293200045824051
0.610786741,0,0,1.2617442607879639,0,0,1.070159912109375
0.611134868,0,0,1.2617442607879639,0,0,0
0.611473811,0,0,1.235408067703247,0,0,2.06387996673584
0.611784716,0,0,1.235408067703247,0,0,0.9937199950218201
0.61215851,0,0,1.235408067703247,0,0,0.8408399820327759
0.612452822,0,0,1.235408067703247,0,0,0.4586400091648102
0.612784672,0,0,1.235408067703247,0,0,0.7644000053405762
0.613580685,0,0,1.3623007535934448,0,0,0.9172800183296204
0.613628851,0,0,1.3623007535934448,0,0,0.9172800183296204
0.61383635,0,0,1.3623007535934448,0,0,0.8408399820327759
0.614122718,0,0,1.3623007535934448,0,0,0.7644000053405762
0.614461253,0,0,1.50355863571167,0,0,0.6879600286483765
0.614837732,0,0,1.50355863571167,0,0,0.8408399820327759
0.615122767,0,0,1.50355863571167,0,0,0.9172800183296204
0.615702189,0,0,1.50355863571167,0,0,0.9172800183296204
0.615742781,0,0,1.4197616577148438,0,0,0.9937199950218201
0.616158686,0,0,1.4197616577148438,0,0,0.611519992351532
0.616451832,0,0,1.4197616577148438,0,0,0.8408399820327759
0.616784274,0,0,1.4197616577148438,0,0,1.070159912109375
0.617140216,0,0,1.3694833517074585,0,0,0.5350799560546875
0.617451122,0,0,1.3694833517074585,0,0,0.611519992351532
0.617822989,0,0,1.3694833517074585,0,0,0.9172800183296204
0.61811921,0,0,1.3694833517074585,0,0,0.9172800183296204
0.618451152,0,0,1.5131354331970215,0,0,0.9172800183296204
0.618827409,0,0,1.5131354331970215,0,0,1.070159912109375
0.619118444,0,0,1.5131354331970215,0,0,1.1466000080108643
0.619450997,0,0,1.5131354331970215,0,0,0.611519992351532
0.619809272,0,0,1.3311761617660522,0,0,0.6879600286483765
0.620124844,0,0,1.3311761617660522,0,0,0.3822000026702881
0.620490397,0,0,1.3311761617660522,0,0,0.8408399820327759
0.62078934,0,0,1.3311761617660522,0,0,0.8408399820327759
0.621117337,0,0,1.3311761617660522,0,0,1.375920057296753
0.621480502,0,0,1.335964560508728,0,0,0.611519992351532
0.621785148,0,0,1.335964560508728,0,0,1.6816799640655518
0.622157293,0,0,1.335964560508728,0,0,1.1466000080108643
0.622449884,0,0,1.335964560508728,0,0,0.4586400091648102
0.622784141,0,0,1.2641384601593018,0,0,0.8408399820327759
0.623154638,0,0,1.2641384601593018,0,0,0.8408399820327759
0.623451618,0,0,1.2641384601593018,0,0,0.6879600286483765
0.623784301,0,0,1.2641384601593018,0,0,-0.611519992351532
0.624125002,0,0,1.2473790645599365,0,0,1.375920057296753
0.624451055,0,0,1.2473790645599365,0,0,-9.019920349121094
0.624824923,0,0,1.2473790645599365,0,0,9.554999351501465
0.625117625,0,0,1.2473790645599365,0,0,0.6879600286483765
0.625450697,0,0,1.3215993642807007,0,0,0.8408399820327759
0.625805287,0,0,1.3215993642807007,0,0,0.9172800183296204
0.626117803,0,0,1.3215993642807007,0,0,0.9172800183296204
0.626489801,0,0,1.3215993642807007,0,0,0.6879600286483765
0.626782706,0,0,1.2330138683319092,0,0,0.3822000026702881
0.62711763,0,0,1.2330138683319092,0,0,0.4586400091648102
0.62748709,0,0,1.2330138683319092,0,0,0.5350799560546875
0.627784496,0,0,1.2330138683319092,0,0,0.611519992351532
0.628118308,0,0,1.460463047027588,0,0,0.5350799560546875
0.628454139,0,0,1.460463047027588,0,0,0.7644000053405762
0.628784544,0,0,1.460463047027588,0,0,1.070159912109375
0.629158968,0,0,1.460463047027588,0,0,0.4586400091648102
0.629450966,0,0,1.482010841369629,0,0,0.8408399820327759
0.629784408,0,0,1.482010841369629,0,0,0.611519992351532
0.630138905,0,0,1.482010841369629,0,0,0.7644000053405762
0.630455348,0,0,1.482010841369629,0,0,0.8408399820327759
0.630825308,0,0,1.3215993642807007,0,0,0.305759996175766
0.631121769,0,0,1.3215993642807007,0,0,1.375920057296753
0.631450952,0,0,1.3215993642807007,0,0,0.9172800183296204
0.631814672,0,0,1.3215993642807007,0,0,0.2293200045824051
0.632117707,0,0,1.4532804489135742,0,0,0
0.632511593,0,0,1.4532804489135742,0,0,1.223039984703064
0.632785387,0,0,1.4532804489135742,0,0,0.6879600286483765
0.633117441,0,0,1.4532804489135742,0,0,0.305759996175766
0.633487438,0,0,1.4532804489135742,0,0,0.611519992351532
0.633784677,0,0,1.5298948287963867,0,0,0.611519992351532
0.634117489,0,0,1.5298948287963867,0,0,0.7644000053405762
0.634457265,0,0,1.5298948287963867,0,0,0.2293200045824051
0.634784707,0,0,1.5298948287963867,0,0,1.2994799613952637
0.635158167,0,0,1.3527239561080933,0,0,0.5350799560546875
0.63545098,0,0,1.3527239561080933,0,0,0.611519992351532
0.635784071,0,0,1.3527239561080933,0,0,1.2994799613952637
0.636138068,0,0,1.3527239561080933,0,0,0.3822000026702881
0.636451918,0,0,1.2737152576446533,0,0,0.6879600286483765
0.636819638,0,0,1.2737152576446533,0,0,0.6879600286483765
0.637118043,0,0,1.2737152576446533,0,0,0.9937199950218201
0.637450818,0,0,1.2737152576446533,0,0,0.611519992351532
0.637809853,0,0,1.290474772453308,0,0,0.8408399820327759
0.638117869,0,0,1.290474772453308,0,0,0.3822000026702881
0.638490941,0,0,1.290474772453308,0,0,0.4586400091648102
0.63878542,0,0,1.290474772453308,0,0,0.8408399820327759
0.639117937,0,0,1.1779472827911377,0,0,0.5350799560546875
0.639486249,0,0,1.1779472827911377,0,0,0.8408399820327759
0.639784654,0,0,1.1779472827911377,0,0,0.6879600286483765
0.640117671,0,0,1.1779472827911377,0,0,0.9172800183296204
0.640444965,0,0,1.3120225667953491,0,0,0.8408399820327759
0.640783148,0,0,1.3120225667953491,0,0,0.8408399820327759
0.641111719,0,0,1.3120225667953491,0,0,0.6879600286483765
0.641444958,0,0,1.3120225667953491,0,0,0.5350799560546875
0.641779993,0,0,1.3120225667953491,0,0,0.611519992351532
0.642111305,0,0,1.3718775510787964,0,0,0.6879600286483765
0.642444321,0,0,1.3718775510787964,0,0,0.9937199950218201
0.642779134,0,0,1.3718775510787964,0,0,0.9172800183296204
0.643111428,0,0,1.3718775510787964,0,0,0.611519992351532
0.643445166,0,0,1.4389152526855469,0,0,0.7644000053405762
0.643812331,0,0,1.4389152526855469,0,0,1.2994799613952637
0.644146162,0,0,1.4389152526855469,0,0,0.7644000053405762
0.644445011,0,0,1.4389152526855469,0,0,0.4586400091648102
0.644811898,0,0,1.436521053314209,0,0,1.070159912109375
0.645111988,0,0,1.436521053314209,0,0,0.9172800183296204
0.645481653,0,0,1.436521053314209,0,0,1.6816799640655518
0.645778317,0,0,1.436521053314209,0,0,1.375920057296753
0.646148333,0,0,1.403002142906189,0,0,0.4586400091648102
0.646444979,0,0,1.403002142906189,0,0,0.6879600286483765
0.646813958,0,0,1.403002142906189,0,0,0.9172800183296204
0.647111845,0,0,1.403002142906189,0,0,1.223039984703064
0.647483213,0,0,1.37906014919281,0,0,0.6879600286483765
0.647783155,0,0,1.37906014919281,0,0,0.5350799560546875
0.648154468,0,0,1.37906014919281,0,0,0.9172800183296204
0.648447836,0,0,1.37906014919281,0,0,0.8408399820327759
0.648821352,0,0,1.45806884765625,0,0,0.6879600286483765
0.649346367,0,0,1.45806884765625,0,0,0.6879600286483765
0.649384052,0,0,1.45806884765625,0,0,0.5350799560546875
0.649788364,0,0,1.45806884765625,0,0,0.8408399820327759
0.650117436,0,0,1.45806884765625,0,0,0.9172800183296204
0.650498692,0,0,1.3503297567367554,0,0,0.3822000026702881
0.650782413,0,0,1.3503297567367554,0,0,0.9172800183296204
0.651148206,0,0,1.3503297567367554,0,0,0.8408399820327759
0.651443316,0,0,1.3503297567367554,0,0,0.8408399820327759
0.651797869,0,0,1.2856862545013428,0,0,0.7644000053405762
0.652109163,0,0,1.2856862545013428,0,0,0.8408399820327759
0.652465438,0,0,1.2856862545013428,0,0,0.9172800183296204
0.652776121,0,0,1.2856862545013428,0,0,0.6879600286483765
0.653125471,0,0,1.3287819623947144,0,0,0.9172800183296204
0.65344282,0,0,1.3287819623947144,0,0,0.9172800183296204
0.653809022,0,0,1.3287819623947144,0,0,0.9172800183296204
0.654109464,0,0,1.3287819623947144,0,0,1.223039984703064
0.654451314,0,0,1.1971008777618408,0,0,1.070159912109375
0.654776478,0,0,1.1971008777618408,0,0,1.070159912109375
0.65511305,0,0,1.1971008777618408,0,0,0.8408399820327759
0.655442788,0,0,1.1971008777618408,0,0,0.8408399820327759
0.655777693,0,0,1.3670891523361206,0,0,0.611519992351532
0.656109136,0,0,1.3670891523361206,0,0,1.452359914779663
0.656442281,0,0,1.3670891523361206,0,0,0.9937199950218201
0.656775761,0,0,1.3670891523361206,0,0,0.611519992351532
0.657109036,0,0,1.3694833517074585,0,0,0.9172800183296204
0.657478478,0,0,1.3694833517074585,0,0,0.0764399990439415
0.657776032,0,0,1.3694833517074585,0,0,1.070159912109375
0.658145103,0,0,1.3694833517074585,0,0,1.2994799613952637
0.658443712,0,0,1.3694833517074585,0,0,1.5288000106811523
0.658813913,0,0,1.414973258972168,0,0,0.6879600286483765
0.659109856,0,0,1.414973258972168,0,0,1.223039984703064
0.659479779,0,0,1.414973258972168,0,0,0.7644000053405762
0.659776888,0,0,1.414973258972168,0,0,0.305759996175766
0.660145127,0,0,1.4389152526855469,0,0,0.6879600286483765
0.660442921,0,0,1.4389152526855469,0,0,9.554999351501465
0.660812659,0,0,1.4389152526855469,0,0,0.8408399820327759
0.661109824,0,0,1.4389152526855469,0,0,0.9937199950218201
0.661481895,0,0,1.4389152526855469,0,0,0.9937199950218201
0.661776597,0,0,1.3479355573654175,0,0,0.7644000053405762
0.66213815,0,0,1.3479355573654175,0,0,0.6879600286483765
0.66244287,0,0,1.3479355573654175,0,0,0.9172800183296204
0.662805534,0,0,1.3479355573654175,0,0,0.6879600286483765
0.663109532,0,0,1.3742717504501343,0,0,0.6879600286483765
0.663463771,0,0,1.3742717504501343,0,0,0.8408399820327759
0.663776454,0,0,1.3742717504501343,0,0,0.9172800183296204
0.664124507,0,0,1.3742717504501343,0,0,0.9172800183296204
0.664442727,0,0,1.3742717504501343,0,0,0.5350799560546875
0.66478728,0,0,1.3862427473068237,0,0,0.6879600286483765
0.665109537,0,0,1.3862427473068237,0,0,0.5350799560546875
0.665448498,0,0,1.3862427473068237,0,0,0.4586400091648102
0.665776866,0,0,1.3862427473068237,0,0,0.3822000026702881
0.666112882,0,0,1.3239935636520386,0,0,0.8408399820327759
0.666442954,0,0,1.3239935636520386,0,0,0.7644000053405762
0.666776378,0,0,1.3239935636520386,0,0,0.9937199950218201
0.667109264,0,0,1.3239935636520386,0,0,0.7644000053405762
0.667442521,0,0,1.3239935636520386,0,0,0.611519992351532
0.667775908,0,0,1.335964560508728,0,0,0.6879600286483765
0.668142054,0,0,1.335964560508728,0,0,0.9937199950218201
0.668475959,0,0,1.335964560508728,0,0,0.3822000026702881
0.66877642,0,0,1.335964560508728,0,0,0.305759996175766
0.669145121,0,0,1.2641384601593018,0,0,0.305759996175766
0.669442637,0,0,1.2641384601593018,0,0,0.611519992351532
0.669805913,0,0,1.2641384601593018,0,0,1.070159912109375
0.670109633,0,0,1.2641384601593018,0,0,0.9172800183296204
0.670474593,0,0,1.2641384601593018,0,0,0.7644000053405762
0.670778943,0,0,1.2449848651885986,0,0,1.223039984703064
0.671135496,0,0,1.2449848651885986,0,0,1.223039984703064
0.67144542,0,0,1.2449848651885986,0,0,0.611519992351532
0.67180314,0,0,1.2449848651885986,0,0,-0.8408399820327759
0.672112823,0,0,1.213860273361206,0,0,0.4586400091648102
0.672464061,0,0,1.213860273361206,0,0,-0.152879998087883
0.672778726,0,0,1.213860273361206,0,0,0.2293200045824051
0.673132427,0,0,1.213860273361206,0,0,1.1466000080108643
0.673445165,0,0,1.213860273361206,0,0,0.8408399820327759
0.673795571,0,0,1.278503656387329,0,0,0.7644000053405762
0.674111587,0,0,1.278503656387329,0,0,0.5350799560546875
0.67446301,0,0,1.278503656387329,0,0,0.8408399820327759
0.674778249,0,0,1.278503656387329,0,0,0.6879600286483765
0.675143932,0,0,1.4101848602294922,0,0,0.7644000053405762
0.675447281,0,0,1.4101848602294922,0,0,0.6879600286483765
0.675799872,0,0,1.4101848602294922,0,0,0.8408399820327759
0.676112055,0,0,1.4101848602294922,0,0,0.9937199950218201
0.676464775,0,0,1.4101848602294922,0,0,0.7644000053405762
0.676778606,0,0,1.4963760375976563,0,0,0.7644000053405762
0.677129048,0,0,1.4963760375976563,0,0,0.8408399820327759
0.677445194,0,0,1.4963760375976563,0,0,0.8408399820327759
0.67779634,0,0,1.4963760375976563,0,0,0.8408399820327759
0.678111893,0,0,1.4197616577148438,0,0,1.223039984703064
0.678461946,0,0,1.4197616577148438,0,0,0.611519992351532
0.678778444,0,0,1.4197616577148438,0,0,0.611519992351532
0.67912809,0,0,1.4197616577148438,0,0,0.5350799560546875
0.679446365,0,0,1.4197616577148438,0,0,0.7644000053405762
0.679799604,0,0,1.4437036514282227,0,0,0.8408399820327759
0.680112027,0,0,1.4437036514282227,0,0,0.5350799560546875
0.680465303,0,0,1.4437036514282227,0,0,0.7644000053405762
0.680778523,0,0,1.4437036514282227,0,0,0.9172800183296204
0.681128891,0,0,1.3718775510787964,0,0,0.6879600286483765
0.681445407,0,0,1.3718775510787964,0,0,0.5350799560546875
0.681795849,0,0,1.3718775510787964,0,0,0.611519992351532
0.682115958,0,0,1.3718775510787964,0,0,0.9937199950218201
0.682463363,0,0,1.3718775510787964,0,0,0
0.682778713,0,0,1.3263877630233765,0,0,0.9172800183296204
0.683336524,0,0,1.3263877630233765,0,0,0.3822000026702881
0.683378838,0,0,1.3263877630233765,0,0,0.6879600286483765
0.68379728,0,0,1.3263877630233765,0,0,0.152879998087883
0.684112056,0,0,1.3335703611373901,0,0,0.305759996175766
0.684462979,0,0,1.3335703611373901,0,0,0.9937199950218201
0.684778588,0,0,1.3335703611373901,0,0,1.375920057296753
0.685130308,0,0,1.3335703611373901,0,0,0.9172800183296204
0.685445343,0,0,1.3335703611373901,0,0,0.7644000053405762
0.6857956,0,0,1.259350061416626,0,0,0.9172800183296204
0.686111579,0,0,1.259350061416626,0,0,0.9937199950218201
0.686462299,0,0,1.259350061416626,0,0,0.6879600286483765
0.686780056,0,0,1.259350061416626,0,0,1.070159912109375
0.687130665,0,0,1.3192051649093628,0,0,1.070159912109375
0.687445255,0,0,1.3192051649093628,0,0,0.9937199950218201
0.687794975,0,0,1.3192051649093628,0,0,0.9172800183296204
0.68811201,0,0,1.3192051649093628,0,0,0.9172800183296204
0.688461248,0,0,1.3192051649093628,0,0,0.8408399820327759
0.688778728,0,0,1.37906014919281,0,0,0.4586400091648102
0.689127707,0,0,1.37906014919281,0,0,1.070159912109375
0.689445945,0,0,1.37906014919281,0,0,1.1466000080108643
0.689796628,0,0,1.37906014919281,0,0,0.8408399820327759
0.690111848,0,0,1.3886369466781616,0,0,0.8408399820327759
0.69046279,0,0,1.3886369466781616,0,0,0.611519992351532
0.690778936,0,0,1.3886369466781616,0,0,0.6879600286483765
0.691128249,0,0,1.3886369466781616,0,0,0.9937199950218201
0.691445302,0,0,1.3886369466781616,0,0,0.611519992351532
0.691794022,0,0,1.4772224426269531,0,0,0.9937199950218201
0.692111964,0,0,1.4772224426269531,0,0,0.6879600286483765
0.692464554,0,0,1.4772224426269531,0,0,0.4586400091648102
0.692778682,0,0,1.4772224426269531,0,0,0.4586400091648102
0.693126439,0,0,1.436521053314209,0,0,0
0.693445251,0,0,1.436521053314209,0,0,0.9172800183296204
0.693795767,0,0,1.436521053314209,0,0,0.0764399990439415
0.694112395,0,0,1.436521053314209,0,0,0.8408399820327759
0.694461504,0,0,1.436521053314209,0,0,0.7644000053405762
0.694778298,0,0,1.403002142906189,0,0,1.5288000106811523
0.695127703,0,0,1.403002142906189,0,0,1.2994799613952637
0.695445275,0,0,1.403002142906189,0,0,0.3822000026702881
0.695793828,0,0,1.403002142906189,0,0,0.611519992351532
0.696111733,0,0,1.4748282432556152,0,0,1.375920057296753
0.696460508,0,0,1.4748282432556152,0,0,2.446079969406128
0.696778358,0,0,1.4748282432556152,0,0,0.9937199950218201
0.697126004,0,0,1.4748282432556152,0,0,1.758120059967041
0.697445391,0,0,1.4748282432556152,0,0,0.8408399820327759
0.697794296,0,0,1.2713210582733154,0,0,0.7644000053405762
0.698112108,0,0,1.2713210582733154,0,0,0.611519992351532
0.698460958,0,0,1.2713210582733154,0,0,0.8408399820327759
0.698778789,0,0,1.2713210582733154,0,0,1.070159912109375
0.699126916,0,0,1.3120225667953491,0,0,1.070159912109375
