Time,AccelX1,AccelY1,AccelZ1,AccelX2,AccelY2,AccelZ2
0.000016463,0,0,1.4676456451416016,0,0,0.6879600286483765
0.016213558,0,0,1.4676456451416016,0,0,0.6879600286483765
0.016622257,0,0,1.6615760326385498,0,0,0.9937199950218201
0.016995791,0,0,1.6615760326385498,0,0,1.223039984703064
0.017440619,0,0,1.6615760326385498,0,0,0.4586400091648102
0.017822449,0,0,1.3646949529647827,0,0,0.9172800183296204
0.018196278,0,0,1.3646949529647827,0,0,1.223039984703064
0.018568145,0,0,1.3503297567367554,0,0,1.070159912109375
0.018940641,0,0,1.3503297567367554,0,0,0.8408399820327759
0.01931223,0,0,1.3503297567367554,0,0,0.8408399820327759
0.019682245,0,0,1.3646949529647827,0,0,0.9172800183296204
0.020052389,0,0,1.3646949529647827,0,0,0
0.020425737,0,0,1.3646949529647827,0,0,1.070159912109375
0.020796974,0,0,1.3934253454208374,0,0,1.375920057296753
0.021166859,0,0,1.3934253454208374,0,0,0.611519992351532
0.021538763,0,0,1.3862427473068237,0,0,0.5350799560546875
0.021910741,0,0,1.3862427473068237,0,0,0.4586400091648102
0.022282941,0,0,1.3862427473068237,0,0,1.2994799613952637
0.022654196,0,0,1.3886369466781616,0,0,1.6816799640655518
0.023025285,0,0,1.3886369466781616,0,0,0.4586400091648102
0.02339454,0,0,1.3886369466781616,0,0,0.4586400091648102
0.023766518,0,0,1.577778935432434,0,0,0.5350799560546875
0.0241382,0,0,1.577778935432434,0,0,1.070159912109375
0.024508344,0,0,1.53707754611969,0,0,0.9937199950218201
0.024880748,0,0,1.53707754611969,0,0,0
0.025452538,0,0,1.4173674583435059,0,0,0.9937199950218201
0.026452602,0,0,1.6927006244659424,0,0,0.7644000053405762
0.027470592,0,0,1.3646949529647827,0,0,0.9172800183296204
0.028459267,0,0,1.4413094520568848,0,0,0.6879600286483765
0.029461053,0,0,1.3742717504501343,0,0,0.6879600286483765
0.030458117,0,0,1.4652514457702637,0,0,0.8408399820327759
0.031459588,0,0,1.5059528350830078,0,0,0.9937199950218201
0.032461874,0,0,1.3766659498214722,0,0,0.6879600286483765
0.033461883,0,0,1.6041151285171509,0,0,0.611519992351532
0.034458521,0,0,1.6974890232086182,0,0,0
0.035457974,0,0,1.501164436340332,0,0,1.452359914779663
0.036458389,0,0,1.6136919260025024,0,0,0.8408399820327759
0.037450546,0,0,1.455674648284912,0,0,0.5350799560546875
0.038450425,0,0,1.4508862495422363,0,0,0.9937199950218201
0.039450729,0,0,1.4724340438842773,0,0,0.7644000053405762
0.04045433,0,0,1.316810965538025,0,0,0.6879600286483765
0.04146132,0,0,1.4460978507995605,0,0,0.611519992351532
0.042455847,0,0,1.41257905960083,0,0,0.6879600286483765
0.043456485,0,0,1.5610195398330688,0,0,0.7644000053405762
0.044456604,0,0,1.601720929145813,0,0,1.375920057296753
0.045457076,0,0,1.5729905366897583,0,0,1.070159912109375
0.046458084,0,0,1.5849615335464478,0,0,0.6879600286483765
0.047456241,0,0,1.580173134803772,0,0,0.9937199950218201
0.048462119,0,0,1.3623007535934448,0,0,1.1466000080108643
0.049452257,0,0,1.4437036514282227,0,0,0.8408399820327759
0.050450414,0,0,1.338358759880066,0,0,0.7644000053405762
0.051450719,0,0,1.4867992401123047,0,0,0.5350799560546875
0.052489912,0,0,1.434126853942871,0,0,1.223039984703064
0.053453569,0,0,1.5298948287963867,0,0,0.611519992351532
0.054450207,0,0,1.678335428237915,0,0,1.605239987373352
0.055449993,0,0,1.6112977266311646,0,0,0.5350799560546875
0.056449038,0,0,1.5083470344543457,0,0,0.4586400091648102
0.05745038,0,0,1.7884687185287476,0,0,1.070159912109375
0.058448907,0,0,1.3718775510787964,0,0,0.8408399820327759
0.059449175,0,0,1.4101848602294922,0,0,0.9937199950218201
0.060448794,0,0,1.3311761617660522,0,0,0.5350799560546875
0.061450784,0,0,1.37906014919281,0,0,1.070159912109375
0.062449014,0,0,1.4484920501708984,0,0,0.9937199950218201
0.063457578,0,0,1.4628572463989258,0,0,0.6879600286483765
0.064458679,0,0,1.5897499322891235,0,0,0.9172800183296204
0.065656463,0,0,1.7070658206939697,0,0,0.2293200045824051
0.066482585,0,0,1.5203180313110352,0,0,0.9172800183296204
0.06746326,0,0,1.7812861204147339,0,0,1.1466000080108643
0.068466157,0,0,1.4460978507995605,0,0,1.1466000080108643
0.069689848,0,0,1.4293384552001953,0,0,0.6879600286483765
0.070462729,0,0,1.3646949529647827,0,0,0.7644000053405762
0.071459349,0,0,1.3455413579940796,0,0,1.2994799613952637
0.072457413,0,0,1.460463047027588,0,0,0.4586400091648102
0.073457255,0,0,1.436521053314209,0,0,0.9937199950218201
0.074456485,0,0,1.5849615335464478,0,0,0.8408399820327759
0.075455827,0,0,1.558625340461731,0,0,0.305759996175766
0.076460817,0,0,1.434126853942871,0,0,1.2994799613952637
0.07745501,0,0,1.5753847360610962,0,0,0.5350799560546875
0.078456371,0,0,1.4700398445129395,0,0,0.8408399820327759
0.079376454,0,0,1.335964560508728,0,0,0.8408399820327759
0.080351944,0,0,1.3694833517074585,0,0,0.7644000053405762
0.081349749,0,0,1.3431471586227417,0,0,1.223039984703064
0.082349609,0,0,1.4197616577148438,0,0,0.305759996175766
0.083348562,0,0,1.3862427473068237,0,0,1.070159912109375
0.084355033,0,0,1.5466543436050415,0,0,0.5350799560546875
0.085349208,0,0,1.699883222579956,0,0,1.8345600366592407
0.086349253,0,0,1.6280571222305298,0,0,0.6879600286483765
0.087348891,0,0,1.6376339197158813,0,0,0.3822000026702881
0.08835077,0,0,1.580173134803772,0,0,0.7644000053405762
0.089348593,0,0,1.3455413579940796,0,0,1.1466000080108643
0.090350157,0,0,1.4460978507995605,0,0,0.9172800183296204
0.091349055,0,0,1.3982137441635132,0,0,0.8408399820327759
0.092350674,0,0,1.4197616577148438,0,0,0.5350799560546875
0.093348145,0,0,1.2521674633026123,0,0,0.9172800183296204
0.094348931,0,0,1.4987702369689941,0,0,0.611519992351532
0.095349181,0,0,1.7190368175506592,0,0,0.9937199950218201
0.096350633,0,0,1.5490485429763794,0,0,0
0.097348401,0,0,1.400607943534851,0,0,1.1466000080108643
0.098349335,0,0,1.5969325304031372,0,0,1.070159912109375
0.099349584,0,0,1.2976573705673218,0,0,0.6879600286483765
0.100350167,0,0,1.4245500564575195,0,0,0.8408399820327759
0.101369601,0,0,1.3982137441635132,0,0,0.152879998087883
0.102352091,0,0,1.4484920501708984,0,0,0.9172800183296204
0.103350025,0,0,1.4628572463989258,0,0,0.9172800183296204
0.1043502,0,0,1.4269442558288574,0,0,0.5350799560546875
0.105347894,0,0,1.501164436340332,0,0,0.9172800183296204
0.10636968,0,0,1.522712230682373,0,0,0.2293200045824051
0.107349874,0,0,1.4437036514282227,0,0,0.8408399820327759
0.108350438,0,0,1.7286136150360107,0,0,0.611519992351532
0.10934889,0,0,1.4221558570861816,0,0,0.7644000053405762
0.110353102,0,0,1.3670891523361206,0,0,0.9172800183296204
0.111349166,0,0,1.4460978507995605,0,0,0.611519992351532
0.112351767,0,0,1.3263877630233765,0,0,1.223039984703064
0.113348979,0,0,1.4508862495422363,0,0,0.5350799560546875
0.114349173,0,0,1.381454348564148,0,0,0.7644000053405762
0.115349144,0,0,1.5466543436050415,0,0,0.8408399820327759
0.116355449,0,0,1.6136919260025024,0,0,1.1466000080108643
0.117350254,0,0,1.4844050407409668,0,0,0.6879600286483765
0.118349281,0,0,1.6543933153152466,0,0,0.152879998087883
0.119349511,0,0,1.5705963373184204,0,0,0.4586400091648102
0.120350075,0,0,1.4269442558288574,0,0,0.8408399820327759
0.121347954,0,0,1.357512354850769,0,0,0.7644000053405762
0.122349314,0,0,1.3407529592514038,0,0,1.375920057296753
0.123349285,0,0,1.4652514457702637,0,0,0.5350799560546875
0.124350257,0,0,1.4772224426269531,0,0,1.1466000080108643
0.125348561,0,0,1.5825673341751099,0,0,0.6879600286483765
0.126348181,0,0,1.5705963373184204,0,0,1.452359914779663
0.127348967,0,0,1.436521053314209,0,0,0.7644000053405762
0.128350235,0,0,1.53707754611969,0,0,0.6879600286483765
0.129368558,0,0,1.6160861253738403,0,0,0.9172800183296204
0.130352529,0,0,1.3263877630233765,0,0,0.8408399820327759
0.131349649,0,0,1.3958195447921753,0,0,0.9937199950218201
0.132350416,0,0,1.3000515699386597,0,0,0.9172800183296204
0.133347795,0,0,1.3742717504501343,0,0,0.5350799560546875
0.134348748,0,0,1.359906554222107,0,0,0.6879600286483765
0.135349275,0,0,1.357512354850769,0,0,0.7644000053405762
0.136350579,0,0,1.522712230682373,0,0,1.223039984703064
0.137348088,0,0,1.522712230682373,0,0,0.2293200045824051
0.138349078,0,0,1.4221558570861816,0,0,1.1466000080108643
0.139349512,0,0,1.723825216293335,0,0,1.070159912109375
0.140350242,0,0,1.292868971824646,0,0,0.7644000053405762
0.14134838,0,0,1.3934253454208374,0,0,0.9172800183296204
0.14234837,0,0,1.434126853942871,0,0,0.7644000053405762
0.143349268,0,0,1.4053963422775269,0,0,0.8408399820327759
0.144350443,0,0,1.4652514457702637,0,0,0.9172800183296204
0.145348155,0,0,1.3431471586227417,0,0,0.611519992351532
0.146348996,0,0,1.5203180313110352,0,0,0.6879600286483765
0.147348486,0,0,1.525106430053711,0,0,9.631440162658691
0.148349976,0,0,1.5155296325683594,0,0,1.070159912109375
0.149348522,0,0,1.8052281141281128,0,0,0.8408399820327759
0.150349141,0,0,1.4676456451416016,0,0,0.6879600286483765
0.151348723,0,0,1.4437036514282227,0,0,0.6879600286483765
0.152350843,0,0,1.3551181554794312,0,0,0.9172800183296204
0.153348018,0,0,1.3646949529647827,0,0,1.223039984703064
0.154349267,0,0,1.53707754611969,0,0,0.611519992351532
0.155349683,0,0,1.4317326545715332,0,0,0.6879600286483765
0.156349969,0,0,1.5753847360610962,0,0,0.7644000053405762
0.157348144,0,0,1.5203180313110352,0,0,0.5350799560546875
0.158349226,0,0,1.5610195398330688,0,0,1.1466000080108643
0.159349161,0,0,1.6759412288665771,0,0,0.4586400091648102
0.160350539,0,0,1.5394717454910278,0,0,0.7644000053405762
0.161348326,0,0,1.2713210582733154,0,0,1.1466000080108643
0.162349223,0,0,1.3479355573654175,0,0,0.9172800183296204
0.163348268,0,0,1.357512354850769,0,0,0.8408399820327759
0.164350369,0,0,1.4317326545715332,0,0,0.6879600286483765
0.165348211,0,0,1.4413094520568848,0,0,0.9172800183296204
0.166348886,0,0,1.5897499322891235,0,0,0.9172800183296204
0.167348857,0,0,1.6065093278884888,0,0,1.375920057296753
0.168350569,0,0,1.5753847360610962,0,0,0.8408399820327759
0.169346985,0,0,1.5394717454910278,0,0,0.305759996175766
0.170349586,0,0,1.5921441316604614,0,0,0.7644000053405762
0.171349002,0,0,1.314416766166687,0,0,0.9937199950218201
0.172350547,0,0,1.359906554222107,0,0,1.070159912109375
0.173348463,0,0,1.280897855758667,0,0,0.611519992351532
0.174348916,0,0,1.4437036514282227,0,0,0.8408399820327759
0.175349647,0,0,1.455674648284912,0,0,0.4586400091648102
0.176361173,0,0,1.5514427423477173,0,0,0.6879600286483765
0.177428311,0,0,1.4987702369689941,0,0,1.2994799613952637
0.178351172,0,0,1.460463047027588,0,0,0.0764399990439415
0.179447864,0,0,1.4101848602294922,0,0,0.8408399820327759
0.180460206,0,0,1.7405846118927002,0,0,0.8408399820327759
0.181456862,0,0,1.4628572463989258,0,0,0.9172800183296204
0.182456463,0,0,1.314416766166687,0,0,0.7644000053405762
0.183455953,0,0,1.280897855758667,0,0,0.8408399820327759
0.184455832,0,0,1.2737152576446533,0,0,1.375920057296753
0.185454303,0,0,1.4245500564575195,0,0,0.7644000053405762
0.186473997,0,0,1.4053963422775269,0,0,0.6879600286483765
0.187457209,0,0,1.5945383310317993,0,0,0.9172800183296204
0.18845618,0,0,1.6400281190872192,0,0,0
0.189455207,0,0,1.50355863571167,0,0,1.1466000080108643
0.19045579,0,0,1.6855180263519287,0,0,1.223039984703064
0.191455057,0,0,1.3910311460494995,0,0,0.5350799560546875
0.192455325,0,0,1.338358759880066,0,0,0.6879600286483765
0.193454278,0,0,1.3215993642807007,0,0,0.8408399820327759
0.19445586,0,0,1.3072341680526733,0,0,1.452359914779663
0.195456054,0,0,1.4987702369689941,0,0,0.611519992351532
0.196458673,0,0,1.4197616577148438,0,0,0.9172800183296204
0.197455848,0,0,1.6208745241165161,0,0,0.8408399820327759
0.198455968,0,0,1.601720929145813,0,0,1.5288000106811523
0.19945542,0,0,1.4389152526855469,0,0,1.070159912109375
0.200456836,0,0,1.6687586307525635,0,0,0.611519992351532
0.201454048,0,0,1.580173134803772,0,0,0.7644000053405762
0.202454909,0,0,1.4077905416488647,0,0,0.9172800183296204
0.203455287,0,0,1.4676456451416016,0,0,0.8408399820327759
0.20445761,0,0,1.3503297567367554,0,0,1.070159912109375
0.205453897,0,0,1.4269442558288574,0,0,0.3822000026702881
0.206455516,0,0,1.2761094570159912,0,0,0.8408399820327759
0.207455265,0,0,1.5083470344543457,0,0,0.611519992351532
0.208456218,0,0,1.522712230682373,0,0,1.375920057296753
0.20944856,0,0,1.482010841369629,0,0,0.3822000026702881
0.210448864,0,0,1.625662922859192,0,0,0.7644000053405762
0.212878192,0,0,1.338358759880066,0,0,0.9172800183296204
0.213263373,0,0,1.338358759880066,0,0,1.223039984703064
0.213645295,0,0,1.3431471586227417,0,0,1.070159912109375
0.214482249,0,0,1.3335703611373901,0,0,0.5350799560546875
0.215461295,0,0,1.4245500564575195,0,0,0.8408399820327759
0.216461452,0,0,1.50355863571167,0,0,0.9937199950218201
0.217454756,0,0,1.501164436340332,0,0,0.8408399820327759
0.218457228,0,0,1.659181833267212,0,0,1.1466000080108643
0.219457421,0,0,1.6376339197158813,0,0,0
0.220458763,0,0,1.4389152526855469,0,0,1.2994799613952637
0.221455734,0,0,1.6759412288665771,0,0,1.1466000080108643
0.222457002,0,0,1.3694833517074585,0,0,0.9172800183296204
0.223456751,0,0,1.4317326545715332,0,0,0.7644000053405762
0.224457482,0,0,1.359906554222107,0,0,0.5350799560546875
0.225457564,0,0,1.3120225667953491,0,0,1.223039984703064
0.226457313,0,0,1.381454348564148,0,0,0.6879600286483765
0.227456821,0,0,1.3335703611373901,0,0,0.611519992351532
0.228458867,0,0,1.5107412338256836,0,0,0.611519992351532
0.229454857,0,0,1.5682021379470825,0,0,0.4586400091648102
0.230455717,0,0,1.4772224426269531,0,0,0.9172800183296204
0.231457003,0,0,1.6927006244659424,0,0,0.6879600286483765
0.232459123,0,0,1.4652514457702637,0,0,0.611519992351532
0.233455372,0,0,1.4053963422775269,0,0,0.611519992351532
0.234456602,0,0,1.359906554222107,0,0,0.6879600286483765
0.235456722,0,0,1.2497732639312744,0,0,1.223039984703064
0.236458193,0,0,1.4987702369689941,0,0,0.6879600286483765
0.237455979,0,0,1.3694833517074585,0,0,0.7644000053405762
0.238455543,0,0,1.5849615335464478,0,0,0.8408399820327759
0.239456866,0,0,1.5921441316604614,0,0,1.1466000080108643
0.240458319,0,0,1.5298948287963867,0,0,0.7644000053405762
0.241456031,0,0,1.5538369417190552,0,0,0.611519992351532
0.242456688,0,0,1.5131354331970215,0,0,0.9937199950218201
0.24345627,0,0,1.436521053314209,0,0,0.9172800183296204
0.24445813,0,0,1.3910311460494995,0,0,0.611519992351532
0.245456194,0,0,1.2880805730819702,0,0,0.9937199950218201
0.246457277,0,0,1.4413094520568848,0,0,0.8408399820327759
0.247456674,0,0,1.403002142906189,0,0,0.9172800183296204
0.248458368,0,0,1.6208745241165161,0,0,0.7644000053405762
0.249455469,0,0,1.5514427423477173,0,0,1.5288000106811523
0.250480421,0,0,1.4772224426269531,0,0,0.5350799560546875
0.251459337,0,0,1.5083470344543457,0,0,0.8408399820327759
0.252457568,0,0,1.6089035272598267,0,0,1.1466000080108643
0.253455409,0,0,1.400607943534851,0,0,0.611519992351532
0.254456751,0,0,1.400607943534851,0,0,0.6879600286483765
0.255456852,0,0,1.3024457693099976,0,0,0.7644000053405762
0.256622451,0,0,1.3886369466781616,0,0,0.8408399820327759
0.257955327,0,0,1.3886369466781616,0,0,0.9937199950218201
0.258466303,0,0,1.403002142906189,0,0,0.4586400091648102
0.259675365,0,0,1.601720929145813,0,0,0.8408399820327759
0.260489153,0,0,1.5442601442337036,0,0,9.402119636535645
0.261459921,0,0,1.2473790645599365,0,0,0.9937199950218201
0.262457577,0,0,1.3048399686813354,0,0,0.4586400091648102
0.263474641,0,0,1.2713210582733154,0,0,0.305759996175766
0.26446602,0,0,1.5418659448623657,0,0,0.9172800183296204
0.265456806,0,0,1.7741034030914307,0,0,0.4586400091648102
0.266456944,0,0,1.5059528350830078,0,0,1.223039984703064
0.267457008,0,0,0.5817909836769104,0,0,1.1466000080108643
0.268458572,0,0,0.2322375625371933,0,0,-29.888038635253906
0.269454877,0,0,0.8978256583213806,0,0,0
0.2704562,0,0,1.381454348564148,0,0,-29.888038635253906
0.271456264,0,0,1.4772224426269531,0,0,0.611519992351532
0.272457939,0,0,1.3910311460494995,0,0,0.3822000026702881
0.273453984,0,0,1.194706678390503,0,0,0.5350799560546875
0.274456696,0,0,0.8786720037460327,0,0,1.2994799613952637
0.275456316,0,0,0.689530074596405,0,0,0.4586400091648102
0.276458861,0,0,0.9002198576927185,0,0,1.223039984703064
0.277493647,0,0,0.9457096457481384,0,0,0
0.278459026,0,0,1.5203180313110352,0,0,0.152879998087883
0.279456349,0,0,1.9704279899597168,0,0,1.2994799613952637
0.28045495,0,0,1.8602946996688843,0,0,0.6879600286483765
0.281456773,0,0,1.7764976024627686,0,0,1.2994799613952637
0.282456523,0,0,1.4101848602294922,0,0,1.1466000080108643
0.283456253,0,0,1.4389152526855469,0,0,0.6879600286483765
0.284458595,0,0,1.161187767982483,0,0,0.9937199950218201
0.285453529,0,0,1.2330138683319092,0,0,0.6879600286483765
0.286456112,0,0,1.1276689767837524,0,0,0.0764399990439415
0.287456916,0,0,1.0295066833496094,0,0,0.2293200045824051
0.288458851,0,0,1.1516109704971313,0,0,0.3822000026702881
0.289453859,0,0,1.213860273361206,0,0,0.4586400091648102
0.290456349,0,0,1.094150185585022,0,0,1.070159912109375
0.291455839,0,0,1.1013327836990356,0,0,0.4586400091648102
0.292458014,0,0,1.1276689767837524,0,0,0.152879998087883
0.293454559,0,0,1.3862427473068237,0,0,0.6879600286483765
0.294454697,0,0,1.094150185585022,0,0,0.9172800183296204
0.29545615,0,0,1.1899182796478271,0,0,0.4586400091648102
0.296457992,0,0,1.1540051698684692,0,0,0.611519992351532
0.297454463,0,0,1.1994950771331787,0,0,1.070159912109375
0.298456268,0,0,1.290474772453308,0,0,0.611519992351532
0.299456295,0,0,1.2976573705673218,0,0,0.7644000053405762
0.300457599,0,0,1.434126853942871,0,0,0.9937199950218201
0.301454441,0,0,1.4460978507995605,0,0,0.4586400091648102
0.302454301,0,0,1.4724340438842773,0,0,0.9172800183296204
0.303455717,0,0,1.6184803247451782,0,0,0.9172800183296204
0.304493336,0,0,1.2090718746185303,0,0,0.9172800183296204
0.305467863,0,0,1.2545616626739502,0,0,0.4586400091648102
0.306458335,0,0,1.1971008777618408,0,0,0.6879600286483765
0.307457491,0,0,1.2210428714752197,0,0,1.1466000080108643
0.308458629,0,0,1.2258312702178955,0,0,0.611519992351532
0.309454786,0,0,1.1468225717544556,0,0,0.6879600286483765
0.310456424,0,0,1.4317326545715332,0,0,0.0764399990439415
0.311456802,0,0,1.4197616577148438,0,0,0.2293200045824051
0.312458311,0,0,1.2665326595306396,0,0,0.2293200045824051
0.313455078,0,0,1.4221558570861816,0,0,0.4586400091648102
0.314456327,0,0,1.0199298858642578,0,0,0.152879998087883
0.315456632,0,0,0.9169792532920837,0,0,0.2293200045824051
0.316458455,0,0,0.9241618514060974,0,0,0.305759996175766
0.317456186,0,0,0.9385270476341248,0,0,0.8408399820327759
0.318456454,0,0,1.2018892765045166,0,0,0
0.319456814,0,0,1.0247182846069336,0,0,0.9937199950218201
0.320458841,0,0,1.173158884048462,0,0,0.152879998087883
0.321482441,0,0,1.3766659498214722,0,0,1.375920057296753
0.322458506,0,0,1.434126853942871,0,0,1.070159912109375
0.32345544,0,0,1.8171991109848022,0,0,0.8408399820327759
0.324457578,0,0,1.7525556087493896,0,0,0.9937199950218201
0.325455845,0,0,1.4772224426269531,0,0,1.223039984703064
0.326456946,0,0,1.3694833517074585,0,0,1.1466000080108643
0.327456621,0,0,1.1444283723831177,0,0,0.6879600286483765
0.328458222,0,0,1.2689268589019775,0,0,0.2293200045824051
0.329456416,0,0,1.0821791887283325,0,0,0.4586400091648102
0.330459591,0,0,1.161187767982483,0,0,0
0.331457155,0,0,1.2737152576446533,0,0,0.2293200045824051
0.332463163,0,0,1.2090718746185303,0,0,9.478560447692871
0.33345569,0,0,1.0773907899856567,0,0,0
0.33445655,0,0,1.161187767982483,0,0,0.611519992351532
0.335456781,0,0,0.8643068075180054,0,0,0.611519992351532
0.336458604,0,0,0.8906430602073669,0,0,0.5350799560546875
0.337453446,0,0,0.9911994934082031,0,0,0.5350799560546875
0.338456547,0,0,1.2617442607879639,0,0,0.7644000053405762
0.339456981,0,0,1.3742717504501343,0,0,0.9172800183296204
0.340458397,0,0,1.4269442558288574,0,0,0.7644000053405762
0.341454942,0,0,1.4652514457702637,0,0,0.9172800183296204
0.342456154,0,0,1.3455413579940796,0,0,0
0.343456552,0,0,1.2880805730819702,0,0,0.8408399820327759
0.344458116,0,0,1.580173134803772,0,0,0.8408399820327759
0.345453976,0,0,1.3096283674240112,0,0,0.305759996175766
0.346456855,0,0,1.2306196689605713,0,0,0.3822000026702881
0.347456419,0,0,1.1563993692398071,0,0,0.6879600286483765
0.348458371,0,0,1.05105459690094,0,0,1.1466000080108643
0.349455491,0,0,1.2066776752471924,0,0,0.5350799560546875
0.350456073,0,0,1.1516109704971313,0,0,0.8408399820327759
0.351456026,0,0,1.2832920551300049,0,0,0.5350799560546875
0.352458294,0,0,1.3215993642807007,0,0,0.6879600286483765
0.353455858,0,0,1.3215993642807007,0,0,0.5350799560546875
0.354457551,0,0,1.522712230682373,0,0,0.2293200045824051
0.355457152,0,0,1.2832920551300049,0,0,0.5350799560546875
0.356458531,0,0,1.2449848651885986,0,0,0.6879600286483765
0.357455391,0,0,1.3311761617660522,0,0,0.611519992351532
0.358456844,0,0,1.2880805730819702,0,0,1.375920057296753
0.359454612,0,0,1.455674648284912,0,0,0.611519992351532
0.360458638,0,0,1.3239935636520386,0,0,0.9172800183296204
0.361455573,0,0,1.316810965538025,0,0,0.8408399820327759
0.362456674,0,0,1.1109095811843872,0,0,1.5288000106811523
0.363456627,0,0,1.072602391242981,0,0,0.3822000026702881
0.364458672,0,0,1.335964560508728,0,0,0
0.365454662,0,0,1.414973258972168,0,0,0
0.36645517,0,0,1.3694833517074585,0,0,0.3822000026702881
0.367456067,0,0,1.5538369417190552,0,0,1.1466000080108643
0.368458965,0,0,1.4652514457702637,0,0,1.2994799613952637
0.36945588,0,0,1.5658079385757446,0,0,0.9937199950218201
0.370456333,0,0,1.1300631761550903,0,0,1.1466000080108643
0.371457268,0,0,0.9026140570640564,0,0,0.7644000053405762
0.372457961,0,0,0.8451532125473022,0,0,0.9172800183296204
0.373454988,0,0,0.8619126081466675,0,0,-29.888038635253906
0.374456515,0,0,1.0199298858642578,0,0,0.152879998087883
0.375457116,0,0,1.558625340461731,0,0,0
0.376465106,0,0,1.5729905366897583,0,0,0.305759996175766
0.37745791,0,0,1.680729627609253,0,0,0.8408399820327759
0.378552677,0,0,1.4269442558288574,0,0,1.070159912109375
0.379459557,0,0,0.7015010714530945,0,0,1.1466000080108643
0.380458306,0,0,0.5482721924781799,0,0,0.5350799560546875
0.381416074,0,0,0.4836287498474121,0,0,0.0764399990439415
0.382414156,0,0,0.8619126081466675,0,0,0.2293200045824051
0.383413331,0,0,1.3479355573654175,0,0,9.019920349121094
0.384414358,0,0,1.6615760326385498,0,0,0.5350799560546875
0.385414626,0,0,2.279279947280884,0,0,0.7644000053405762
0.386413042,0,0,1.8531121015548706,0,0,1.1466000080108643
0.387413402,0,0,1.5897499322891235,0,0,1.2994799613952637
0.388412725,0,0,1.0678139925003052,0,0,1.605239987373352
0.389413511,0,0,0.5363011956214905,0,0,1.452359914779663
0.390413983,0,0,0.6129156351089478,0,0,0.305759996175766
0.391413121,0,0,1.1659762859344482,0,0,0.305759996175766
0.392414166,0,0,1.9488801956176758,0,0,0
0.39341336,0,0,2.205059766769409,0,0,0.6879600286483765
0.394413553,0,0,1.8076223134994507,0,0,1.2994799613952637
0.395413561,0,0,1.4891934394836426,0,0,0.5350799560546875
0.396413533,0,0,0.8140285611152649,0,0,0.5350799560546875
0.397413319,0,0,0.5410895943641663,0,0,0.6879600286483765
0.398413587,0,0,0.912190854549408,0,0,0.3822000026702881
0.399413317,0,0,1.2425906658172607,0,0,0.152879998087883
0.400416048,0,0,1.6927006244659424,0,0,0.0764399990439415
0.401413056,0,0,1.6041151285171509,0,0,1.070159912109375
0.402412305,0,0,1.434126853942871,0,0,0.9937199950218201
0.403413203,0,0,1.158793568611145,0,0,1.2994799613952637
0.404414933,0,0,0.8547300100326538,0,0,0.5350799560546875
0.405412497,0,0,0.9864110946655273,0,0,0
0.406413117,0,0,1.3910311460494995,0,0,0.3822000026702881
0.40741331,0,0,1.4413094520568848,0,0,0.305759996175766
0.40841493,0,0,1.4389152526855469,0,0,0.4586400091648102
0.409412753,0,0,1.0055646896362305,0,0,0.5350799560546875
0.410439539,0,0,0.7134721279144287,0,0,0.4586400091648102
0.411414825,0,0,0.5051765441894531,0,0,-9.402119636535645
0.412416093,0,0,0.8092401623725891,0,0,0.2293200045824051
0.413413286,0,0,1.338358759880066,0,0,0.9172800183296204
0.414413128,0,0,1.6711528301239014,0,0,0
0.415413247,0,0,1.53707754611969,0,0,1.070159912109375
0.4164152,0,0,1.5179238319396973,0,0,1.2994799613952637
0.417406431,0,0,1.316810965538025,0,0,1.1466000080108643
0.418406495,0,0,1.7094600200653076,0,0,1.070159912109375
0.419407022,0,0,1.7118542194366455,0,0,1.452359914779663
0.420408956,0,0,1.558625340461731,0,0,1.452359914779663
0.42140915,0,0,1.3982137441635132,0,0,0.8408399820327759
0.422407547,0,0,1.1971008777618408,0,0,0.8408399820327759
0.423407055,0,0,1.3048399686813354,0,0,0.3822000026702881
0.424410138,0,0,1.6974890232086182,0,0,9.325679779052734
0.42541272,0,0,1.821987509727478,0,0,0.7644000053405762
0.426412765,0,0,1.7334020137786865,0,0,0.611519992351532
0.427412274,0,0,1.070208191871643,0,0,0.2293200045824051
0.428414523,0,0,0.7110779285430908,0,0,0.4586400091648102
0.429410587,0,0,0.4812345504760742,0,0,0.305759996175766
0.43041128,0,0,0.5722141861915588,0,0,0.0764399990439415
0.431411307,0,0,1.05105459690094,0,0,0
0.432414242,0,0,1.0845733880996704,0,0,0.2293200045824051
0.433411491,0,0,1.2545616626739502,0,0,9.631440162658691
0.434413055,0,0,1.1085153818130493,0,0,1.223039984703064
0.435412267,0,0,0.9792284965515137,0,0,0.305759996175766
0.436414275,0,0,1.3287819623947144,0,0,0.5350799560546875
0.437411487,0,0,1.3551181554794312,0,0,0.9937199950218201
0.438412644,0,0,1.5442601442337036,0,0,0.8408399820327759
0.43941243,0,0,1.2856862545013428,0,0,1.5288000106811523
0.440413549,0,0,1.3551181554794312,0,0,1.452359914779663
0.441411206,0,0,1.8602946996688843,0,0,0.4586400091648102
0.442412159,0,0,1.5514427423477173,0,0,1.758120059967041
0.443412704,0,0,1.702277421951294,0,0,0.7644000053405762
0.444413583,0,0,1.5729905366897583,0,0,1.452359914779663
0.445410239,0,0,1.1683704853057861,0,0,0.6879600286483765
0.446411951,0,0,1.5753847360610962,0,0,-29.582279205322266
0.447412126,0,0,1.6711528301239014,0,0,0.152879998087883
0.448413653,0,0,1.5179238319396973,0,0,0.2293200045824051
0.449410921,0,0,1.2545616626739502,0,0,0.611519992351532
0.450411985,0,0,0.43095630407333374,0,0,0.305759996175766
0.451412104,0,0,0.5147533416748047,0,0,0
0.452412798,0,0,0.5171475410461426,0,0,0.152879998087883
0.45341151,0,0,0.6248866319656372,0,0,9.019920349121094
0.454412629,0,0,1.070208191871643,0,0,0.152879998087883
0.455412471,0,0,0.7469909191131592,0,0,9.402119636535645
0.456413646,0,0,0.8954314589500427,0,0,0
0.457411303,0,0,1.3934253454208374,0,0,0.9937199950218201
0.458412089,0,0,1.2306196689605713,0,0,0.611519992351532
0.459412208,0,0,1.7118542194366455,0,0,1.5288000106811523
0.460413772,0,0,1.359906554222107,0,0,1.2994799613952637
0.461412392,0,0,1.5298948287963867,0,0,1.223039984703064
0.464232696,0,0,1.745373010635376,0,0,0.9172800183296204
0.464613119,0,0,1.8531121015548706,0,0,0.5350799560546875
0.464949448,0,0,1.8531121015548706,0,0,0.9172800183296204
0.465418462,0,0,1.5873557329177856,0,0,0.8408399820327759
0.466413267,0,0,1.5849615335464478,0,0,0.6879600286483765
0.467411479,0,0,2.0638017654418945,0,0,0.2293200045824051
0.468414747,0,0,1.6041151285171509,0,0,0.5350799560546875
0.469412607,0,0,1.5610195398330688,0,0,0.2293200045824051
0.470411467,0,0,1.048660397529602,0,0,0.3822000026702881
0.471412235,0,0,0.8906430602073669,0,0,0.305759996175766
0.472414632,0,0,0.8667010068893433,0,0,0.2293200045824051
0.473410974,0,0,0.3711012601852417,0,0,0
0.474437926,0,0,0.49320554733276367,0,0,9.402119636535645
0.475414287,0,0,0.5219359993934631,0,0,0
0.476415073,0,0,0.7661445140838623,0,0,0
0.477411285,0,0,1.965639591217041,0,0,9.631440162658691
0.47841159,0,0,1.889025092124939,0,0,1.223039984703064
0.479448005,0,0,1.6041151285171509,0,0,1.375920057296753
0.480417051,0,0,1.7334020137786865,0,0,1.605239987373352
0.481411633,0,0,1.2976573705673218,0,0,2.14031982421875
0.482411549,0,0,1.3670891523361206,0,0,0.9937199950218201
0.483412409,0,0,0.933738648891449,0,0,1.452359914779663
0.484413677,0,0,1.2066776752471924,0,0,0.4586400091648102
0.485411407,0,0,1.7573440074920654,0,0,1.2994799613952637
0.48641212,0,0,1.8124107122421265,0,0,0.0764399990439415
0.487412054,0,0,2.03507137298584,0,0,0.5350799560546875
0.488413062,0,0,1.4508862495422363,0,0,0.8408399820327759
0.489409885,0,0,1.0199298858642578,0,0,0.0764399990439415
0.490430616,0,0,0.7996633648872375,0,0,0.4586400091648102
0.491415439,0,0,0.3495534360408783,0,0,0
0.492415892,0,0,0.3663128614425659,0,0,-29.888038635253906
0.493412771,0,0,0.3687070608139038,0,0,0.305759996175766
0.494413446,0,0,0.871489405632019,0,0,9.172800064086914
0.495412454,0,0,1.5945383310317993,0,0,0.7644000053405762
0.496414888,0,0,1.6950948238372803,0,0,0.6879600286483765
0.497412138,0,0,1.9345149993896484,0,0,1.223039984703064
0.498412979,0,0,1.8291701078414917,0,0,1.8345600366592407
0.499412599,0,0,1.4317326545715332,0,0,1.223039984703064
0.500414811,0,0,1.0821791887283325,0,0,1.6816799640655518
0.501411967,0,0,1.0079588890075684,0,0,0.611519992351532
0.502413476,0,0,1.460463047027588,0,0,0.5350799560546875
0.503413058,0,0,1.6136919260025024,0,0,0.9172800183296204
0.504414955,0,0,1.6184803247451782,0,0,0.152879998087883
0.50541213,0,0,1.6759412288665771,0,0,0.7644000053405762
0.506414398,0,0,1.3958195447921753,0,0,9.478560447692871
0.507415351,0,0,0.8858546018600464,0,0,0.4586400091648102
0.508415489,0,0,0.667982280254364,0,0,0.305759996175766
0.509412553,0,0,0.4572925269603729,0,0,9.402119636535645
0.510411987,0,0,0.7374141216278076,0,0,9.402119636535645
0.511412773,0,0,1.0989385843276978,0,0,0.2293200045824051
0.512413615,0,0,1.1276689767837524,0,0,1.223039984703064
0.513469697,0,0,1.889025092124939,0,0,1.375920057296753
0.514417687,0,0,1.4748282432556152,0,0,1.375920057296753
0.515413696,0,0,1.4317326545715332,0,0,1.5288000106811523
0.516414593,0,0,1.0534487962722778,0,0,1.1466000080108643
0.517411749,0,0,1.158793568611145,0,0,0.8408399820327759
0.518413276,0,0,1.8411411046981812,0,0,0.0764399990439415
0.519413007,0,0,2.0422539710998535,0,0,0.3822000026702881
0.520414312,0,0,2.075772762298584,0,0,0.4586400091648102
0.521413079,0,0,2.0039467811584473,0,0,0.6879600286483765
0.522412736,0,0,0.9888052940368652,0,0,0.9172800183296204
0.523414263,0,0,0.4429273009300232,0,0,0.3822000026702881
0.524415419,0,0,0.043095629662275314,0,0,0.2293200045824051
0.525411798,0,0,0.4692635238170624,0,0,9.019920349121094
0.526413491,0,0,0.9792284965515137,0,0,0.152879998087883
0.527413166,0,0,1.256955862045288,0,0,0.2293200045824051
0.528415323,0,0,2.0446481704711914,0,0,0.0764399990439415
0.529411979,0,0,1.8602946996688843,0,0,1.070159912109375
0.530413395,0,0,1.0893617868423462,0,0,1.6816799640655518
0.531413033,0,0,0.7493851184844971,0,0,1.223039984703064
0.532417782,0,0,1.0606313943862915,0,0,1.1466000080108643
0.533412735,0,0,1.335964560508728,0,0,0.9172800183296204
0.534413262,0,0,1.6400281190872192,0,0,0.9172800183296204
0.53541253,0,0,1.6376339197158813,0,0,0
0.536414982,0,0,1.8531121015548706,0,0,1.375920057296753
0.537411472,0,0,1.2401964664459229,0,0,0.5350799560546875
0.538412258,0,0,0.6536170840263367,0,0,0.2293200045824051
0.539412934,0,0,1.0079588890075684,0,0,0.4586400091648102
0.540415479,0,0,0.9624691009521484,0,0,0.2293200045824051
0.54141221,0,0,1.3024457693099976,0,0,0.6879600286483765
0.542412922,0,0,1.400607943534851,0,0,0
0.543413189,0,0,1.4245500564575195,0,0,1.452359914779663
0.544414494,0,0,1.3455413579940796,0,0,1.1466000080108643
0.54541165,0,0,0.9481038451194763,0,0,0.9172800183296204
0.546413214,0,0,1.2737152576446533,0,0,0.8408399820327759
0.547413223,0,0,1.656787633895874,0,0,9.631440162658691
0.548414935,0,0,1.644816517829895,0,0,0.9172800183296204
0.549413091,0,0,1.723825216293335,0,0,0.5350799560546875
0.550448044,0,0,1.41257905960083,0,0,0.305759996175766
0.551419904,0,0,1.1420341730117798,0,0,0.7644000053405762
0.552421153,0,0,0.7230489253997803,0,0,0.611519992351532
0.553415643,0,0,0.7661445140838623,0,0,0.611519992351532
0.554417485,0,0,1.1228805780410767,0,0,0
0.555416456,0,0,1.2306196689605713,0,0,0.611519992351532
0.556417391,0,0,1.5322890281677246,0,0,0.305759996175766
0.557415251,0,0,1.4628572463989258,0,0,-8.867039680480957
0.558412741,0,0,1.2425906658172607,0,0,1.375920057296753
0.559412953,0,0,1.1994950771331787,0,0,0.611519992351532
0.560412369,0,0,1.3024457693099976,0,0,0.305759996175766
0.561413136,0,0,1.5490485429763794,0,0,0.9172800183296204
0.562413163,0,0,1.3072341680526733,0,0,0.7644000053405762
0.563413505,0,0,1.0534487962722778,0,0,0.2293200045824051
0.564413884,0,0,1.1037269830703735,0,0,0.152879998087883
0.565413003,0,0,0.7541735172271729,0,0,1.070159912109375
0.566413141,0,0,1.2952631711959839,0,0,0
0.567412964,0,0,1.6184803247451782,0,0,1.452359914779663
0.568414954,0,0,1.3335703611373901,0,0,0.9937199950218201
0.569412962,0,0,1.656787633895874,0,0,0.611519992351532
0.570413026,0,0,1.6424223184585571,0,0,0.8408399820327759
0.57141259,0,0,1.3239935636520386,0,0,1.758120059967041
0.572415562,0,0,1.213860273361206,0,0,0.7644000053405762
0.573410959,0,0,1.3862427473068237,0,0,0.2293200045824051
0.57441306,0,0,1.4293384552001953,0,0,0.4586400091648102
0.575412605,0,0,1.1013327836990356,0,0,0.9172800183296204
0.576417114,0,0,1.2306196689605713,0,0,9.478560447692871
0.577438159,0,0,1.2832920551300049,0,0,0.9172800183296204
0.578415167,0,0,0.993593692779541,0,0,0.152879998087883
0.579444657,0,0,1.4269442558288574,0,0,9.325679779052734
0.58041524,0,0,1.7884687185287476,0,0,1.375920057296753
0.581413192,0,0,1.1875240802764893,0,0,0.8408399820327759
0.582412071,0,0,1.5107412338256836,0,0,0
0.583413617,0,0,1.0606313943862915,0,0,1.375920057296753
0.584415125,0,0,0.5003881454467773,0,0,1.1466000080108643
0.585413152,0,0,0.768538773059845,0,0,0
0.586413142,0,0,1.1779472827911377,0,0,0
0.587413132,0,0,1.3982137441635132,0,0,0.9172800183296204
0.588413455,0,0,1.5873557329177856,0,0,8.790599822998047
0.589413019,0,0,1.601720929145813,0,0,0.5350799560546875
0.590413397,0,0,1.3646949529647827,0,0,1.5288000106811523
0.591412758,0,0,1.235408067703247,0,0,-9.784319877624512
0.592414303,0,0,1.5705963373184204,0,0,1.375920057296753
0.593412811,0,0,1.3407529592514038,0,0,1.605239987373352
0.59441319,0,0,1.4891934394836426,0,0,0.2293200045824051
0.595413106,0,0,1.3000515699386597,0,0,1.605239987373352
0.596414651,0,0,0.8236053586006165,0,0,1.452359914779663
0.59741153,0,0,1.235408067703247,0,0,9.172800064086914
0.59841289,0,0,1.4532804489135742,0,0,0.611519992351532
0.599412362,0,0,1.2090718746185303,0,0,1.223039984703064
0.60041337,0,0,1.6759412288665771,0,0,8.17908000946045
0.601412693,0,0,1.3503297567367554,0,0,0.3822000026702881
0.602413387,0,0,0.9528923034667969,0,0,1.223039984703064
0.603411432,0,0,1.2449848651885986,0,0,9.631440162658691
0.604415366,0,0,1.0606313943862915,0,0,2.446079969406128
0.605412319,0,0,1.173158884048462,0,0,0.7644000053405762
0.606412939,0,0,1.1252747774124146,0,0,0
0.607413003,0,0,0.751779317855835,0,0,1.9109998941421509
0.608413344,0,0,0.6967126727104187,0,0,1.223039984703064
0.609413519,0,0,1.259350061416626,0,0,-29.888038635253906
0.61041338,0,0,1.6879122257232666,0,0,0.6879600286483765
0.611413203,0,0,2.252943754196167,0,0,9.478560447692871
0.612415859,0,0,1.1468225717544556,0,0,9.631440162658691
0.61341396,0,0,1.5131354331970215,0,0,1.9109998941421509
0.614413006,0,0,1.213860273361206,0,0,0
0.615413088,0,0,1.4293384552001953,0,0,0.8408399820327759
0.616414911,0,0,1.2665326595306396,0,0,1.9109998941421509
0.617412568,0,0,1.4173674583435059,0,0,0.0764399990439415
0.618411465,0,0,0.6560112833976746,0,0,1.452359914779663
0.619413085,0,0,0.5770025849342346,0,0,0.5350799560546875
0.620414482,0,0,1.3407529592514038,0,0,-1.070159912109375
0.621411879,0,0,1.4389152526855469,0,0,0.305759996175766
0.622412962,0,0,1.6759412288665771,0,0,0.6879600286483765
0.623413655,0,0,1.867477297782898,0,0,-0.305759996175766
0.624414756,0,0,0.8068459630012512,0,0,1.375920057296753
0.62541119,0,0,1.2282254695892334,0,0,0.5350799560546875
0.62641331,0,0,1.3934253454208374,0,0,0.8408399820327759
0.627414966,0,0,1.2042834758758545,0,0,1.6816799640655518
0.628415419,0,0,1.9273324012756348,0,0,1.070159912109375
0.629457853,0,0,0.9552865028381348,0,0,0
0.63041851,0,0,0.8427590131759644,0,0,1.1466000080108643
0.631412296,0,0,1.6927006244659424,0,0,0
0.632416693,0,0,0.7996633648872375,0,0,0.152879998087883
0.63341285,0,0,1.482010841369629,0,0,0.2293200045824051
0.63441321,0,0,1.6376339197158813,0,0,0
0.635413015,0,0,0.5003881454467773,0,0,1.070159912109375
0.636415116,0,0,1.8698714971542358,0,0,-29.888038635253906
0.637411883,0,0,1.4939818382263184,0,0,1.375920057296753
0.63841367,0,0,1.3000515699386597,0,0,0.9172800183296204
0.639413604,0,0,2.032677173614502,0,0,0.8408399820327759
0.640421594,0,0,0.1364694982767105,0,0,1.758120059967041
0.64143588,0,0,0.8667010068893433,0,0,0
0.642411925,0,0,1.414973258972168,0,0,1.070159912109375
0.64341286,0,0,0.6416460275650024,0,0,9.402119636535645
0.644417072,0,0,2.126051187515259,0,0,9.019920349121094
0.645412043,0,0,1.4532804489135742,0,0,1.605239987373352
0.646412218,0,0,1.4245500564575195,0,0,9.478560447692871
0.647412208,0,0,2.1116859912872314,0,0,1.223039984703064
0.648414624,0,0,0.9959878921508789,0,0,1.1466000080108643
0.649411928,0,0,1.4532804489135742,0,0,0.3822000026702881
0.650413881,0,0,0.9002198576927185,0,0,2.828279972076416
0.651413575,0,0,0.06224924325942993,0,0,9.096360206604004
0.652415361,0,0,1.1085153818130493,0,0,9.631440162658691
0.653411943,0,0,0.6272808313369751,0,0,0
0.654413174,0,0,1.2282254695892334,0,0,-1.758120059967041
0.655413405,0,0,1.6855180263519287,0,0,1.375920057296753
0.656414487,0,0,1.1109095811843872,0,0,0
0.657411755,0,0,1.821987509727478,0,0,0.7644000053405762
0.658413337,0,0,1.4484920501708984,0,0,2.5989599227905273
0.659412753,0,0,1.4101848602294922,0,0,1.070159912109375
0.66041452,0,0,1.3120225667953491,0,0,2.904719829559326
0.661410844,0,0,0.14365209639072418,0,0,-29.582279205322266
0.662413204,0,0,0.7972691655158997,0,0,0
0.663412934,0,0,0.6823474764823914,0,0,0.3822000026702881
0.664414091,0,0,1.3910311460494995,0,0,8.25551986694336
0.665405822,0,0,1.6208745241165161,0,0,1.5288000106811523
0.66640646,0,0,2.0685901641845703,0,0,0
0.667407153,0,0,2.6455929279327393,0,0,0.9937199950218201
0.668423106,0,0,2.4133553504943848,0,0,3.134040117263794
0.669419318,0,0,1.9943699836730957,0,0,0.7644000053405762
0.670413586,0,0,1.0773907899856567,0,0,2.446079969406128
0.671412835,0,0,0.2825157940387726,0,0,0.152879998087883
0.672415158,0,0,0.4884171485900879,0,0,0.5350799560546875
0.673411389,0,0,0.5051765441894531,0,0,8.714159965515137
0.674413156,0,0,1.3431471586227417,0,0,-30.499561309814453
0.675412702,0,0,1.3215993642807007,0,0,0.3822000026702881
0.676417747,0,0,2.3487119674682617,0,0,9.478560447692871
0.677406885,0,0,2.4612393379211426,0,0,1.6816799640655518
0.678406708,0,0,2.164358377456665,0,0,2.06387996673584
0.679406957,0,0,1.3311761617660522,0,0,2.751840114593506
0.680497039,0,0,-0.11013327538967133,0,0,2.3696401119232178
0.681413641,0,0,-0.07422025501728058,0,0,-9.707880020141602
0.682411871,0,0,0.4165911078453064,0,0,0.6879600286483765
0.683456287,0,0,1.2665326595306396,0,0,8.867039680480957
0.684457739,0,0,2.049436569213867,0,0,0.152879998087883
0.68545484,0,0,2.4157495498657227,0,0,0.7644000053405762
0.686454423,0,0,3.2632968425750732,0,0,1.452359914779663
0.687454653,0,0,2.6839001178741455,0,0,3.0576000213623047
0.68845681,0,0,2.451662540435791,0,0,1.8345600366592407
0.689453318,0,0,1.357512354850769,0,0,2.6754000186920166
0.690453623,0,0,0.3447650372982025,0,0,1.9874399900436401
0.69145428,0,0,0.47165772318840027,0,0,9.478560447692871
0.692457251,0,0,0.6368576288223267,0,0,0.0764399990439415
0.693453852,0,0,1.4628572463989258,0,0,9.096360206604004
0.694455193,0,0,1.4197616577148438,0,0,0.6879600286483765
0.695455091,0,0,2.2433669567108154,0,0,9.172800064086914
0.696456766,0,0,2.6647465229034424,0,0,1.5288000106811523
0.697454311,0,0,2.190694570541382,0,0,1.452359914779663
0.698454708,0,0,1.764526605606079,0,0,1.6816799640655518
0.699455587,0,0,0.4381389021873474,0,0,2.828279972076416
0.700456614,0,0,0.12210428714752197,0,0,1.070159912109375
0.701453678,0,0,-0.009576806798577309,0,0,0.5350799560546875
0.702454983,0,0,0.43335050344467163,0,0,9.096360206604004
0.703454806,0,0,1.3694833517074585,0,0,-30.19379997253418
0.704455055,0,0,1.7693150043487549,0,0,0.6879600286483765
0.705455323,0,0,2.9161376953125,0,0,0.5350799560546875
0.706455572,0,0,2.7030537128448486,0,0,2.904719829559326
0.707455321,0,0,2.561795711517334,0,0,1.375920057296753
0.70845707,0,0,1.7190368175506592,0,0,2.6754000186920166
0.709458523,0,0,0.5315127968788147,0,0,2.2167599201202393
0.710458735,0,0,0.7469909191131592,0,0,0.305759996175766
0.711455169,0,0,0.3902548849582672,0,0,0.305759996175766
0.712455177,0,0,1.161187767982483,0,0,8.790599822998047
0.713469464,0,0,2.9305028915405273,0,0,0.3822000026702881
0.716494766,0,0,2.9305028915405273,0,0,2.06387996673584
0.71687017,0,0,2.497152328491211,0,0,2.2932000160217285
0.71724424,0,0,2.497152328491211,0,0,2.14031982421875
0.717617588,0,0,2.3367409706115723,0,0,1.375920057296753
0.718461042,0,0,0.7326257228851318,0,0,2.6754000186920166
0.719455699,0,0,0.09576806426048279,0,0,0.7644000053405762
0.720457448,0,0,0.10534487664699554,0,0,0.2293200045824051
0.721453734,0,0,0.4572925269603729,0,0,-30.499561309814453
0.722454983,0,0,1.2761094570159912,0,0,8.867039680480957
0.723454992,0,0,1.764526605606079,0,0,0.611519992351532
0.724457056,0,0,2.647987127304077,0,0,8.867039680480957
0.725453657,0,0,3.028665065765381,0,0,1.6816799640655518
0.726454091,0,0,2.889801502227783,0,0,1.375920057296753
0.727457433,0,0,2.054224967956543,0,0,2.904719829559326
0.728456811,0,0,0.24420857429504395,0,0,2.751840114593506
0.729482671,0,0,0.002394201699644327,0,0,0
0.730456161,0,0,0.019153613597154617,0,0,0.9937199950218201
0.731454503,0,0,0.5889736413955688,0,0,8.331960678100586
0.732456697,0,0,1.316810965538025,0,0,0
0.733452464,0,0,2.0877439975738525,0,0,8.867039680480957
0.734453584,0,0,2.9448680877685547,0,0,9.478560447692871
0.735455352,0,0,2.717418909072876,0,0,2.522519826889038
0.736456212,0,0,3.177105665206909,0,0,1.2994799613952637
0.737452572,0,0,1.7286136150360107,0,0,3.9748799800872803
0.738522987,0,0,0.5817909836769104,0,0,1.375920057296753
0.73966655,0,0,0.40940847992897034,0,0,1.070159912109375
0.740461449,0,0,0.12928688526153564,0,0,0.6879600286483765
0.741454661,0,0,0.8523358106613159,0,0,9.096360206604004
0.742455151,0,0,1.015141487121582,0,0,0.152879998087883
0.743455678,0,0,2.2840683460235596,0,0,9.019920349121094
0.744457205,0,0,2.8586769104003906,0,0,0.6879600286483765
0.74545312,0,0,2.8395233154296875,0,0,1.223039984703064
0.746454721,0,0,2.913743495941162,0,0,1.452359914779663
0.747470785,0,0,0.9289502501487732,0,0,2.904719829559326
0.748457386,0,0,0.26336219906806946,0,0,1.1466000080108643
0.749454024,0,0,-0.4118026793003082,0,0,1.375920057296753
0.750454736,0,0,-0.2561795711517334,0,0,9.172800064086914
0.751454874,0,0,0.9169792532920837,0,0,0
0.752456549,0,0,1.3431471586227417,0,0,-0.4586400091648102
0.753453539,0,0,2.999934673309326,0,0,-29.888038635253906
0.754454529,0,0,3.0142998695373535,0,0,2.2167599201202393
0.755454612,0,0,3.0166940689086914,0,0,1.605239987373352
0.756456694,0,0,1.98958158493042,0,0,2.9811599254608154
0.757453702,0,0,0.3902548849582672,0,0,2.6754000186920166
0.758454137,0,0,0.24899697303771973,0,0,0.9172800183296204
0.759454923,0,0,-0.12449848651885986,0,0,1.2994799613952637
0.760456209,0,0,0.7924807667732239,0,0,8.25551986694336
0.761453347,0,0,1.3527239561080933,0,0,0.5350799560546875
0.762454781,0,0,2.4205379486083984,0,0,8.484840393066406
0.763454919,0,0,3.1507694721221924,0,0,1.375920057296753
0.764457409,0,0,2.942473888397217,0,0,2.3696401119232178
0.765453954,0,0,2.7102363109588623,0,0,1.1466000080108643
0.766454167,0,0,1.05105459690094,0,0,3.3633599281311035
0.76745486,0,0,0.181959331035614,0,0,1.452359914779663
0.768456961,0,0,0.2346317619085312,0,0,0.8408399820327759
0.769452729,0,0,0.21787235140800476,0,0,0
0.770454274,0,0,1.0295066833496094,0,0,8.484840393066406
0.771454671,0,0,1.479616641998291,0,0,9.478560447692871
0.772456569,0,0,2.715024709701538,0,0,8.40839958190918
0.773453521,0,0,2.585737943649292,0,0,1.6816799640655518
0.774454863,0,0,2.738966703414917,0,0,1.070159912109375
0.775454779,0,0,1.9608511924743652,0,0,2.2167599201202393
0.776459047,0,0,0.2968810200691223,0,0,3.134040117263794
0.777457296,0,0,0.15322890877723694,0,0,0.305759996175766
0.778455174,0,0,-0.0071826050989329815,0,0,1.758120059967041
0.779454886,0,0,0.6200982332229614,0,0,8.790599822998047
0.780555283,0,0,1.1659762859344482,0,0,9.478560447692871
0.781456125,0,0,1.9752163887023926,0,0,0
0.782455541,0,0,2.9041666984558105,0,0,0.305759996175766
0.783414383,0,0,2.427720546722412,0,0,2.14031982421875
0.784412929,0,0,3.2992098331451416,0,0,0.8408399820327759
0.785412085,0,0,1.4891934394836426,0,0,2.9811599254608154
0.786411538,0,0,0.5650315880775452,0,0,2.06387996673584
0.787411806,0,0,0.47165772318840027,0,0,0.9172800183296204
0.788414499,0,0,0.026336219161748886,0,0,0.9172800183296204
0.789410304,0,0,1.0893617868423462,0,0,8.790599822998047
0.79041122,0,0,1.2521674633026123,0,0,0.3822000026702881
0.791412006,0,0,2.2601263523101807,0,0,8.561279296875
0.792412088,0,0,2.6647465229034424,0,0,2.14031982421875
0.793427893,0,0,2.5689783096313477,0,0,0.8408399820327759
0.794413179,0,0,2.3942017555236816,0,0,1.8345600366592407
0.795412021,0,0,0.9720458984375,0,0,2.751840114593506
0.7964139,0,0,0.8164227604866028,0,0,0.2293200045824051
0.79740926,0,0,0.629675030708313,0,0,1.223039984703064
0.798411046,0,0,0.5602431893348694,0,0,9.707880020141602
0.799411999,0,0,0.8978256583213806,0,0,9.325679779052734
0.800413285,0,0,1.0127472877502441,0,0,0
0.80141133,0,0,2.075772762298584,0,0,0
0.802411376,0,0,2.161964178085327,0,0,2.06387996673584
0.803412458,0,0,2.518700122833252,0,0,0.152879998087883
0.804413337,0,0,1.8339585065841675,0,0,2.06387996673584
0.805410716,0,0,1.1468225717544556,0,0,1.5288000106811523
0.806412206,0,0,1.0989385843276978,0,0,0.5350799560546875
0.807411862,0,0,0.7852981686592102,0,0,1.2994799613952637
0.808413667,0,0,1.139639973640442,0,0,-30.19379997253418
0.809410749,0,0,1.1803414821624756,0,0,0.9172800183296204
0.810411665,0,0,1.556231141090393,0,0,-29.582279205322266
0.81141171,0,0,2.0231003761291504,0,0,0.611519992351532
0.812412885,0,0,2.1547815799713135,0,0,1.6816799640655518
0.813410968,0,0,2.5522189140319824,0,0,0
0.814411717,0,0,1.3048399686813354,0,0,3.4398000240325928
0.815411799,0,0,1.216254472732544,0,0,0.9937199950218201
0.81641366,0,0,1.0127472877502441,0,0,0.9172800183296204
0.817410353,0,0,0.7565677165985107,0,0,0.152879998087883
0.818411917,0,0,1.2689268589019775,0,0,-29.888038635253906
0.81941037,0,0,1.0797849893569946,0,0,1.1466000080108643
0.820413712,0,0,1.9057846069335938,0,0,9.172800064086914
0.821410461,0,0,1.6663644313812256,0,0,1.605239987373352
0.822411747,0,0,2.1571757793426514,0,0,0.9172800183296204
0.823411866,0,0,1.9177556037902832,0,0,1.1466000080108643
0.824413541,0,0,0.48602294921875,0,0,2.5989599227905273
0.82541042,0,0,1.1492167711257935,0,0,9.402119636535645
0.826411373,0,0,0.8427590131759644,0,0,1.223039984703064
0.827411844,0,0,1.1276689767837524,0,0,8.867039680480957
0.828413649,0,0,1.4700398445129395,0,0,0.5350799560546875
0.829410491,0,0,1.41257905960083,0,0,0.2293200045824051
0.830411647,0,0,2.319981336593628,0,0,0.4586400091648102
0.831411637,0,0,1.8387469053268433,0,0,2.14031982421875
0.832413442,0,0,2.492363929748535,0,0,0.7644000053405762
0.833410209,0,0,1.381454348564148,0,0,3.516240119934082
0.834410199,0,0,0.545877993106842,0,0,1.375920057296753
0.835411504,0,0,1.2545616626739502,0,0,9.478560447692871
0.836413234,0,0,1.1994950771331787,0,0,1.223039984703064
0.837410298,0,0,1.766920804977417,0,0,-0.4586400091648102
0.838411233,0,0,1.5658079385757446,0,0,0.8408399820327759
0.839411445,0,0,2.0638017654418945,0,0,0.0764399990439415
0.840412972,0,0,2.0805611610412598,0,0,1.6816799640655518
0.841409387,0,0,1.9321208000183105,0,0,1.452359914779663
0.842411544,0,0,1.86508309841156,0,0,1.1466000080108643
0.84341183,0,0,0.42616790533065796,0,0,3.516240119934082
0.844413098,0,0,0.8259995579719543,0,0,-1.070159912109375
0.845410643,0,0,0.933738648891449,0,0,0.6879600286483765
0.846411911,0,0,1.256955862045288,0,0,0
0.847411975,0,0,1.4413094520568848,0,0,-29.582279205322266
0.848413279,0,0,1.3503297567367554,0,0,1.1466000080108643
0.849410751,0,0,2.0422539710998535,0,0,-9.784319877624512
0.850412185,0,0,1.9321208000183105,0,0,1.758120059967041
0.851411878,0,0,2.38462495803833,0,0,0.9172800183296204
0.852413183,0,0,1.5945383310317993,0,0,2.446079969406128
0.853410321,0,0,0.6416460275650024,0,0,1.8345600366592407
0.854411663,0,0,0.933738648891449,0,0,9.096360206604004
0.855412801,0,0,0.912190854549408,0,0,0.9937199950218201
0.856413606,0,0,1.9057846069335938,0,0,9.402119636535645
0.857423947,0,0,1.680729627609253,0,0,1.375920057296753
0.858412326,0,0,2.207453966140747,0,0,0.7644000053405762
0.859411927,0,0,2.516305923461914,0,0,1.1466000080108643
0.860412991,0,0,2.4803929328918457,0,0,2.9811599254608154
0.861409796,0,0,2.6815059185028076,0,0,1.8345600366592407
0.862410397,0,0,1.1061211824417114,0,0,3.134040117263794
0.863410849,0,0,0.8882488012313843,0,0,0.3822000026702881
0.864413413,0,0,1.1228805780410767,0,0,9.631440162658691
0.865410922,0,0,1.1851298809051514,0,0,0.305759996175766
0.866411486,0,0,2.4684219360351563,0,0,-29.582279205322266
0.867411957,0,0,1.889025092124939,0,0,1.223039984703064
0.868413465,0,0,2.2625205516815186,0,0,0
0.869410677,0,0,1.920149803161621,0,0,1.375920057296753
0.870411963,0,0,1.5179238319396973,0,0,1.9109998941421509
0.871411546,0,0,1.5059528350830078,0,0,0.611519992351532
0.872412573,0,0,0.1388636976480484,0,0,2.2932000160217285
0.873415359,0,0,0.5793967843055725,0,0,8.714159965515137
0.874411978,0,0,1.2306196689605713,0,0,0.6879600286483765
0.875411524,0,0,1.403002142906189,0,0,0
0.876415051,0,0,2.473210334777832,0,0,9.019920349121094
0.877409096,0,0,1.9249382019042969,0,0,2.2167599201202393
0.878415475,0,0,2.0231003761291504,0,0,0.3822000026702881
0.879412705,0,0,2.145204782485962,0,0,1.9874399900436401
0.880478584,0,0,1.9512743949890137,0,0,2.3696401119232178
0.881414963,0,0,1.98958158493042,0,0,0.8408399820327759
0.882411805,0,0,0.7829039692878723,0,0,2.5989599227905273
0.883521238,0,0,0.8810662031173706,0,0,-29.888038635253906
0.884457136,0,0,1.5658079385757446,0,0,1.5288000106811523
0.885452552,0,0,1.5203180313110352,0,0,0.3822000026702881
0.886455023,0,0,2.473210334777832,0,0,-0.611519992351532
0.887455179,0,0,2.408566951751709,0,0,2.5989599227905273
0.888456354,0,0,2.118868589401245,0,0,0.4586400091648102
0.8894529,0,0,2.5019407272338867,0,0,1.452359914779663
0.890454927,0,0,1.7693150043487549,0,0,3.0576000213623047
0.89145462,0,0,1.987187385559082,0,0,0.8408399820327759
0.892456369,0,0,1.1540051698684692,0,0,2.522519826889038
0.893453748,0,0,0.5219359993934631,0,0,0.5350799560546875
0.894454812,0,0,1.259350061416626,0,0,9.402119636535645
0.89545458,0,0,1.501164436340332,0,0,0.3822000026702881
0.896456014,0,0,1.721431016921997,0,0,8.331960678100586
0.897452133,0,0,2.2457611560821533,0,0,1.1466000080108643
0.898452827,0,0,1.161187767982483,0,0,-9.096360206604004
0.90044464,0,0,1.6519991159439087,0,0,1.452359914779663
0.900868154,0,0,1.7908629179000854,0,0,2.6754000186920166
0.901490389,0,0,1.3742717504501343,0,0,1.375920057296753
0.902494082,0,0,2.0039467811584473,0,0,1.9874399900436401
0.903485702,0,0,1.2880805730819702,0,0,2.6754000186920166
0.90447697,0,0,1.2330138683319092,0,0,0.305759996175766
0.905474904,0,0,2.1811177730560303,0,0,0.9172800183296204
0.906480412,0,0,1.8267759084701538,0,0,0.3822000026702881
0.907463976,0,0,2.4899697303771973,0,0,-29.888038635253906
0.908455096,0,0,2.097320795059204,0,0,1.758120059967041
0.909455789,0,0,1.5849615335464478,0,0,0.6879600286483765
0.910455761,0,0,2.1715409755706787,0,0,0.9937199950218201
0.911455399,0,0,1.647210717201233,0,0,3.0576000213623047
0.912463277,0,0,1.403002142906189,0,0,1.070159912109375
0.913454045,0,0,1.6927006244659424,0,0,2.06387996673584
0.914455091,0,0,0.9217676520347595,0,0,1.758120059967041
0.915455043,0,0,1.1994950771331787,0,0,0
0.916455663,0,0,1.8171991109848022,0,0,0.6879600286483765
0.917454764,0,0,1.821987509727478,0,0,0.152879998087883
0.918455513,0,0,2.2218191623687744,0,0,-0.611519992351532
0.919455521,0,0,1.922544002532959,0,0,0.4586400091648102
0.920456363,0,0,1.6041151285171509,0,0,1.1466000080108643
0.921482279,0,0,2.121262788772583,0,0,1.1466000080108643
0.922458954,0,0,1.556231141090393,0,0,2.2167599201202393
0.92345474,0,0,1.1755530834197998,0,0,1.9109998941421509
0.924455156,0,0,1.8100165128707886,0,0,1.5288000106811523
0.925454775,0,0,1.139639973640442,0,0,2.2932000160217285
0.926454691,0,0,0.8762778043746948,0,0,0.9937199950218201
0.92745544,0,0,2.0590133666992188,0,0,-9.707880020141602
0.928457023,0,0,2.0183119773864746,0,0,0.611519992351532
0.929464383,0,0,1.9081788063049316,0,0,0.3822000026702881
0.930459021,0,0,2.097320795059204,0,0,0
0.931455029,0,0,1.3886369466781616,0,0,1.1466000080108643
0.932456871,0,0,1.534683346748352,0,0,1.070159912109375
0.933454472,0,0,1.5897499322891235,0,0,1.452359914779663
0.934454425,0,0,1.623268723487854,0,0,1.452359914779663
0.935454877,0,0,1.5849615335464478,0,0,2.6754000186920166
0.936456515,0,0,1.7621324062347412,0,0,0.305759996175766
0.937453339,0,0,1.3024457693099976,0,0,1.605239987373352
0.938455125,0,0,1.678335428237915,0,0,0.9172800183296204
0.939455115,0,0,2.2170307636260986,0,0,0.4586400091648102
0.940456771,0,0,1.5825673341751099,0,0,1.8345600366592407
0.941453224,0,0,1.9512743949890137,0,0,0.8408399820327759
0.942454862,0,0,1.6065093278884888,0,0,0.4586400091648102
0.943454463,0,0,1.41257905960083,0,0,2.14031982421875
0.944456286,0,0,1.5179238319396973,0,0,0.2293200045824051
0.945453591,0,0,2.1045033931732178,0,0,0.305759996175766
0.946454821,0,0,2.0398597717285156,0,0,0.9172800183296204
0.947454533,0,0,2.0805611610412598,0,0,1.6816799640655518
0.948455023,0,0,1.9297266006469727,0,0,0.8408399820327759
0.949455624,0,0,0.9457096457481384,0,0,2.3696401119232178
0.950454373,0,0,1.0582371950149536,0,0,0.9172800183296204
0.951453715,0,0,1.5059528350830078,0,0,0.6879600286483765
0.952456909,0,0,1.599326729774475,0,0,1.070159912109375
0.953452899,0,0,1.7286136150360107,0,0,-29.582279205322266
0.954454703,0,0,2.161964178085327,0,0,-29.582279205322266
0.955455323,0,0,1.9321208000183105,0,0,1.2994799613952637
0.956456757,0,0,1.4460978507995605,0,0,0
0.957453728,0,0,1.4389152526855469,0,0,0.9172800183296204
0.958454866,0,0,1.647210717201233,0,0,1.8345600366592407
0.959455004,0,0,1.2473790645599365,0,0,1.375920057296753
0.960457198,0,0,1.6376339197158813,0,0,1.223039984703064
0.961453317,0,0,1.5083470344543457,0,0,1.9109998941421509
0.962454955,0,0,1.1994950771331787,0,0,1.1466000080108643
0.963455945,0,0,2.051830768585205,0,0,0.611519992351532
0.96446649,0,0,2.054224967956543,0,0,1.1466000080108643
0.965480017,0,0,2.2002713680267334,0,0,0.9172800183296204
0.966481989,0,0,2.2433669567108154,0,0,0.2293200045824051
0.967463923,0,0,1.6903064250946045,0,0,1.5288000106811523
0.968462654,0,0,1.2282254695892334,0,0,0.8408399820327759
0.969454792,0,0,1.036689281463623,0,0,0.5350799560546875
0.970454356,0,0,1.4748282432556152,0,0,0.9937199950218201
0.971454364,0,0,1.5394717454910278,0,0,1.2994799613952637
0.972454928,0,0,2.006340980529785,0,0,1.2994799613952637
0.974307613,0,0,2.006340980529785,0,0,0.7644000053405762
0.97470259,0,0,1.7908629179000854,0,0,1.8345600366592407
0.975470064,0,0,1.9129672050476074,0,0,1.605239987373352
0.976455332,0,0,1.6639702320098877,0,0,0.0764399990439415
0.977843707,0,0,1.9728221893310547,0,0,1.223039984703064
0.978453219,0,0,2.0398597717285156,0,0,0.611519992351532
0.979451209,0,0,2.0829553604125977,0,0,0.2293200045824051
0.980450588,0,0,1.9057846069335938,0,0,0.6879600286483765
0.981548687,0,0,1.3670891523361206,0,0,0.9937199950218201
0.982451067,0,0,0.8571242094039917,0,0,0.3822000026702881
0.984459621,0,0,1.0271124839782715,0,0,0.0764399990439415
0.984818654,0,0,1.2306196689605713,0,0,0.9172800183296204
0.985448833,0,0,1.3503297567367554,0,0,0.9937199950218201
0.986454249,0,0,1.9177556037902832,0,0,1.1466000080108643
0.987450535,0,0,2.2864625453948975,0,0,1.5288000106811523
0.988448766,0,0,2.006340980529785,0,0,1.5288000106811523
0.989434941,0,0,1.6424223184585571,0,0,1.5288000106811523
0.990424134,0,0,1.6759412288665771,0,0,1.5288000106811523
0.991442124,0,0,1.7717092037200928,0,0,1.375920057296753
0.99244054,0,0,1.7621324062347412,0,0,0.6879600286483765
0.993440937,0,0,1.9153614044189453,0,0,1.223039984703064
0.994464686,0,0,1.8770540952682495,0,0,1.1466000080108643
0.99548612,0,0,1.3623007535934448,0,0,0.9172800183296204
0.996435722,0,0,0.8786720037460327,0,0,1.223039984703064
0.997437693,0,0,1.070208191871643,0,0,0.152879998087883
0.998456794,0,0,1.6879122257232666,0,0,0.5350799560546875
0.999434617,0,0,1.8315643072128296,0,0,1.452359914779663
1.000432588,0,0,2.0374655723571777,0,0,0.611519992351532
1.002718399,0,0,1.9991583824157715,0,0,1.9874399900436401
1.003093802,0,0,1.9991583824157715,0,0,2.446079969406128
1.003436243,0,0,1.6112977266311646,0,0,1.758120059967041
1.004436122,0,0,1.4413094520568848,0,0,1.375920057296753
1.005430612,0,0,1.6831238269805908,0,0,1.2994799613952637
1.006444268,0,0,1.9081788063049316,0,0,1.223039984703064
1.007729163,0,0,2.0805611610412598,0,0,0.0764399990439415
1.008436711,0,0,2.094926595687866,0,0,0.8408399820327759
1.00944109,0,0,2.0877439975738525,0,0,0.7644000053405762
1.010440191,0,0,1.170764684677124,0,0,0.8408399820327759
1.011444884,0,0,0.8020575642585754,0,0,0.3822000026702881
1.012450004,0,0,0.8762778043746948,0,0,0.2293200045824051
1.013440845,0,0,1.048660397529602,0,0,0.3822000026702881
1.014499872,0,0,1.3335703611373901,0,0,0.152879998087883
1.015476491,0,0,1.625662922859192,0,0,1.223039984703064
1.016424,0,0,2.319981336593628,0,0,1.070159912109375
1.017438694,0,0,2.011129379272461,0,0,2.5989599227905273
1.018451257,0,0,1.5945383310317993,0,0,2.14031982421875
1.019427007,0,0,1.6376339197158813,0,0,1.605239987373352
1.020413089,0,0,1.8315643072128296,0,0,1.2994799613952637
1.021416838,0,0,1.867477297782898,0,0,1.5288000106811523
1.022410884,0,0,1.8722656965255737,0,0,1.452359914779663
1.023430874,0,0,1.7884687185287476,0,0,1.223039984703064
1.024435752,0,0,2.0470423698425293,0,0,0.611519992351532
1.025540908,0,0,1.659181833267212,0,0,1.2994799613952637
1.026420306,0,0,1.2330138683319092,0,0,0.9172800183296204
1.027413703,0,0,1.1444283723831177,0,0,1.452359914779663
1.028414749,0,0,1.1994950771331787,0,0,0.611519992351532
1.029418313,0,0,1.659181833267212,0,0,0
1.030414321,0,0,1.9057846069335938,0,0,0.9937199950218201
1.031418959,0,0,1.9297266006469727,0,0,1.452359914779663
1.032501022,0,0,2.2194249629974365,0,0,1.758120059967041
1.033469531,0,0,1.6735470294952393,0,0,2.14031982421875
1.034419392,0,0,1.5107412338256836,0,0,1.5288000106811523
1.035410604,0,0,1.2306196689605713,0,0,2.06387996673584
1.036411482,0,0,1.7860745191574097,0,0,0.3822000026702881
1.037416139,0,0,2.3080103397369385,0,0,1.1466000080108643
1.038409333,0,0,2.3056161403656006,0,0,0.611519992351532
1.039408563,0,0,2.343923568725586,0,0,0.4586400091648102
1.040416868,0,0,1.9608511924743652,0,0,1.605239987373352
1.041420154,0,0,1.6855180263519287,0,0,0.5350799560546875
1.04241394,0,0,1.2186486721038818,0,0,1.070159912109375
1.043414967,0,0,0.5602431893348694,0,0,0.8408399820327759
1.044414438,0,0,0.5626373887062073,0,0,0
1.045417169,0,0,0.7852981686592102,0,0,0
1.046414362,0,0,1.3694833517074585,0,0,9.478560447692871
1.047413908,0,0,1.968033790588379,0,0,0.4586400091648102
1.048414601,0,0,1.9273324012756348,0,0,0.9172800183296204
1.049415165,0,0,2.190694570541382,0,0,1.605239987373352
1.050414766,0,0,2.276885747909546,0,0,2.522519826889038
1.051413923,0,0,1.601720929145813,0,0,1.758120059967041
1.052411468,0,0,1.7046716213226318,0,0,2.2932000160217285
1.053418199,0,0,1.5514427423477173,0,0,1.605239987373352
1.054415355,0,0,2.190694570541382,0,0,1.1466000080108643
1.055413401,0,0,2.3726539611816406,0,0,1.375920057296753
1.056414187,0,0,2.2194249629974365,0,0,0.8408399820327759
1.057418065,0,0,2.0159177780151367,0,0,1.2994799613952637
1.058415833,0,0,1.6400281190872192,0,0,0.7644000053405762
1.059414619,0,0,1.580173134803772,0,0,0.4586400091648102
1.060412313,0,0,1.5538369417190552,0,0,0.9172800183296204
1.06344443,0,0,0.8307880163192749,0,0,0.611519992351532
1.063845667,0,0,0.7374141216278076,0,0,0.5350799560546875
1.064185663,0,0,0.7374141216278076,0,0,0
1.064523271,0,0,1.1540051698684692,0,0,0
1.06542741,0,0,1.5634137392044067,0,0,1.1466000080108643
1.066417678,0,0,1.5179238319396973,0,0,1.5288000106811523
1.067417353,0,0,1.4844050407409668,0,0,1.452359914779663
1.068418213,0,0,2.0231003761291504,0,0,1.758120059967041
1.069416592,0,0,1.9847931861877441,0,0,1.9874399900436401
1.070417119,0,0,2.2601263523101807,0,0,1.6816799640655518
1.071418886,0,0,2.1475989818573,0,0,1.605239987373352
1.072425709,0,0,2.011129379272461,0,0,1.6816799640655518
1.073509087,0,0,2.2409727573394775,0,0,0.9172800183296204
1.07446967,0,0,2.389413356781006,0,0,1.9109998941421509
1.075446919,0,0,2.161964178085327,0,0,0.8408399820327759
1.076437687,0,0,1.680729627609253,0,0,1.375920057296753
1.077439029,0,0,1.1971008777618408,0,0,0.6879600286483765
1.0784255,0,0,1.278503656387329,0,0,1.070159912109375
1.079424379,0,0,1.5729905366897583,0,0,0.611519992351532
1.080427702,0,0,1.5131354331970215,0,0,0.4586400091648102
1.08157332,0,0,1.2617442607879639,0,0,0
1.082452997,0,0,1.0797849893569946,0,0,0.7644000053405762
1.083438042,0,0,1.2282254695892334,0,0,0.305759996175766
1.08442031,0,0,1.280897855758667,0,0,0.611519992351532
1.085257412,0,0,1.6400281190872192,0,0,0.9937199950218201
1.086299772,0,0,1.6424223184585571,0,0,1.070159912109375
1.087297244,0,0,1.5921441316604614,0,0,1.6816799640655518
1.088387862,0,0,1.9512743949890137,0,0,1.9874399900436401
1.089273094,0,0,2.346317768096924,0,0,1.5288000106811523
1.090280176,0,0,2.2673089504241943,0,0,1.8345600366592407
1.091260722,0,0,2.27209734916687,0,0,1.1466000080108643
1.092261323,0,0,1.7597382068634033,0,0,1.8345600366592407
1.093268498,0,0,1.4389152526855469,0,0,0.9937199950218201
1.094275025,0,0,1.479616641998291,0,0,0.8408399820327759
1.095256829,0,0,1.8722656965255737,0,0,0.9172800183296204
1.096267097,0,0,1.7908629179000854,0,0,0.8408399820327759
1.097264957,0,0,1.599326729774475,0,0,0.305759996175766
1.098270836,0,0,1.3048399686813354,0,0,1.2994799613952637
1.099275455,0,0,0.993593692779541,0,0,0
1.10026576,0,0,1.2258312702178955,0,0,0.2293200045824051
1.101271398,0,0,1.7405846118927002,0,0,0.4586400091648102
1.102276888,0,0,1.4484920501708984,0,0,0.5350799560546875
1.103267952,0,0,1.4700398445129395,0,0,0.7644000053405762
1.104268442,0,0,1.314416766166687,0,0,1.1466000080108643
1.105277894,0,0,1.4628572463989258,0,0,1.070159912109375
1.106264329,0,0,1.5418659448623657,0,0,0.7644000053405762
1.107270541,0,0,1.5155296325683594,0,0,1.452359914779663
1.108271808,0,0,2.0254945755004883,0,0,1.070159912109375
1.109230669,0,0,2.1308395862579346,0,0,0.611519992351532
1.110225492,0,0,1.800439715385437,0,0,1.5288000106811523
1.111224204,0,0,2.10210919380188,0,0,1.5288000106811523
1.112223879,0,0,1.886630892753601,0,0,1.452359914779663
1.113224388,0,0,1.968033790588379,0,0,1.375920057296753
1.114224081,0,0,1.8315643072128296,0,0,1.375920057296753
1.115223942,0,0,1.6424223184585571,0,0,1.070159912109375
1.116223857,0,0,1.4676456451416016,0,0,0.7644000053405762
1.117224458,0,0,1.0965443849563599,0,0,1.1466000080108643
1.118223726,0,0,1.460463047027588,0,0,0
1.119223586,0,0,2.0685901641845703,0,0,1.223039984703064
1.120223669,0,0,2.166752576828003,0,0,1.223039984703064
1.121225936,0,0,2.169146776199341,0,0,1.070159912109375
1.122224463,0,0,1.625662922859192,0,0,1.452359914779663
1.123223601,0,0,1.235408067703247,0,0,1.070159912109375
1.124223646,0,0,1.039083480834961,0,0,1.223039984703064
1.125224488,0,0,1.2066776752471924,0,0,0.9172800183296204
1.126223626,0,0,1.766920804977417,0,0,0.7644000053405762
1.12722382,0,0,1.900996208190918,0,0,0.5350799560546875
1.128223402,0,0,2.030282974243164,0,0,0.8408399820327759
1.129225355,0,0,1.7860745191574097,0,0,1.8345600366592407
1.130224049,0,0,1.4053963422775269,0,0,0.7644000053405762
1.131223575,0,0,1.525106430053711,0,0,0.9172800183296204
1.132223695,0,0,1.7070658206939697,0,0,0.611519992351532
1.133224074,0,0,1.7597382068634033,0,0,0.7644000053405762
1.134223767,0,0,1.9177556037902832,0,0,0.9172800183296204
1.135223016,0,0,1.8507179021835327,0,0,1.2994799613952637
1.136223636,0,0,1.7501614093780518,0,0,1.2994799613952637
1.137224552,0,0,1.3742717504501343,0,0,1.5288000106811523
1.138223282,0,0,1.2737152576446533,0,0,1.223039984703064
1.139223068,0,0,1.6136919260025024,0,0,1.223039984703064
1.140223799,0,0,2.1308395862579346,0,0,0.152879998087883
1.141224104,0,0,2.2888567447662354,0,0,1.2994799613952637
1.142223797,0,0,2.2888567447662354,0,0,1.2994799613952637
1.143223639,0,0,1.7381904125213623,0,0,1.452359914779663
1.14422361,0,0,1.479616641998291,0,0,1.223039984703064
1.1452246,0,0,1.1109095811843872,0,0,0.9937199950218201
1.146223497,0,0,1.216254472732544,0,0,0.9172800183296204
1.147223598,0,0,1.534683346748352,0,0,0.305759996175766
1.148223532,0,0,2.1116859912872314,0,0,0.4586400091648102
1.149224245,0,0,2.410961151123047,0,0,0.6879600286483765
1.150223679,0,0,2.1930887699127197,0,0,0.4586400091648102
1.151223835,0,0,1.742978811264038,0,0,1.758120059967041
1.152223566,0,0,1.482010841369629,0,0,1.452359914779663
1.153227278,0,0,0.9002198576927185,0,0,1.1466000080108643
1.154226083,0,0,1.0989385843276978,0,0,1.1466000080108643
1.155225869,0,0,1.3527239561080933,0,0,1.6816799640655518
1.15622584,0,0,1.8052281141281128,0,0,0.9937199950218201
1.157227015,0,0,1.9752163887023926,0,0,0.6879600286483765
1.1582257089999999,0,0,1.8339585065841675,0,0,1.5288000106811523
1.159225643,0,0,1.7357962131500244,0,0,1.2994799613952637
1.160225337,0,0,1.4437036514282227,0,0,1.2994799613952637
1.161226771,0,0,1.091755986213684,0,0,0.9937199950218201
1.162225742,0,0,1.4197616577148438,0,0,0.8408399820327759
1.163225769,0,0,1.599326729774475,0,0,0.5350799560546875
1.16422587,0,0,1.944091796875,0,0,0.8408399820327759
1.165226767,0,0,2.118868589401245,0,0,1.070159912109375
1.166225868,0,0,2.255337953567505,0,0,1.605239987373352
1.16722571,0,0,1.9704279899597168,0,0,1.5288000106811523
1.168225718,0,0,1.4676456451416016,0,0,1.9109998941421509
1.169226745,0,0,1.4963760375976563,0,0,1.1466000080108643
1.170225939,0,0,1.4437036514282227,0,0,1.070159912109375
1.171225688,0,0,1.4628572463989258,0,0,0.611519992351532
1.172225974,0,0,1.9847931861877441,0,0,0.152879998087883
1.173226853,0,0,2.049436569213867,0,0,0.7644000053405762
1.174225694,0,0,2.0853497982025146,0,0,0.8408399820327759
1.175225869,0,0,1.9177556037902832,0,0,1.452359914779663
1.176225915,0,0,1.5753847360610962,0,0,1.758120059967041
1.17722696,0,0,1.2665326595306396,0,0,1.2994799613952637
1.178227357,0,0,1.1228805780410767,0,0,1.375920057296753
1.179225792,0,0,1.3934253454208374,0,0,0.7644000053405762
1.180225911,0,0,1.6974890232086182,0,0,1.2994799613952637
1.181225846,0,0,1.900996208190918,0,0,0.611519992351532
1.182225539,0,0,2.1571757793426514,0,0,0.3822000026702881
1.18322577,0,0,1.9129672050476074,0,0,0.8408399820327759
1.184225852,0,0,1.5921441316604614,0,0,1.223039984703064
1.185225842,0,0,1.5538369417190552,0,0,1.223039984703064
1.186225906,0,0,1.3048399686813354,0,0,1.375920057296753
1.187225896,0,0,1.3335703611373901,0,0,1.2994799613952637
1.188225923,0,0,1.3910311460494995,0,0,1.375920057296753
1.189226061,0,0,1.721431016921997,0,0,0.7644000053405762
1.19022555,0,0,1.8962076902389526,0,0,1.2994799613952637
1.191225818,0,0,1.889025092124939,0,0,0.305759996175766
1.192225826,0,0,1.9512743949890137,0,0,0.9937199950218201
1.193225816,0,0,1.9967641830444336,0,0,0.8408399820327759
1.194225806,0,0,1.534683346748352,0,0,0.8408399820327759
1.19522587,0,0,1.4508862495422363,0,0,0.9172800183296204
1.196225971,0,0,1.292868971824646,0,0,1.2994799613952637
1.197226924,0,0,1.3479355573654175,0,0,1.452359914779663
1.198225858,0,0,1.3718775510787964,0,0,0.6879600286483765
1.199225867,0,0,1.482010841369629,0,0,0.5350799560546875
1.200225579,0,0,1.8339585065841675,0,0,1.375920057296753
1.201226717,0,0,1.9488801956176758,0,0,0.2293200045824051
1.202225762,0,0,1.8052281141281128,0,0,1.375920057296753
1.203225344,0,0,1.9752163887023926,0,0,1.2994799613952637
1.204225871,0,0,1.5107412338256836,0,0,0.9172800183296204
1.205226787,0,0,1.5658079385757446,0,0,0.9172800183296204
1.206225851,0,0,1.381454348564148,0,0,0.9937199950218201
1.207225748,0,0,1.4508862495422363,0,0,1.070159912109375
1.208225831,0,0,1.625662922859192,0,0,0.7644000053405762
1.209226932,0,0,1.6328455209732056,0,0,1.070159912109375
1.210225884,0,0,1.8052281141281128,0,0,0.6879600286483765
1.211225708,0,0,1.7884687185287476,0,0,0.305759996175766
1.212225753,0,0,1.680729627609253,0,0,1.375920057296753
1.213226298,0,0,1.9177556037902832,0,0,1.223039984703064
1.214225251,0,0,1.6496049165725708,0,0,1.223039984703064
1.215647866,0,0,1.7142484188079834,0,0,1.2994799613952637
1.2162535270000001,0,0,1.7741034030914307,0,0,1.2994799613952637
1.2172369060000001,0,0,1.8267759084701538,0,0,1.1466000080108643
1.2182264329999999,0,0,1.7908629179000854,0,0,1.2994799613952637
1.219225941,0,0,1.6519991159439087,0,0,1.070159912109375
1.220226061,0,0,1.7573440074920654,0,0,0.7644000053405762
1.221227865,0,0,1.7142484188079834,0,0,0.9172800183296204
1.222226152,0,0,1.5131354331970215,0,0,0.9172800183296204
1.223225808,0,0,1.5849615335464478,0,0,0.611519992351532
1.2242256679999999,0,0,1.3886369466781616,0,0,0.6879600286483765
1.225226436,0,0,1.4245500564575195,0,0,0.7644000053405762
1.226225704,0,0,1.41257905960083,0,0,0.7644000053405762
1.227226045,0,0,1.403002142906189,0,0,0.8408399820327759
1.228225831,0,0,1.525106430053711,0,0,0.9937199950218201
1.229227155,0,0,1.455674648284912,0,0,1.1466000080108643
1.230231718,0,0,1.702277421951294,0,0,1.1466000080108643
1.231226764,0,0,1.8483237028121948,0,0,1.758120059967041
1.232226013,0,0,1.9177556037902832,0,0,0.9172800183296204
1.233227169,0,0,2.049436569213867,0,0,1.223039984703064
1.234226085,0,0,1.944091796875,0,0,1.452359914779663
1.235226168,0,0,1.778891921043396,0,0,1.605239987373352
1.236226083,0,0,1.8052281141281128,0,0,1.375920057296753
1.237227036,0,0,1.6424223184585571,0,0,1.070159912109375
1.238226008,0,0,1.6663644313812256,0,0,1.1466000080108643
1.239226201,0,0,1.577778935432434,0,0,1.1466000080108643
1.240226321,0,0,1.6400281190872192,0,0,0.7644000053405762
1.241226922,0,0,1.6065093278884888,0,0,0.9937199950218201
1.242225671,0,0,1.53707754611969,0,0,0.0764399990439415
1.243225309,0,0,1.5203180313110352,0,0,0.8408399820327759
1.244225724,0,0,1.5083470344543457,0,0,0.9172800183296204
1.245226955,0,0,1.256955862045288,0,0,0.7644000053405762
1.246225297,0,0,1.4460978507995605,0,0,0.9937199950218201
1.247225713,0,0,1.4963760375976563,0,0,0.8408399820327759
1.248225869,0,0,1.625662922859192,0,0,1.375920057296753
1.249226711,0,0,1.644816517829895,0,0,0.9937199950218201
1.250225738,0,0,1.5849615335464478,0,0,1.1466000080108643
1.251225987,0,0,1.8124107122421265,0,0,1.070159912109375
1.25222594,0,0,2.0398597717285156,0,0,0.305759996175766
1.253226689,0,0,1.9584569931030273,0,0,1.1466000080108643
1.254225919,0,0,1.9536685943603516,0,0,1.070159912109375
1.2552260020000001,0,0,1.5897499322891235,0,0,1.1466000080108643
1.2562257510000001,0,0,1.745373010635376,0,0,0.9172800183296204
1.257226685,0,0,1.5322890281677246,0,0,1.070159912109375
1.258225879,0,0,1.2952631711959839,0,0,0.9937199950218201
1.259243442,0,0,1.3287819623947144,0,0,0.7644000053405762
1.260227784,0,0,1.482010841369629,0,0,0.7644000053405762
1.261226774,0,0,1.8938134908676147,0,0,0.5350799560546875
1.262225875,0,0,1.8315643072128296,0,0,0.9172800183296204
1.263225846,0,0,1.644816517829895,0,0,1.070159912109375
1.26422604,0,0,1.6615760326385498,0,0,0.8408399820327759
1.265226808,0,0,1.2617442607879639,0,0,0.9937199950218201
1.2662255199999999,0,0,1.3742717504501343,0,0,0.5350799560546875
1.267225935,0,0,1.4173674583435059,0,0,0.6879600286483765
1.268225314,0,0,1.5921441316604614,0,0,0.9937199950218201
1.269226748,0,0,1.8722656965255737,0,0,0.4586400091648102
1.270225868,0,0,1.7884687185287476,0,0,1.605239987373352
1.271225765,0,0,1.8315643072128296,0,0,0.9937199950218201
1.272225903,0,0,1.7334020137786865,0,0,2.06387996673584
1.273226893,0,0,1.4939818382263184,0,0,0.9937199950218201
1.274226068,0,0,1.8148049116134644,0,0,0.9937199950218201
1.27522578,0,0,1.6735470294952393,0,0,0.9172800183296204
1.2762260109999999,0,0,1.6759412288665771,0,0,0.9937199950218201
1.277227001,0,0,1.7477672100067139,0,0,0.9172800183296204
1.278225768,0,0,1.6424223184585571,0,0,0.7644000053405762
1.279225906,0,0,1.4748282432556152,0,0,1.1466000080108643
1.280225859,0,0,1.1971008777618408,0,0,1.1466000080108643
1.281226886,0,0,1.3048399686813354,0,0,0.7644000053405762
1.282225857,0,0,1.436521053314209,0,0,2.06387996673584
1.283225625,0,0,1.7908629179000854,0,0,0.5350799560546875
1.284225726,0,0,2.3104045391082764,0,0,0.9172800183296204
1.285226864,0,0,1.8914192914962769,0,0,1.605239987373352
1.28622528,0,0,1.6160861253738403,0,0,1.2994799613952637
1.28722564,0,0,1.599326729774475,0,0,1.605239987373352
1.288225648,0,0,1.7573440074920654,0,0,1.223039984703064
1.289244286,0,0,1.8052281141281128,0,0,1.375920057296753
1.290226609,0,0,1.9321208000183105,0,0,0.9172800183296204
1.2912259320000001,0,0,2.10210919380188,0,0,0.8408399820327759
1.292225848,0,0,2.0159177780151367,0,0,1.9109998941421509
1.2932277079999999,0,0,1.7310078144073486,0,0,0.305759996175766
1.2942256429999999,0,0,1.6927006244659424,0,0,1.2994799613952637
1.2952257249999999,0,0,1.5729905366897583,0,0,1.1466000080108643
1.296225845,0,0,1.4245500564575195,0,0,0.5350799560546875
1.297226835,0,0,1.659181833267212,0,0,0.9172800183296204
1.298225639,0,0,1.5634137392044067,0,0,0.8408399820327759
1.299225777,0,0,1.678335428237915,0,0,1.223039984703064
1.300225915,0,0,1.5921441316604614,0,0,1.2994799613952637
1.301226572,0,0,1.6184803247451782,0,0,0.8408399820327759
1.302225802,0,0,1.7741034030914307,0,0,1.605239987373352
1.303225885,0,0,1.8531121015548706,0,0,0.0764399990439415
1.304225819,0,0,1.8315643072128296,0,0,1.375920057296753
1.30522679,0,0,1.9967641830444336,0,0,1.452359914779663
1.3062259649999999,0,0,1.6352397203445435,0,0,1.070159912109375
1.307225844,0,0,1.6112977266311646,0,0,1.070159912109375
1.308225612,0,0,1.45806884765625,0,0,0.8408399820327759
1.30922699,0,0,1.479616641998291,0,0,1.1466000080108643
1.310228388,0,0,1.5394717454910278,0,0,0.5350799560546875
1.311225489,0,0,1.53707754611969,0,0,0.6879600286483765
1.312225849,0,0,1.7549498081207275,0,0,0.8408399820327759
1.3132270240000001,0,0,1.580173134803772,0,0,0.0764399990439415
1.314225792,0,0,1.479616641998291,0,0,1.223039984703064
1.315225818,0,0,1.8148049116134644,0,0,0.9172800183296204
1.316225716,0,0,1.4987702369689941,0,0,1.1466000080108643
1.317226983,0,0,1.6615760326385498,0,0,1.1466000080108643
1.318225992,0,0,1.659181833267212,0,0,0.9937199950218201
1.319225704,0,0,1.6376339197158813,0,0,1.452359914779663
1.320225897,0,0,1.8555063009262085,0,0,1.070159912109375
1.321226739,0,0,1.8171991109848022,0,0,1.8345600366592407
1.322225821,0,0,1.8770540952682495,0,0,1.223039984703064
1.3232260519999999,0,0,1.9919757843017578,0,0,0.7644000053405762
1.324225709,0,0,1.889025092124939,0,0,1.375920057296753
1.325226698,0,0,2.0829553604125977,0,0,0.8408399820327759
1.326226003,0,0,1.7070658206939697,0,0,1.1466000080108643
1.327225641,0,0,1.5131354331970215,0,0,0.9172800183296204
1.328225724,0,0,1.3958195447921753,0,0,0.9937199950218201
1.329226232,0,0,1.2665326595306396,0,0,0.8408399820327759
1.3302257769999999,0,0,1.3263877630233765,0,0,0.8408399820327759
1.331225656,0,0,1.2234370708465576,0,0,1.2994799613952637
1.332225553,0,0,1.4676456451416016,0,0,0.4586400091648102
1.3332256359999999,0,0,1.5825673341751099,0,0,1.5288000106811523
1.334225885,0,0,1.5897499322891235,0,0,0.9937199950218201
1.335225986,0,0,1.9297266006469727,0,0,0.7644000053405762
1.336225772,0,0,1.8507179021835327,0,0,1.223039984703064
1.33722604,0,0,1.8555063009262085,0,0,1.5288000106811523
1.33822577,0,0,1.8387469053268433,0,0,1.758120059967041
1.339225816,0,0,1.7932571172714233,0,0,1.375920057296753
1.340225639,0,0,1.9081788063049316,0,0,1.5288000106811523
1.3412260919999999,0,0,1.821987509727478,0,0,1.2994799613952637
1.342225878,0,0,1.9177556037902832,0,0,0.7644000053405762
1.343225775,0,0,1.9057846069335938,0,0,0.9937199950218201
1.344225654,0,0,1.699883222579956,0,0,0
1.345226218,0,0,1.7070658206939697,0,0,0.5350799560546875
1.346225985,0,0,1.6519991159439087,0,0,0.611519992351532
1.347225697,0,0,1.3335703611373901,0,0,0.5350799560546875
1.34822565,0,0,1.3120225667953491,0,0,0.4586400091648102
1.349226195,0,0,1.0821791887283325,0,0,0.611519992351532
1.350225611,0,0,1.1755530834197998,0,0,0.8408399820327759
1.351225453,0,0,1.292868971824646,0,0,0.6879600286483765
1.352225609,0,0,1.4963760375976563,0,0,1.1466000080108643
1.3532265620000001,0,0,1.8387469053268433,0,0,0.7644000053405762
1.354225367,0,0,1.9560627937316895,0,0,0.2293200045824051
1.355225542,0,0,2.0422539710998535,0,0,1.6816799640655518
1.356225773,0,0,2.0470423698425293,0,0,1.5288000106811523
1.357226596,0,0,1.6639702320098877,0,0,0.8408399820327759
1.358225956,0,0,1.6927006244659424,0,0,1.1466000080108643
1.359225668,0,0,1.525106430053711,0,0,0.9172800183296204
1.3602256019999999,0,0,1.5921441316604614,0,0,1.223039984703064
1.361226777,0,0,1.6927006244659424,0,0,0.6879600286483765
1.362225804,0,0,1.7812861204147339,0,0,0.9937199950218201
1.363225887,0,0,1.9369091987609863,0,0,0.9937199950218201
1.364225728,0,0,1.889025092124939,0,0,0.5350799560546875
1.365226681,0,0,1.623268723487854,0,0,1.5288000106811523
1.366225875,0,0,1.723825216293335,0,0,0.9937199950218201
1.367225476,0,0,1.3527239561080933,0,0,0.9172800183296204
1.368225762,0,0,1.4891934394836426,0,0,0.9172800183296204
1.369226715,0,0,1.50355863571167,0,0,0.8408399820327759
1.370225779,0,0,1.534683346748352,0,0,1.1466000080108643
1.371225935,0,0,1.7142484188079834,0,0,0.7644000053405762
1.372225684,0,0,1.721431016921997,0,0,1.070159912109375
1.373226785,0,0,1.9608511924743652,0,0,1.2994799613952637
1.374225664,0,0,2.054224967956543,0,0,1.452359914779663
1.375225617,0,0,1.7860745191574097,0,0,1.6816799640655518
1.376225458,0,0,1.778891921043396,0,0,1.070159912109375
1.3772294299999999,0,0,1.3623007535934448,0,0,1.1466000080108643
1.3782257900000001,0,0,1.455674648284912,0,0,1.070159912109375
1.3792257430000001,0,0,1.4676456451416016,0,0,0.4586400091648102
1.3802258250000001,0,0,1.4460978507995605,0,0,0.5350799560546875
1.381226185,0,0,1.7573440074920654,0,0,0.5350799560546875
1.382225879,0,0,1.6711528301239014,0,0,1.375920057296753
1.383225906,0,0,2.0254945755004883,0,0,0.611519992351532
1.384225711,0,0,1.9991583824157715,0,0,2.14031982421875
1.385225682,0,0,1.678335428237915,0,0,1.758120059967041
1.386226024,0,0,1.7190368175506592,0,0,1.223039984703064
1.38722568,0,0,1.37906014919281,0,0,1.375920057296753
1.388225763,0,0,1.314416766166687,0,0,1.070159912109375
1.389226326,0,0,1.5107412338256836,0,0,1.070159912109375
1.3902259639999999,0,0,1.6184803247451782,0,0,1.1466000080108643
1.391225714,0,0,1.9033904075622559,0,0,0.5350799560546875
1.392225907,0,0,1.920149803161621,0,0,1.223039984703064
1.39322573,0,0,1.9057846069335938,0,0,0.8408399820327759
1.394225331,0,0,1.644816517829895,0,0,1.8345600366592407
1.395225803,0,0,1.3407529592514038,0,0,0.2293200045824051
1.3962257,0,0,1.2449848651885986,0,0,0.7644000053405762
1.397226579,0,0,1.338358759880066,0,0,0.611519992351532
1.39822555,0,0,1.436521053314209,0,0,0.5350799560546875
1.399225892,0,0,1.8531121015548706,0,0,0.8408399820327759
1.400225844,0,0,1.98958158493042,0,0,0.9172800183296204
1.401226742,0,0,1.9249382019042969,0,0,1.5288000106811523
1.402225713,0,0,1.6304513216018677,0,0,1.6816799640655518
1.403225869,0,0,1.4891934394836426,0,0,1.223039984703064
1.404225915,0,0,1.4867992401123047,0,0,1.758120059967041
1.405226794,0,0,1.5969325304031372,0,0,0.4586400091648102
1.4062255430000001,0,0,1.8746598958969116,0,0,0.7644000053405762
1.40722581,0,0,2.2840683460235596,0,0,0.9937199950218201
1.408225745,0,0,2.2385785579681396,0,0,0.7644000053405762
1.409227827,0,0,2.0685901641845703,0,0,0.8408399820327759
1.410226928,0,0,1.4724340438842773,0,0,1.452359914779663
1.41122601,0,0,1.1994950771331787,0,0,1.5288000106811523
1.412225667,0,0,1.036689281463623,0,0,0.9172800183296204
1.4132268049999999,0,0,1.1875240802764893,0,0,0.3822000026702881
1.414225887,0,0,1.6735470294952393,0,0,0.5350799560546875
1.415225766,0,0,2.0877439975738525,0,0,0
1.416225497,0,0,2.0159177780151367,0,0,0.9937199950218201
1.41722682,0,0,2.0159177780151367,0,0,1.1466000080108643
1.4182257169999999,0,0,1.4772224426269531,0,0,1.223039984703064
1.419225577,0,0,1.403002142906189,0,0,1.223039984703064
1.420225715,0,0,1.3287819623947144,0,0,1.2994799613952637
1.421226335,0,0,1.5658079385757446,0,0,1.070159912109375
1.422226065,0,0,1.7334020137786865,0,0,1.070159912109375
1.423225907,0,0,1.702277421951294,0,0,0.7644000053405762
1.4242258780000001,0,0,1.7405846118927002,0,0,0.7644000053405762
1.425226831,0,0,1.580173134803772,0,0,0.4586400091648102
1.426225932,0,0,1.292868971824646,0,0,0.9172800183296204
1.427225792,0,0,1.7812861204147339,0,0,0.7644000053405762
1.428225782,0,0,1.7597382068634033,0,0,0.9172800183296204
1.429236642,0,0,1.7573440074920654,0,0,1.223039984703064
1.430227095,0,0,1.7262194156646729,0,0,1.1466000080108643
1.431225956,0,0,1.5921441316604614,0,0,1.223039984703064
1.432225668,0,0,1.6424223184585571,0,0,1.375920057296753
1.4332317319999999,0,0,1.6280571222305298,0,0,1.2994799613952637
1.434226444,0,0,2.049436569213867,0,0,0.5350799560546875
1.435225785,0,0,2.1715409755706787,0,0,1.375920057296753
1.4362259050000001,0,0,1.920149803161621,0,0,0.9172800183296204
1.4372266169999999,0,0,1.8986018896102905,0,0,0.9172800183296204
1.438225847,0,0,1.5753847360610962,0,0,1.2994799613952637
1.439225745,0,0,1.3623007535934448,0,0,1.1466000080108643
1.4402254380000001,0,0,1.577778935432434,0,0,0.7644000053405762
1.441226428,0,0,1.5107412338256836,0,0,0.8408399820327759
1.442225807,0,0,1.6376339197158813,0,0,1.070159912109375
1.4432260000000001,0,0,1.3886369466781616,0,0,0.9172800183296204
1.444225768,0,0,1.41257905960083,0,0,1.070159912109375
1.445226832,0,0,1.623268723487854,0,0,0.9172800183296204
1.4462259880000001,0,0,1.6376339197158813,0,0,1.1466000080108643
1.447225719,0,0,1.6687586307525635,0,0,0.6879600286483765
1.44822582,0,0,1.6615760326385498,0,0,0.8408399820327759
1.449226717,0,0,1.259350061416626,0,0,1.070159912109375
1.450226022,0,0,1.381454348564148,0,0,0.9937199950218201
1.4512258820000001,0,0,1.6496049165725708,0,0,0.5350799560546875
1.452225816,0,0,1.8100165128707886,0,0,1.605239987373352
1.45322664,0,0,1.6663644313812256,0,0,1.452359914779663
1.45422587,0,0,1.86508309841156,0,0,0.9937199950218201
1.455225749,0,0,1.7741034030914307,0,0,1.5288000106811523
1.45622572,0,0,1.821987509727478,0,0,0.305759996175766
1.457226895,0,0,2.075772762298584,0,0,1.1466000080108643
1.458225848,0,0,2.0231003761291504,0,0,1.5288000106811523
1.459225282,0,0,1.7693150043487549,0,0,0.8408399820327759
1.460225698,0,0,1.9033904075622559,0,0,1.1466000080108643
1.461226651,0,0,1.5873557329177856,0,0,1.605239987373352
1.46222553,0,0,1.7262194156646729,0,0,0.9937199950218201
1.463225853,0,0,1.6615760326385498,0,0,0.9172800183296204
1.464225954,0,0,1.4652514457702637,0,0,0.8408399820327759
1.46579216,0,0,1.534683346748352,0,0,0.4586400091648102
1.4662473409999999,0,0,1.625662922859192,0,0,0.4586400091648102
1.467240553,0,0,1.659181833267212,0,0,0.9937199950218201
1.468227117,0,0,1.625662922859192,0,0,0.9937199950218201
1.469230718,0,0,1.2473790645599365,0,0,0.305759996175766
1.470226134,0,0,1.1252747774124146,0,0,0.9937199950218201
1.471225994,0,0,0.9600749015808105,0,0,0.6879600286483765
1.472226095,0,0,1.6711528301239014,0,0,0.4586400091648102
1.473226807,0,0,1.8938134908676147,0,0,1.223039984703064
1.4742259629999999,0,0,1.7764976024627686,0,0,1.375920057296753
1.475225879,0,0,1.9321208000183105,0,0,0.9937199950218201
1.476225795,0,0,1.6376339197158813,0,0,2.446079969406128
1.477230489,0,0,1.8555063009262085,0,0,1.605239987373352
1.478225719,0,0,2.188300371170044,0,0,1.452359914779663
1.479225783,0,0,1.625662922859192,0,0,1.6816799640655518
1.480225125,0,0,1.920149803161621,0,0,0.9172800183296204
1.481227281,0,0,2.2242133617401123,0,0,1.2994799613952637
1.482225716,0,0,2.513911724090576,0,0,0.6879600286483765
1.483225835,0,0,2.3080103397369385,0,0,1.1466000080108643
1.484225029,0,0,1.5873557329177856,0,0,1.605239987373352
1.485227074,0,0,1.4245500564575195,0,0,0.8408399820327759
1.4862258050000001,0,0,1.455674648284912,0,0,1.2994799613952637
1.4872258870000001,0,0,1.113303780555725,0,0,0.6879600286483765
1.488225673,0,0,1.2497732639312744,0,0,0
1.489226811,0,0,1.0678139925003052,0,0,0.0764399990439415
1.490225764,0,0,0.9600749015808105,0,0,0.305759996175766
1.4912256240000001,0,0,1.4197616577148438,0,0,0
1.492225873,0,0,1.4197616577148438,0,0,0.9937199950218201
1.493226993,0,0,1.7717092037200928,0,0,1.070159912109375
1.49422576,0,0,1.5466543436050415,0,0,2.06387996673584
1.495225621,0,0,1.5155296325683594,0,0,1.375920057296753
1.4962258880000001,0,0,1.9632453918457031,0,0,2.2167599201202393
1.4972437109999999,0,0,1.8148049116134644,0,0,1.6816799640655518
1.498227461,0,0,2.166752576828003,0,0,0.7644000053405762
1.499226043,0,0,2.233790159225464,0,0,1.605239987373352
1.500225903,0,0,2.2002713680267334,0,0,1.1466000080108643
1.501226819,0,0,2.3247697353363037,0,0,0.8408399820327759
1.502225513,0,0,2.0231003761291504,0,0,1.758120059967041
1.503225725,0,0,1.821987509727478,0,0,0.8408399820327759
1.5042256219999999,0,0,1.5538369417190552,0,0,1.1466000080108643
1.505226297,0,0,1.2425906658172607,0,0,0.9172800183296204
1.506225287,0,0,0.8834604024887085,0,0,0.305759996175766
1.507225721,0,0,0.6919242739677429,0,0,-29.582279205322266
1.508225803,0,0,1.1013327836990356,0,0,9.402119636535645
1.509226645,0,0,1.8818424940109253,0,0,-0.611519992351532
1.510225913,0,0,1.7046716213226318,0,0,0.5350799560546875
1.5112256990000001,0,0,1.7980455160140991,0,0,1.070159912109375
1.512225855,0,0,1.4700398445129395,0,0,1.758120059967041
1.513226679,0,0,1.434126853942871,0,0,1.6816799640655518
1.514225817,0,0,1.1875240802764893,0,0,1.9109998941421509
1.515225732,0,0,1.2976573705673218,0,0,1.2994799613952637
1.516225556,0,0,1.9393033981323242,0,0,1.1466000080108643
1.517226638,0,0,2.6360161304473877,0,0,0.4586400091648102
1.5182258499999999,0,0,2.75812029838562,0,0,1.223039984703064
1.519225692,0,0,2.7724854946136475,0,0,1.6816799640655518
1.520225774,0,0,2.322375535964966,0,0,1.452359914779663
1.521226801,0,0,1.7980455160140991,0,0,1.605239987373352
1.522225921,0,0,0.9768342971801758,0,0,1.452359914779663
1.5232259099999998,0,0,0.507570743560791,0,0,0.9937199950218201
1.524225993,0,0,0.43095630407333374,0,0,0.3822000026702881
1.525226853,0,0,1.3120225667953491,0,0,9.096360206604004
1.5262258800000001,0,0,1.7932571172714233,0,0,0.2293200045824051
1.527225333,0,0,2.322375535964966,0,0,-0.3822000026702881
1.528225563,0,0,2.346317768096924,0,0,1.2994799613952637
1.529226961,0,0,2.190694570541382,0,0,1.758120059967041
1.530228173,0,0,1.235408067703247,0,0,1.8345600366592407
1.531225829,0,0,1.1659762859344482,0,0,1.6816799640655518
1.532225838,0,0,1.5298948287963867,0,0,1.1466000080108643
1.5332269200000002,0,0,2.2002713680267334,0,0,0.7644000053405762
1.534225965,0,0,2.229001760482788,0,0,1.223039984703064
1.535225863,0,0,2.276885747909546,0,0,1.375920057296753
1.53622576,0,0,2.4181437492370605,0,0,0.9937199950218201
1.537226305,0,0,1.6136919260025024,0,0,1.375920057296753
1.538225314,0,0,0.7589619159698486,0,0,0.6879600286483765
1.539238433,0,0,0.6967126727104187,0,0,0.2293200045824051
1.540227016,0,0,1.0271124839782715,0,0,9.019920349121094
1.541227357,0,0,1.4724340438842773,0,0,0
1.5422256619999999,0,0,1.7118542194366455,0,0,0.3822000026702881
1.5432258,0,0,1.9560627937316895,0,0,0.7644000053405762
1.5442258450000002,0,0,1.86508309841156,0,0,1.6816799640655518
1.545226354,0,0,1.0749965906143188,0,0,2.3696401119232178
1.546225807,0,0,1.072602391242981,0,0,1.375920057296753
1.547226019,0,0,1.6208745241165161,0,0,1.5288000106811523
1.5482256749999999,0,0,2.2601263523101807,0,0,1.070159912109375
1.549226443,0,0,2.7461493015289307,0,0,1.452359914779663
1.55022584,0,0,3.071760892868042,0,0,1.2994799613952637
1.551225682,0,0,2.715024709701538,0,0,1.9109998941421509
1.552225635,0,0,1.6160861253738403,0,0,1.758120059967041
1.5532268839999999,0,0,0.5578489899635315,0,0,1.070159912109375
1.554225707,0,0,0.4692635238170624,0,0,0.6879600286483765
1.555225697,0,0,0.8259995579719543,0,0,0
1.556225668,0,0,1.1563993692398071,0,0,0
1.557225973,0,0,1.8579005002975464,0,0,0.305759996175766
1.558225685,0,0,2.2457611560821533,0,0,0.5350799560546875
1.559225712,0,0,2.0590133666992188,0,0,1.758120059967041
1.560225609,0,0,1.4772224426269531,0,0,1.375920057296753
1.561237932,0,0,1.414973258972168,0,0,1.8345600366592407
1.5622262550000001,0,0,1.6304513216018677,0,0,1.758120059967041
1.563225504,0,0,1.5203180313110352,0,0,1.375920057296753
1.564225642,0,0,1.9800047874450684,0,0,1.070159912109375
1.5652269840000002,0,0,2.3965959548950195,0,0,0.8408399820327759
1.566225881,0,0,2.0877439975738525,0,0,1.452359914779663
1.567225297,0,0,1.6687586307525635,0,0,0.9937199950218201
1.56822562,0,0,1.7142484188079834,0,0,0
1.5692264059999999,0,0,1.721431016921997,0,0,1.6816799640655518
1.570225174,0,0,1.6855180263519287,0,0,0.7644000053405762
1.571225571,0,0,1.5394717454910278,0,0,0.8408399820327759
1.5722258390000001,0,0,1.359906554222107,0,0,1.223039984703064
1.5732266990000001,0,0,0.9074024558067322,0,0,1.070159912109375
1.574226189,0,0,1.0606313943862915,0,0,1.2994799613952637
1.575225642,0,0,1.4724340438842773,0,0,0.5350799560546875
1.576225687,0,0,1.8100165128707886,0,0,1.2994799613952637
1.5772279729999998,0,0,2.2864625453948975,0,0,0.9172800183296204
1.578226667,0,0,2.4444799423217773,0,0,0.3822000026702881
1.579225583,0,0,1.6879122257232666,0,0,1.6816799640655518
1.5802257389999999,0,0,1.3192051649093628,0,0,0.9172800183296204
1.581225859,0,0,1.173158884048462,0,0,0.305759996175766
1.5822257,0,0,1.3431471586227417,0,0,1.070159912109375
1.5832259309999999,0,0,1.4053963422775269,0,0,0.4586400091648102
1.584225699,0,0,2.0470423698425293,0,0,0.9172800183296204
1.585225818,0,0,1.8483237028121948,0,0,1.375920057296753
1.586225734,0,0,1.4508862495422363,0,0,1.375920057296753
1.587225779,0,0,1.7381904125213623,0,0,0.9172800183296204
1.588225325,0,0,1.8148049116134644,0,0,1.2994799613952637
1.5892259069999999,0,0,1.7286136150360107,0,0,1.5288000106811523
1.590225767,0,0,2.2433669567108154,0,0,0.305759996175766
1.591225683,0,0,2.0159177780151367,0,0,0.7644000053405762
1.592225377,0,0,1.5849615335464478,0,0,0.6879600286483765
1.593226126,0,0,1.4389152526855469,0,0,0.2293200045824051
1.594225819,0,0,1.5634137392044067,0,0,1.1466000080108643
1.5952260310000002,0,0,1.4197616577148438,0,0,0.8408399820327759
1.596225817,0,0,1.4197616577148438,0,0,0.7644000053405762
1.5972258259999998,0,0,1.8291701078414917,0,0,0.8408399820327759
1.598225705,0,0,1.4867992401123047,0,0,2.2167599201202393
1.599225676,0,0,1.558625340461731,0,0,1.1466000080108643
1.6002342029999999,0,0,2.190694570541382,0,0,0.9172800183296204
1.601227878,0,0,2.0254945755004883,0,0,2.06387996673584
1.602225757,0,0,2.1811177730560303,0,0,1.605239987373352
1.6032258019999999,0,0,2.1164743900299072,0,0,1.1466000080108643
1.60422581,0,0,1.2114660739898682,0,0,1.8345600366592407
1.605226652,0,0,1.3072341680526733,0,0,0
1.606226068,0,0,1.436521053314209,0,0,0.2293200045824051
1.607225928,0,0,1.5083470344543457,0,0,0.0764399990439415
1.608225918,0,0,1.8195933103561401,0,0,0.3822000026702881
1.609226871,0,0,1.8962076902389526,0,0,0.305759996175766
1.610229342,0,0,1.4915876388549805,0,0,1.605239987373352
1.611225758,0,0,1.1444283723831177,0,0,1.1466000080108643
1.612225859,0,0,1.2737152576446533,0,0,1.375920057296753
1.61322646,0,0,1.2018892765045166,0,0,1.9874399900436401
1.61422545,0,0,1.5083470344543457,0,0,0.7644000053405762
1.615225828,0,0,1.9632453918457031,0,0,0.9172800183296204
1.6162257260000001,0,0,1.3527239561080933,0,0,1.452359914779663
1.617226401,0,0,1.7118542194366455,0,0,9.631440162658691
1.6182257789999999,0,0,2.0254945755004883,0,0,1.1466000080108643
1.6192260840000001,0,0,1.7980455160140991,0,0,0.8408399820327759
1.62022587,0,0,2.3989901542663574,0,0,0.611519992351532
1.621226601,0,0,2.4229321479797363,0,0,1.452359914779663
1.622225776,0,0,1.5418659448623657,0,0,2.3696401119232178
1.62322571,0,0,1.6903064250946045,0,0,1.605239987373352
1.624225644,0,0,1.7764976024627686,0,0,1.605239987373352
1.625233541,0,0,1.4844050407409668,0,0,2.06387996673584
1.626226272,0,0,1.922544002532959,0,0,0.5350799560546875
1.627225855,0,0,1.5514427423477173,0,0,1.375920057296753
1.628225881,0,0,1.4508862495422363,0,0,1.070159912109375
1.629226927,0,0,1.6280571222305298,0,0,-1.2994799613952637
1.630225935,0,0,1.7621324062347412,0,0,0.8408399820327759
1.6312257209999999,0,0,2.2361843585968018,0,0,0
1.6322256739999998,0,0,2.229001760482788,0,0,0.4586400091648102
1.6332264969999999,0,0,1.5634137392044067,0,0,1.9109998941421509
1.634225746,0,0,1.216254472732544,0,0,1.2994799613952637
1.635225496,0,0,0.9074024558067322,0,0,1.9874399900436401
1.6362261519999999,0,0,0.6033388376235962,0,0,1.6816799640655518
1.6372266789999999,0,0,1.173158884048462,0,0,0.2293200045824051
1.63822578,0,0,1.2234370708465576,0,0,0.7644000053405762
1.639225899,0,0,1.659181833267212,0,0,8.790599822998047
1.640225945,0,0,1.9584569931030273,0,0,0.611519992351532
1.641780762,0,0,2.10210919380188,0,0,0.8408399820327759
1.6422289060000002,0,0,2.499546527862549,0,0,0.305759996175766
1.643225933,0,0,2.6168625354766846,0,0,1.605239987373352
1.644225126,0,0,1.6759412288665771,0,0,2.6754000186920166
1.64522882,0,0,1.6663644313812256,0,0,1.9874399900436401
1.6462247730000001,0,0,1.0079588890075684,0,0,2.522519826889038
1.647225003,0,0,1.0630255937576294,0,0,2.2932000160217285
1.648224586,0,0,1.7070658206939697,0,0,1.070159912109375
1.649225779,0,0,1.2090718746185303,0,0,1.223039984703064
1.650224751,0,0,1.9153614044189453,0,0,9.172800064086914
1.651224981,0,0,2.2242133617401123,0,0,0.305759996175766
1.6522249900000001,0,0,1.843535304069519,0,0,0.4586400091648102
1.653225887,0,0,2.7509377002716064,0,0,0
1.6542248210000001,0,0,2.140416383743286,0,0,2.3696401119232178
1.655224737,0,0,1.7764976024627686,0,0,1.8345600366592407
1.6562248560000001,0,0,1.845929503440857,0,0,1.2994799613952637
1.657225606,0,0,0.8212111592292786,0,0,3.0576000213623047
1.658224577,0,0,1.6065093278884888,0,0,0.0764399990439415
1.659224252,0,0,0.9433154463768005,0,0,1.605239987373352
1.660224538,0,0,0.524330198764801,0,0,0.3822000026702881
1.661225843,0,0,1.4772224426269531,0,0,-0.5350799560546875
1.6622247209999998,0,0,1.1300631761550903,0,0,1.1466000080108643
1.663224748,0,0,2.3535003662109375,0,0,-0.9937199950218201
1.66422446,0,0,2.896984100341797,0,0,1.070159912109375
1.665225672,0,0,2.2625205516815186,0,0,1.2994799613952637
1.666224718,0,0,2.360682964324951,0,0,0.611519992351532
1.6672245970000001,0,0,1.170764684677124,0,0,3.592679977416992
1.6682248830000002,0,0,1.1659762859344482,0,0,0.9172800183296204
1.669226039,0,0,1.0079588890075684,0,0,1.5288000106811523
1.670224566,0,0,0.47644615173339844,0,0,1.1466000080108643
1.671224815,0,0,1.2545616626739502,0,0,9.019920349121094
1.672224898,0,0,1.213860273361206,0,0,1.375920057296753
1.673224665,0,0,2.3271639347076416,0,0,-30.19379997253418
1.674224674,0,0,3.184288263320923,0,0,0.6879600286483765
1.675224627,0,0,2.363077163696289,0,0,2.5989599227905273
1.676224709,0,0,2.6168625354766846,0,0,0.8408399820327759
1.6772323839999999,0,0,1.920149803161621,0,0,3.2869198322296143
1.67822604,0,0,1.965639591217041,0,0,1.070159912109375
1.6792251230000002,0,0,1.9105730056762695,0,0,1.5288000106811523
1.680224298,0,0,1.05105459690094,0,0,1.8345600366592407
1.681225529,0,0,0.9002198576927185,0,0,9.631440162658691
1.6822252039999999,0,0,0.5578489899635315,0,0,1.758120059967041
1.68322473,0,0,1.3335703611373901,0,0,8.25551986694336
1.68422485,0,0,1.968033790588379,0,0,0.4586400091648102
1.685224803,0,0,1.920149803161621,0,0,0.9172800183296204
1.686224774,0,0,2.233790159225464,0,0,0.0764399990439415
1.687224579,0,0,1.647210717201233,0,0,2.446079969406128
1.688224698,0,0,1.86508309841156,0,0,0.0764399990439415
1.689241114,0,0,1.139639973640442,0,0,1.5288000106811523
1.690225308,0,0,0.6033388376235962,0,0,0.9172800183296204
1.691224909,0,0,0.16998831927776337,0,0,0.0764399990439415
1.692224676,0,0,0.47405192255973816,0,0,0.8408399820327759
1.6932257590000002,0,0,1.86508309841156,0,0,-1.1466000080108643
1.694224545,0,0,2.2816741466522217,0,0,1.8345600366592407
1.695224498,0,0,2.8347349166870117,0,0,0.611519992351532
1.696224599,0,0,2.4899697303771973,0,0,1.6816799640655518
1.697225699,0,0,1.8794482946395874,0,0,2.446079969406128
1.698224615,0,0,1.558625340461731,0,0,1.070159912109375
1.69922442,0,0,0.5003881454467773,0,0,2.06387996673584
1.700224669,0,0,0.8643068075180054,0,0,9.631440162658691
1.701225844,0,0,0.5386953949928284,0,0,0.4586400091648102
1.7022242410000001,0,0,1.7357962131500244,0,0,0.0764399990439415
1.703224453,0,0,2.1068975925445557,0,0,9.096360206604004
1.7042248880000002,0,0,2.0015525817871094,0,0,1.375920057296753
1.705225655,0,0,2.22660756111145,0,0,0.4586400091648102
1.7062248119999999,0,0,1.601720929145813,0,0,2.5989599227905273
1.707224524,0,0,1.3646949529647827,0,0,1.1466000080108643
1.708224551,0,0,0.8331822156906128,0,0,1.5288000106811523
1.709225763,0,0,0.40940847992897034,0,0,0.9937199950218201
1.71022466,0,0,0.5099649429321289,0,0,0
1.7112245019999999,0,0,0.5482721924781799,0,0,0.6879600286483765
1.7122247879999999,0,0,2.6647465229034424,0,0,8.484840393066406
1.7132255,0,0,2.3942017555236816,0,0,0.611519992351532
1.714224823,0,0,2.583343744277954,0,0,1.758120059967041
1.7152246089999998,0,0,2.1930887699127197,0,0,1.605239987373352
1.71624671,0,0,1.2832920551300049,0,0,3.0576000213623047
1.7172694590000002,0,0,1.0223240852355957,0,0,0.7644000053405762
1.718238412,0,0,-0.07182604819536209,0,0,2.446079969406128
1.719225198,0,0,0.5554547905921936,0,0,0
1.720224188,0,0,0.44771572947502136,0,0,0.2293200045824051
1.721228808,0,0,1.6855180263519287,0,0,-0.3822000026702881
1.722224909,0,0,3.624821424484253,0,0,-1.070159912109375
1.723224787,0,0,2.6599581241607666,0,0,1.758120059967041
1.724224314,0,0,2.7772738933563232,0,0,1.070159912109375
1.725225878,0,0,1.9512743949890137,0,0,2.2932000160217285
1.726224942,0,0,0.7086837291717529,0,0,2.446079969406128
1.727224617,0,0,0.8307880163192749,0,0,0.6879600286483765
1.728224811,0,0,0.016759412363171577,0,0,0.9937199950218201
1.729225838,0,0,0.8212111592292786,0,0,-0.5350799560546875
1.730224642,0,0,0.9097966551780701,0,0,0.9172800183296204
1.731224799,0,0,2.3798365592956543,0,0,8.867039680480957
1.732224752,0,0,2.9903578758239746,0,0,0.3822000026702881
1.733225741,0,0,2.2888567447662354,0,0,2.2167599201202393
1.7342245649999999,0,0,1.8914192914962769,0,0,0.6879600286483765
1.73522461,0,0,0.7924807667732239,0,0,2.2932000160217285
1.736224674,0,0,0.706289529800415,0,0,0.8408399820327759
1.737225793,0,0,0.23942017555236816,0,0,1.070159912109375
1.738224802,0,0,0.5578489899635315,0,0,9.631440162658691
1.739224606,0,0,0.811634361743927,0,0,9.631440162658691
1.740224559,0,0,1.4867992401123047,0,0,0.9937199950218201
1.741225882,0,0,2.7485435009002686,0,0,-1.1466000080108643
1.742224372,0,0,2.3295583724975586,0,0,2.3696401119232178
1.743224732,0,0,2.121262788772583,0,0,1.2994799613952637
1.744224574,0,0,1.4963760375976563,0,0,1.5288000106811523
1.745225305,0,0,0.9720458984375,0,0,1.8345600366592407
1.746224517,0,0,1.072602391242981,0,0,0.152879998087883
1.7472247840000001,0,0,0.6009446382522583,0,0,1.223039984703064
1.7482256999999999,0,0,1.0749965906143188,0,0,-9.784319877624512
1.749225912,0,0,1.2234370708465576,0,0,0.4586400091648102
1.75022481,0,0,2.6024973392486572,0,0,0.4586400091648102
1.7512294659999998,0,0,3.227383852005005,0,0,0
1.752224752,0,0,2.123656988143921,0,0,2.751840114593506
1.753241297,0,0,1.8531121015548706,0,0,0.6879600286483765
1.754225676,0,0,0.6224924325942993,0,0,1.9874399900436401
1.7552247589999999,0,0,0.4908113479614258,0,0,0.3822000026702881
1.756224693,0,0,0.2537853717803955,0,0,-0.5350799560546875
1.757225775,0,0,0.2106897532939911,0,0,0.4586400091648102
1.758224784,0,0,0.7374141216278076,0,0,-1.6816799640655518
1.759224792,0,0,0.8188169598579407,0,0,0.305759996175766
1.760224708,0,0,2.2888567447662354,0,0,-1.452359914779663
1.7612256419999999,0,0,2.0590133666992188,0,0,0.305759996175766
1.762224947,0,0,1.7764976024627686,0,0,1.375920057296753
1.763224622,0,0,1.699883222579956,0,0,0.9172800183296204
1.764224741,0,0,0.2849099934101105,0,0,2.828279972076416
1.765225657,0,0,0.5482721924781799,0,0,0.2293200045824051
1.7662247770000001,0,0,0.2106897532939911,0,0,0.6879600286483765
1.767224285,0,0,0.4692635238170624,0,0,0.4586400091648102
1.768224719,0,0,0.9097966551780701,0,0,9.096360206604004
1.7692256720000001,0,0,1.237802267074585,0,0,1.452359914779663
1.770224644,0,0,3.07415509223938,0,0,8.943479537963867
1.771230837,0,0,2.779668092727661,0,0,1.605239987373352
1.772225253,0,0,2.2673089504241943,0,0,1.452359914779663
1.7732258349999999,0,0,2.1978771686553955,0,0,0.7644000053405762
1.774224751,0,0,0.8427590131759644,0,0,3.3633599281311035
1.7752246299999999,0,0,0.933738648891449,0,0,0.0764399990439415
1.776224601,0,0,0.304063618183136,0,0,1.1466000080108643
1.7772344979999999,0,0,0.038307227194309235,0,0,0.9172800183296204
1.778228081,0,0,0.3256114423274994,0,0,8.484840393066406
1.7792256260000001,0,0,0.5291185975074768,0,0,0.6879600286483765
1.78022482,0,0,2.3558945655822754,0,0,7.567559719085693
1.7812250870000002,0,0,2.5067291259765625,0,0,0.8408399820327759
1.782225281,0,0,1.9943699836730957,0,0,1.070159912109375
1.783225123,0,0,1.9943699836730957,0,0,0.5350799560546875
1.784225094,0,0,0.6272808313369751,0,0,3.210479974746704
1.785223213,0,0,0.3519476354122162,0,0,0.5350799560546875
1.786222574,0,0,0.3256114423274994,0,0,0.8408399820327759
1.7872223969999999,0,0,0.0694318488240242,0,0,1.452359914779663
1.7882219419999998,0,0,0.6991068720817566,0,0,8.714159965515137
1.789227543,0,0,0.8786720037460327,0,0,0.6879600286483765
1.790225626,0,0,2.1978771686553955,0,0,-0.4586400091648102
1.791225078,0,0,3.162740468978882,0,0,0
1.792224976,0,0,2.212242364883423,0,0,2.06387996673584
1.793225021,0,0,1.8986018896102905,0,0,0.611519992351532
1.794224937,0,0,1.137245774269104,0,0,2.2932000160217285
1.7952250749999998,0,0,0.363918662071228,0,0,2.06387996673584
1.796224972,0,0,0.8020575642585754,0,0,0
1.797226518,0,0,0.33279404044151306,0,0,0.9172800183296204
1.798224674,0,0,0.6224924325942993,0,0,0.3822000026702881
1.7992247940000001,0,0,1.1348515748977661,0,0,8.790599822998047
1.800224839,0,0,1.501164436340332,0,0,0.4586400091648102
1.801225718,0,0,2.7557260990142822,0,0,-0.4586400091648102
1.802224689,0,0,2.7054479122161865,0,0,0.0764399990439415
1.803224938,0,0,1.7860745191574097,0,0,1.9109998941421509
1.804224854,0,0,1.7477672100067139,0,0,0.6879600286483765
1.805225751,0,0,0.8140285611152649,0,0,2.2167599201202393
1.806224908,0,0,0.45010992884635925,0,0,0.9172800183296204
1.807224916,0,0,0.4381389021873474,0,0,0.0764399990439415
1.808224573,0,0,-0.0933738648891449,0,0,0.305759996175766
1.8092257109999998,0,0,0.2082955539226532,0,0,-0.611519992351532
1.810224552,0,0,0.7422025203704834,0,0,9.096360206604004
1.811225487,0,0,1.556231141090393,0,0,-0.9937199950218201
1.812224884,0,0,2.853888511657715,0,0,8.40839958190918
1.8132261139999999,0,0,2.7509377002716064,0,0,0.6879600286483765
1.8142249559999999,0,0,1.8962076902389526,0,0,1.8345600366592407
1.815224816,0,0,1.0893617868423462,0,0,1.9874399900436401
1.8162250279999999,0,0,0.47165772318840027,0,0,1.375920057296753
1.817237518,0,0,0.2346317619085312,0,0,2.3696401119232178
1.818225341,0,0,0.5770025849342346,0,0,0.305759996175766
1.8192248869999998,0,0,0.9911994934082031,0,0,0.0764399990439415
1.8202245430000001,0,0,1.3120225667953491,0,0,0.5350799560546875
1.8212258110000001,0,0,1.623268723487854,0,0,-0.5350799560546875
1.822225023,0,0,1.8722656965255737,0,0,9.478560447692871
1.823224772,0,0,2.183511972427368,0,0,0.8408399820327759
1.824225651,0,0,2.3798365592956543,0,0,0.2293200045824051
1.825226067,0,0,1.6136919260025024,0,0,1.070159912109375
1.8262247600000001,0,0,0.6871358752250671,0,0,2.2167599201202393
1.827224731,0,0,0.6847416758537292,0,0,0.5350799560546875
1.828224295,0,0,0.5003881454467773,0,0,1.9109998941421509
1.829226007,0,0,0.6153098344802856,0,0,0.9937199950218201
1.830242256,0,0,1.1228805780410767,0,0,0
1.831226043,0,0,1.7741034030914307,0,0,0
1.832224681,0,0,1.5753847360610962,0,0,0.6879600286483765
1.833226837,0,0,1.680729627609253,0,0,-29.888038635253906
1.834224716,0,0,1.9536685943603516,0,0,0.305759996175766
1.835224743,0,0,1.4939818382263184,0,0,1.070159912109375
1.8362248989999999,0,0,1.4532804489135742,0,0,0.152879998087883
1.8372258339999998,0,0,0.6991068720817566,0,0,1.1466000080108643
1.838224731,0,0,0.3758896589279175,0,0,1.2994799613952637
1.8392250730000002,0,0,0.8475474119186401,0,0,0
1.8402248220000001,0,0,0.8571242094039917,0,0,1.452359914779663
1.841225626,0,0,1.2545616626739502,0,0,0.3822000026702881
1.842225135,0,0,1.699883222579956,0,0,0
1.843224625,0,0,1.656787633895874,0,0,1.1466000080108643
1.844224911,0,0,1.4437036514282227,0,0,0.5350799560546875
1.845225771,0,0,0.9241618514060974,0,0,0
1.846224668,0,0,1.194706678390503,0,0,0.5350799560546875
1.847224806,0,0,1.1085153818130493,0,0,0.9172800183296204
1.848224703,0,0,1.4508862495422363,0,0,0
1.849225767,0,0,1.5873557329177856,0,0,1.452359914779663
1.850224442,0,0,0.8690952062606812,0,0,1.9109998941421509
1.851224932,0,0,1.4077905416488647,0,0,0.611519992351532
1.8522248669999999,0,0,1.522712230682373,0,0,2.2932000160217285
1.853225356,0,0,1.580173134803772,0,0,1.070159912109375
1.854225031,0,0,2.2649147510528564,0,0,0.2293200045824051
1.8552248919999998,0,0,1.9584569931030273,0,0,0.7644000053405762
1.856224696,0,0,1.0295066833496094,0,0,0.6879600286483765
1.857225649,0,0,0.667982280254364,0,0,0.4586400091648102
1.858226139,0,0,0.8092401623725891,0,0,-29.582279205322266
1.859225221,0,0,1.3718775510787964,0,0,0.152879998087883
1.860224748,0,0,1.237802267074585,0,0,0.0764399990439415
1.861226294,0,0,1.2282254695892334,0,0,0
1.8622247650000001,0,0,0.8978256583213806,0,0,1.1466000080108643
1.8632356620000001,0,0,0.6009446382522583,0,0,0.2293200045824051
1.864225985,0,0,1.036689281463623,0,0,0.7644000053405762
1.8652266979999998,0,0,1.4101848602294922,0,0,0.2293200045824051
1.86622478,0,0,1.6400281190872192,0,0,0.9937199950218201
1.867225122,0,0,1.6663644313812256,0,0,0.9937199950218201
1.868224926,0,0,1.6376339197158813,0,0,0.3822000026702881
1.869225675,0,0,1.213860273361206,0,0,0.9172800183296204
1.8702247760000001,0,0,0.5003881454467773,0,0,0.305759996175766
1.871224285,0,0,0.5913678407669067,0,0,-9.402119636535645
1.8722249039999999,0,0,1.2066776752471924,0,0,0.2293200045824051
1.873225783,0,0,1.455674648284912,0,0,9.631440162658691
1.874224902,0,0,1.86508309841156,0,0,0.3822000026702881
1.875224077,0,0,1.8722656965255737,0,0,0.6879600286483765
1.87622503,0,0,0.9648633003234863,0,0,1.6816799640655518
1.877232835,0,0,0.6560112833976746,0,0,1.452359914779663
1.878226251,0,0,0.8978256583213806,0,0,0.9937199950218201
1.879225074,0,0,1.3838485479354858,0,0,0.7644000053405762
1.880224675,0,0,1.7118542194366455,0,0,0.9172800183296204
1.881237646,0,0,1.8962076902389526,0,0,1.2994799613952637
1.882225284,0,0,2.1284453868865967,0,0,0
1.8832247930000001,0,0,1.7190368175506592,0,0,0.0764399990439415
1.88422469,0,0,0.7613561153411865,0,0,0.9937199950218201
1.885225717,0,0,0.6847416758537292,0,0,-29.582279205322266
1.886224725,0,0,0.9169792532920837,0,0,-29.582279205322266
1.887224826,0,0,1.0414776802062988,0,0,0
1.888224686,0,0,1.048660397529602,0,0,0.305759996175766
1.8892258800000001,0,0,1.2401964664459229,0,0,0.152879998087883
1.8902248510000002,0,0,0.8858546018600464,0,0,0.9172800183296204
1.891224582,0,0,0.3495534360408783,0,0,1.758120059967041
1.8922245530000001,0,0,1.194706678390503,0,0,0.6879600286483765
1.893225487,0,0,1.6687586307525635,0,0,1.5288000106811523
1.894224699,0,0,1.8363527059555054,0,0,1.5288000106811523
1.895224819,0,0,2.365471363067627,0,0,0.6879600286483765
1.896224105,0,0,2.499546527862549,0,0,0.8408399820327759
1.897225428,0,0,1.6687586307525635,0,0,1.1466000080108643
1.8982247509999999,0,0,0.7996633648872375,0,0,0.611519992351532
1.8992247230000001,0,0,-0.19632454216480255,0,0,0.5350799560546875
1.900269916,0,0,0.5003881454467773,0,0,8.867039680480957
1.901300405,0,0,0.8978256583213806,0,0,-29.888038635253906
1.902269284,0,0,1.2545616626739502,0,0,9.325679779052734
1.903260682,0,0,1.335964560508728,0,0,0.9172800183296204
1.904242672,0,0,1.137245774269104,0,0,0.305759996175766
1.905226643,0,0,0.7134721279144287,0,0,0.9937199950218201
1.906225263,0,0,0.5722141861915588,0,0,1.452359914779663
1.907225123,0,0,1.094150185585022,0,0,1.223039984703064
1.908225187,0,0,1.6065093278884888,0,0,1.375920057296753
1.909223806,0,0,1.9249382019042969,0,0,1.375920057296753
1.910241981,0,0,2.43011474609375,0,0,1.375920057296753
1.91122386,0,0,2.655169725418091,0,0,1.1466000080108643
1.912222554,0,0,2.3104045391082764,0,0,1.5288000106811523
1.913223007,0,0,1.3072341680526733,0,0,1.605239987373352
1.91422257,0,0,0.45250412821769714,0,0,0
1.915222468,0,0,0.6584054827690125,0,0,0.152879998087883
1.9162225130000001,0,0,1.192312479019165,0,0,-1.223039984703064
1.9172250769999999,0,0,1.2617442607879639,0,0,-0.3822000026702881
1.918224363,0,0,1.1540051698684692,0,0,0.3822000026702881
1.919224834,0,0,0.6009446382522583,0,0,0.5350799560546875
1.92022475,0,0,0.4429273009300232,0,0,0.3822000026702881
1.9212248509999998,0,0,-0.14604631066322327,0,0,1.223039984703064
1.922224545,0,0,0.5051765441894531,0,0,0.0764399990439415
1.923224646,0,0,1.2425906658172607,0,0,0.7644000053405762
1.924224599,0,0,1.8962076902389526,0,0,0
1.9252264220000002,0,0,2.4181437492370605,0,0,1.2994799613952637
1.926224726,0,0,2.58813214302063,0,0,1.2994799613952637
1.9272248269999999,0,0,2.4827871322631836,0,0,2.14031982421875
1.9282245580000001,0,0,1.9321208000183105,0,0,1.8345600366592407
1.929225807,0,0,1.0869675874710083,0,0,0.9937199950218201
1.93022476,0,0,0.36152446269989014,0,0,0.9937199950218201
1.931224824,0,0,0.14844051003456116,0,0,0
1.93222474,0,0,1.1468225717544556,0,0,8.25551986694336
1.933225822,0,0,1.5873557329177856,0,0,-0.3822000026702881
1.934223404,0,0,1.843535304069519,0,0,-30.499561309814453
1.935222413,0,0,1.400607943534851,0,0,0.9172800183296204
1.9362220319999999,0,0,1.0223240852355957,0,0,0.8408399820327759
1.937225596,0,0,0.5602431893348694,0,0,0.9937199950218201
1.938224864,0,0,0.35434186458587646,0,0,0.8408399820327759
1.939224576,0,0,0.6584054827690125,0,0,0.4586400091648102
1.940224288,0,0,1.3120225667953491,0,0,1.223039984703064
1.941225907,0,0,1.9177556037902832,0,0,0.152879998087883
1.942224545,0,0,2.188300371170044,0,0,0.9937199950218201
1.943224702,0,0,2.3798365592956543,0,0,1.375920057296753
1.9442245809999998,0,0,2.1954829692840576,0,0,0.6879600286483765
1.945242404,0,0,1.6831238269805908,0,0,1.605239987373352
1.946225227,0,0,1.2473790645599365,0,0,1.070159912109375
1.9472249019999999,0,0,0.4620809257030487,0,0,0
1.948224392,0,0,0.1867477297782898,0,0,0
1.949225604,0,0,0.6009446382522583,0,0,-29.888038635253906
1.95022452,0,0,1.2210428714752197,0,0,9.478560447692871
1.9512248429999999,0,0,1.381454348564148,0,0,9.631440162658691
1.952224703,0,0,1.2521674633026123,0,0,0.5350799560546875
1.953225934,0,0,0.7637503147125244,0,0,1.070159912109375
1.954224812,0,0,0.6631938815116882,0,0,0.8408399820327759
1.955224617,0,0,0.8020575642585754,0,0,1.1466000080108643
1.9562246810000001,0,0,1.2737152576446533,0,0,0.8408399820327759
1.957227949,0,0,1.5131354331970215,0,0,0.611519992351532
1.9582440490000002,0,0,1.7262194156646729,0,0,1.8345600366592407
1.9592613540000001,0,0,2.0207061767578125,0,0,0.8408399820327759
1.960226196,0,0,2.169146776199341,0,0,1.2994799613952637
1.9612288709999999,0,0,1.8746598958969116,0,0,1.452359914779663
1.962225176,0,0,1.5825673341751099,0,0,1.375920057296753
1.9632303690000001,0,0,1.6400281190872192,0,0,1.1466000080108643
1.964226378,0,0,1.338358759880066,0,0,1.070159912109375
1.965225108,0,0,1.0582371950149536,0,0,0
1.966241505,0,0,1.0893617868423462,0,0,0
1.96730318,0,0,0.3734954595565796,0,0,-29.888038635253906
1.968237689,0,0,0.5841852426528931,0,0,9.478560447692871
1.969230419,0,0,1.1779472827911377,0,0,9.096360206604004
1.970225465,0,0,1.2832920551300049,0,0,0.4586400091648102
1.971225344,0,0,1.37906014919281,0,0,0.6879600286483765
1.972224982,0,0,0.7038952708244324,0,0,0.9937199950218201
1.973227231,0,0,0.8307880163192749,0,0,1.2994799613952637
1.9742284799999998,0,0,1.3024457693099976,0,0,1.223039984703064
1.975256655,0,0,1.2737152576446533,0,0,1.223039984703064
1.97622583,0,0,1.6735470294952393,0,0,0.611519992351532
1.9772318009999998,0,0,1.7357962131500244,0,0,0.5350799560546875
1.978225624,0,0,1.659181833267212,0,0,1.223039984703064
1.979223614,0,0,2.1164743900299072,0,0,0.8408399820327759
1.980222308,0,0,1.9488801956176758,0,0,0.9172800183296204
1.9812231489999999,0,0,1.4939818382263184,0,0,1.5288000106811523
1.982222269,0,0,1.0989385843276978,0,0,1.070159912109375
1.983221777,0,0,0.9576807022094727,0,0,0.7644000053405762
1.984222452,0,0,1.139639973640442,0,0,1.2994799613952637
1.985223239,0,0,1.2090718746185303,0,0,0
1.986222339,0,0,1.3048399686813354,0,0,0
1.987222311,0,0,1.0797849893569946,0,0,-0.4586400091648102
1.988222264,0,0,0.629675030708313,0,0,0.305759996175766
1.989222994,0,0,0.7110779285430908,0,0,0
1.9902225580000001,0,0,1.1252747774124146,0,0,0.0764399990439415
1.99122227,0,0,1.3096283674240112,0,0,1.452359914779663
1.9922230189999999,0,0,1.256955862045288,0,0,0.7644000053405762
1.993226157,0,0,1.2042834758758545,0,0,1.452359914779663
1.994225166,0,0,1.0773907899856567,0,0,0.9937199950218201
1.995225174,0,0,1.256955862045288,0,0,0.4586400091648102
1.9962251640000002,0,0,1.7118542194366455,0,0,0.9937199950218201
1.997225191,0,0,1.8411411046981812,0,0,0.611519992351532
1.9982252919999999,0,0,1.7357962131500244,0,0,0.7644000053405762
1.9992253739999999,0,0,1.5155296325683594,0,0,0.7644000053405762
2.000225382,0,0,1.0678139925003052,0,0,0.8408399820327759
2.001225798,0,0,1.216254472732544,0,0,0.9172800183296204
2.002225307,0,0,1.3263877630233765,0,0,0.2293200045824051
2.003225241,0,0,1.3455413579940796,0,0,0.9937199950218201
2.004224694,0,0,1.37906014919281,0,0,0.4586400091648102
2.005225647,0,0,1.139639973640442,0,0,0.305759996175766
2.006225396,0,0,1.235408067703247,0,0,1.070159912109375
2.007225386,0,0,1.4508862495422363,0,0,0.4586400091648102
2.008225412,0,0,1.1204863786697388,0,0,0.5350799560546875
2.009239198,0,0,1.1635819673538208,0,0,0.611519992351532
2.010225892,0,0,0.9193734526634216,0,0,0.3822000026702881
2.011225363,0,0,0.6272808313369751,0,0,0.7644000053405762
2.012225224,0,0,0.7805097699165344,0,0,0
2.01322651,0,0,1.113303780555725,0,0,0.305759996175766
2.014225426,0,0,1.5873557329177856,0,0,0
2.015225212,0,0,1.8794482946395874,0,0,0.3822000026702881
2.016225016,0,0,1.4652514457702637,0,0,1.375920057296753
2.017290024,0,0,1.525106430053711,0,0,0.9172800183296204
2.018230274,0,0,0.7829039692878723,0,0,1.375920057296753
2.019225301,0,0,0.7254431247711182,0,0,1.070159912109375
2.020225494,0,0,0.912190854549408,0,0,0.3822000026702881
2.021226743,0,0,1.3527239561080933,0,0,0.5350799560546875
2.0222254,0,0,1.8315643072128296,0,0,0.2293200045824051
2.023225149,0,0,1.987187385559082,0,0,0.8408399820327759
2.02422512,0,0,1.86508309841156,0,0,0.611519992351532
2.025226221,0,0,1.4772224426269531,0,0,1.6816799640655518
2.026224748,0,0,1.0606313943862915,0,0,1.070159912109375
2.027225182,0,0,1.0821791887283325,0,0,0.8408399820327759
2.028225283,0,0,1.1085153818130493,0,0,0.2293200045824051
2.02922631,0,0,1.4173674583435059,0,0,0.9172800183296204
2.0302253,0,0,1.3934253454208374,0,0,0.5350799560546875
2.031225382,0,0,1.292868971824646,0,0,0.9937199950218201
2.03222515,0,0,1.1635819673538208,0,0,0.7644000053405762
2.033226344,0,0,1.170764684677124,0,0,0.7644000053405762
2.034225148,0,0,1.4891934394836426,0,0,0.4586400091648102
2.035225212,0,0,1.5873557329177856,0,0,1.223039984703064
2.036225202,0,0,1.3982137441635132,0,0,0
2.037226118,0,0,1.4389152526855469,0,0,0.5350799560546875
2.038225311,0,0,0.9361328482627869,0,0,0.305759996175766
2.039225023,0,0,0.730231523513794,0,0,0.305759996175766
2.040228273,0,0,0.6009446382522583,0,0,0.5350799560546875
2.041226781,0,0,0.5578489899635315,0,0,0
2.042225345,0,0,1.0558429956436157,0,0,0.152879998087883
2.043225187,0,0,1.213860273361206,0,0,0.5350799560546875
2.044224806,0,0,1.6950948238372803,0,0,0.305759996175766
2.045226111,0,0,1.5298948287963867,0,0,1.9874399900436401
2.046225286,0,0,1.3263877630233765,0,0,0.8408399820327759
2.04722472,0,0,1.3718775510787964,0,0,0.9172800183296204
2.048224784,0,0,1.115697979927063,0,0,1.070159912109375
2.049345254,0,0,1.235408067703247,0,0,0.611519992351532
2.050228504,0,0,1.6424223184585571,0,0,0.3822000026702881
2.051226142,0,0,1.824381709098816,0,0,0.6879600286483765
2.05222528,0,0,1.9967641830444336,0,0,1.070159912109375
2.053226474,0,0,1.644816517829895,0,0,1.1466000080108643
2.054225186,0,0,1.381454348564148,0,0,0.9937199950218201
2.055225213,0,0,0.9433154463768005,0,0,1.070159912109375
2.056225147,0,0,0.6967126727104187,0,0,9.402119636535645
2.057226378,0,0,1.0295066833496094,0,0,0.305759996175766
2.058225275,0,0,1.158793568611145,0,0,9.478560447692871
2.059225302,0,0,1.192312479019165,0,0,0.0764399990439415
2.060225143,0,0,1.4772224426269531,0,0,0.5350799560546875
2.061229948,0,0,1.3718775510787964,0,0,0.5350799560546875
2.062280419,0,0,1.3215993642807007,0,0,1.375920057296753
2.06325765,0,0,1.1492167711257935,0,0,0.8408399820327759
2.064226325,0,0,0.9672574996948242,0,0,0.611519992351532
2.065229593,0,0,1.1492167711257935,0,0,1.070159912109375
2.066222268,0,0,1.2952631711959839,0,0,0
2.067222609,0,0,1.6974890232086182,0,0,0.7644000053405762
2.068222247,0,0,1.8291701078414917,0,0,0.5350799560546875
2.069226441,0,0,1.659181833267212,0,0,0.9937199950218201
2.070225097,0,0,1.6160861253738403,0,0,0.9172800183296204
2.071226458,0,0,1.1276689767837524,0,0,0.9172800183296204
2.072225022,0,0,0.9409212470054626,0,0,1.070159912109375
2.073227382,0,0,0.8212111592292786,0,0,0.5350799560546875
2.074224927,0,0,0.9457096457481384,0,0,0.152879998087883
2.075224843,0,0,1.113303780555725,0,0,0
2.076224666,0,0,1.1013327836990356,0,0,9.172800064086914
2.077233582,0,0,1.1779472827911377,0,0,0.2293200045824051
2.078225942,0,0,1.4269442558288574,0,0,0.305759996175766
2.079232376,0,0,1.278503656387329,0,0,0.611519992351532
2.080226237,0,0,1.37906014919281,0,0,1.070159912109375
2.081381132,0,0,1.1659762859344482,0,0,1.1466000080108643
2.082230457,0,0,1.0893617868423462,0,0,1.1466000080108643
2.083227688,0,0,1.2401964664459229,0,0,0.9937199950218201
2.084227344,0,0,1.2976573705673218,0,0,0.9937199950218201
2.08523026,0,0,1.6280571222305298,0,0,0.4586400091648102
2.08622649,0,0,1.7741034030914307,0,0,0
2.087226869,0,0,1.580173134803772,0,0,0.611519992351532
2.088226581,0,0,1.6112977266311646,0,0,0.2293200045824051
2.089227479,0,0,1.1875240802764893,0,0,0.305759996175766
2.09022645,0,0,1.0271124839782715,0,0,0.7644000053405762
2.091226699,0,0,0.8906430602073669,0,0,0.611519992351532
2.0922268,0,0,0.9074024558067322,0,0,0.611519992351532
2.093227956,0,0,0.9744400978088379,0,0,0.611519992351532
2.094227261,0,0,0.9409212470054626,0,0,0.7644000053405762
2.095226732,0,0,1.256955862045288,0,0,0.5350799560546875
2.096226685,0,0,1.3335703611373901,0,0,0.611519992351532
2.097227582,0,0,1.3000515699386597,0,0,0.6879600286483765
2.098226683,0,0,1.6543933153152466,0,0,0.9172800183296204
2.099226766,0,0,1.5083470344543457,0,0,0.7644000053405762
2.100226793,0,0,1.4532804489135742,0,0,0.8408399820327759
2.101235042,0,0,1.357512354850769,0,0,1.1466000080108643
2.102226976,0,0,1.2976573705673218,0,0,0.7644000053405762
2.10322717,0,0,1.2713210582733154,0,0,0.611519992351532
