Time,AccelX1,AccelY1,AccelZ1,AccelX2,AccelY2,AccelZ2
0.000171591,0,0,1.4700398445129395,0,0,0.9172800183296204
0.000500272,0,0,1.4700398445129395,0,0,1.605239987373352
0.000753269,0,0,1.5825673341751099,0,0,1.5288000106811523
0.001086154,0,0,1.5825673341751099,0,0,1.375920057296753
0.001419243,0,0,1.5825673341751099,0,0,0.2293200045824051
0.001753387,0,0,1.5825673341751099,0,0,0.4586400091648102
0.002085716,0,0,1.5825673341751099,0,0,0.305759996175766
0.002418546,0,0,1.5825673341751099,0,0,0.5350799560546875
0.002751875,0,0,1.5825673341751099,0,0,0.611519992351532
0.003086686,0,0,1.3623007535934448,0,0,0.9937199950218201
0.003425756,0,0,1.3623007535934448,0,0,1.223039984703064
0.003768956,0,0,1.3623007535934448,0,0,0.6879600286483765
0.004089174,0,0,1.3623007535934448,0,0,0.611519992351532
0.004418893,0,0,1.3623007535934448,0,0,0.8408399820327759
0.0047515,0,0,1.3623007535934448,0,0,0.3822000026702881
0.005085422,0,0,1.3623007535934448,0,0,0.611519992351532
0.00542464,0,0,1.3623007535934448,0,0,0.4586400091648102
0.005767451,0,0,1.3910311460494995,0,0,0.5350799560546875
0.006087521,0,0,1.3910311460494995,0,0,0.6879600286483765
0.006419425,0,0,1.3910311460494995,0,0,0.9937199950218201
0.00675181,0,0,1.3910311460494995,0,0,0.7644000053405762
0.007084972,0,0,1.3910311460494995,0,0,0.9937199950218201
0.007418598,0,0,1.3910311460494995,0,0,1.1466000080108643
0.007751539,0,0,1.3910311460494995,0,0,0.611519992351532
0.008084831,0,0,1.3958195447921753,0,0,0.5350799560546875
0.008418531,0,0,1.3958195447921753,0,0,1.1466000080108643
0.008751564,0,0,1.3958195447921753,0,0,1.2994799613952637
0.00908456,0,0,1.3958195447921753,0,0,0.2293200045824051
0.009422612,0,0,1.3958195447921753,0,0,0.152879998087883
0.009755423,0,0,1.3958195447921753,0,0,0.9172800183296204
0.010085122,0,0,1.3958195447921753,0,0,0.9172800183296204
0.010423156,0,0,1.2330138683319092,0,0,1.1466000080108643
0.010751652,0,0,1.2330138683319092,0,0,0.305759996175766
0.011086926,0,0,1.2330138683319092,0,0,0.305759996175766
0.011418959,0,0,1.2330138683319092,0,0,0
0.011752029,0,0,1.2330138683319092,0,0,0.0764399990439415
0.012084803,0,0,1.2330138683319092,0,0,0
0.01241804,0,0,1.2330138683319092,0,0,1.605239987373352
0.012751536,0,0,1.237802267074585,0,0,1.6816799640655518
0.013084735,0,0,1.237802267074585,0,0,1.452359914779663
0.01341912,0,0,1.237802267074585,0,0,1.605239987373352
0.013752042,0,0,1.237802267074585,0,0,1.452359914779663
0.014084705,0,0,1.237802267074585,0,0,2.522519826889038
0.014418127,0,0,1.237802267074585,0,0,0.9937199950218201
0.014751883,0,0,1.237802267074585,0,0,0.9172800183296204
0.015091305,0,0,1.4915876388549805,0,0,0.9937199950218201
0.015422504,0,0,1.4915876388549805,0,0,0.6879600286483765
0.01576926,0,0,1.4915876388549805,0,0,0.5350799560546875
0.016106367,0,0,1.4915876388549805,0,0,0.611519992351532
0.016439363,0,0,1.4915876388549805,0,0,0.7644000053405762
0.016754396,0,0,1.4915876388549805,0,0,1.1466000080108643
0.017085244,0,0,1.4915876388549805,0,0,0.7644000053405762
0.017448536,0,0,1.501164436340332,0,0,0.6879600286483765
0.017752181,0,0,1.501164436340332,0,0,0.7644000053405762
0.018085066,0,0,1.501164436340332,0,0,0.5350799560546875
0.018418247,0,0,1.501164436340332,0,0,0.2293200045824051
0.01875141,0,0,1.501164436340332,0,0,0.3822000026702881
0.019085221,0,0,1.501164436340332,0,0,0.611519992351532
0.019418272,0,0,1.501164436340332,0,0,1.223039984703064
0.019751379,0,0,1.501164436340332,0,0,0.4586400091648102
0.020085394,0,0,1.5179238319396973,0,0,0.2293200045824051
0.020418594,0,0,1.5179238319396973,0,0,0.9172800183296204
0.020755608,0,0,1.5179238319396973,0,0,1.1466000080108643
0.021085253,0,0,1.5179238319396973,0,0,0.9937199950218201
0.02141836,0,0,1.5179238319396973,0,0,0.8408399820327759
0.021772893,0,0,1.4508862495422363,0,0,1.6816799640655518
0.022086945,0,0,1.4508862495422363,0,0,1.1466000080108643
0.022419589,0,0,1.4508862495422363,0,0,1.6816799640655518
0.022755344,0,0,1.4508862495422363,0,0,1.223039984703064
0.023091729,0,0,1.4508862495422363,0,0,0.4586400091648102
0.023428281,0,0,1.4508862495422363,0,0,0.152879998087883
0.023761592,0,0,1.4508862495422363,0,0,-0.3822000026702881
0.024091588,0,0,1.5969325304031372,0,0,0.9937199950218201
0.02442688,0,0,1.5969325304031372,0,0,0.305759996175766
0.024774339,0,0,1.5969325304031372,0,0,0.611519992351532
0.025087743,0,0,1.5969325304031372,0,0,0.4586400091648102
0.025419665,0,0,1.5969325304031372,0,0,0.9937199950218201
0.025752865,0,0,1.5969325304031372,0,0,0.7644000053405762
0.026085435,0,0,1.5969325304031372,0,0,0.7644000053405762
0.026418598,0,0,1.4245500564575195,0,0,0.5350799560546875
0.026754612,0,0,1.4245500564575195,0,0,0.611519992351532
0.027090979,0,0,1.4245500564575195,0,0,0.7644000053405762
0.027424697,0,0,1.4245500564575195,0,0,0.9937199950218201
0.0277701,0,0,1.4245500564575195,0,0,0.8408399820327759
0.028097985,0,0,1.4245500564575195,0,0,0.8408399820327759
0.028421852,0,0,1.4245500564575195,0,0,0.611519992351532
0.028751292,0,0,1.4245500564575195,0,0,0.9172800183296204
0.029084752,0,0,1.2521674633026123,0,0,0.611519992351532
0.029491636,0,0,1.2521674633026123,0,0,1.375920057296753
0.029897853,0,0,1.2521674633026123,0,0,1.6816799640655518
0.030089962,0,0,1.2521674633026123,0,0,0.6879600286483765
0.03042044,0,0,1.2521674633026123,0,0,0.3822000026702881
0.030753269,0,0,1.2521674633026123,0,0,0.4586400091648102
0.031092302,0,0,1.2521674633026123,0,0,1.1466000080108643
0.031420224,0,0,1.3670891523361206,0,0,1.1466000080108643
0.03175285,0,0,1.3670891523361206,0,0,0.9172800183296204
0.032086087,0,0,1.3670891523361206,0,0,0.8408399820327759
0.03241949,0,0,1.3670891523361206,0,0,0.5350799560546875
0.032752727,0,0,1.3670891523361206,0,0,0.7644000053405762
0.033086186,0,0,1.3670891523361206,0,0,0.7644000053405762
0.033419775,0,0,1.3670891523361206,0,0,0.9172800183296204
0.033753141,0,0,1.3072341680526733,0,0,0.8408399820327759
0.034086137,0,0,1.3072341680526733,0,0,0.3822000026702881
0.034419411,0,0,1.3072341680526733,0,0,0
0.034753111,0,0,1.3072341680526733,0,0,0
0.035086033,0,0,1.3072341680526733,0,0,0.2293200045824051
0.035419325,0,0,1.3072341680526733,0,0,1.8345600366592407
0.03575297,0,0,1.3072341680526733,0,0,0.9937199950218201
0.036086855,0,0,1.2976573705673218,0,0,1.5288000106811523
0.036441702,0,0,1.2976573705673218,0,0,0.6879600286483765
0.03675418,0,0,1.2976573705673218,0,0,0.8408399820327759
0.037086139,0,0,1.335964560508728,0,0,0.8408399820327759
0.037421469,0,0,1.335964560508728,0,0,0.8408399820327759
0.037753113,0,0,1.335964560508728,0,0,1.070159912109375
0.038086016,0,0,1.335964560508728,0,0,0.8408399820327759
0.038419438,0,0,1.335964560508728,0,0,0.9172800183296204
0.038753009,0,0,1.335964560508728,0,0,0.611519992351532
0.039085931,0,0,1.335964560508728,0,0,0.8408399820327759
0.039419241,0,0,1.37906014919281,0,0,0.7644000053405762
0.039752663,0,0,1.37906014919281,0,0,0.8408399820327759
0.040086067,0,0,1.37906014919281,0,0,0.5350799560546875
0.040419156,0,0,1.37906014919281,0,0,1.223039984703064
0.040752633,0,0,1.37906014919281,0,0,0.7644000053405762
0.041086426,0,0,1.37906014919281,0,0,0.0764399990439415
0.041422255,0,0,1.37906014919281,0,0,0.0764399990439415
0.04175264,0,0,1.37906014919281,0,0,0.4586400091648102
0.042086469,0,0,1.4987702369689941,0,0,0.5350799560546875
0.042419243,0,0,1.4987702369689941,0,0,0.611519992351532
0.042752684,0,0,1.4987702369689941,0,0,0.7644000053405762
0.043097772,0,0,1.4987702369689941,0,0,1.375920057296753
0.04342025,0,0,1.4987702369689941,0,0,1.1466000080108643
0.043753228,0,0,1.4987702369689941,0,0,0.9937199950218201
0.044086409,0,0,1.4987702369689941,0,0,1.1466000080108643
0.04441922,0,0,1.5729905366897583,0,0,1.452359914779663
0.044752586,0,0,1.5729905366897583,0,0,1.605239987373352
0.045086434,0,0,1.5729905366897583,0,0,1.758120059967041
0.045419412,0,0,1.5729905366897583,0,0,1.2994799613952637
0.04575263,0,0,1.5729905366897583,0,0,1.452359914779663
0.046086367,0,0,1.5729905366897583,0,0,0.305759996175766
0.046419308,0,0,1.5729905366897583,0,0,0.2293200045824051
0.046752822,0,0,1.5059528350830078,0,0,0.2293200045824051
0.047086059,0,0,1.5059528350830078,0,0,0.152879998087883
0.047419574,0,0,1.5059528350830078,0,0,1.452359914779663
0.047752699,0,0,1.5059528350830078,0,0,0.3822000026702881
0.048085825,0,0,1.5059528350830078,0,0,0.611519992351532
0.048419895,0,0,1.5059528350830078,0,0,0.9937199950218201
0.048752836,0,0,1.5059528350830078,0,0,1.070159912109375
0.049086147,0,0,1.6280571222305298,0,0,0.6879600286483765
0.049419569,0,0,1.6280571222305298,0,0,0.7644000053405762
0.04975262,0,0,1.6280571222305298,0,0,0.5350799560546875
0.050086135,0,0,1.6280571222305298,0,0,0.611519992351532
0.050422538,0,0,1.6280571222305298,0,0,0.6879600286483765
0.050950847,0,0,1.6280571222305298,0,0,1.8345600366592407
0.051091512,0,0,1.6280571222305298,0,0,0.9937199950218201
0.051419786,0,0,1.6280571222305298,0,0,0.9172800183296204
0.051755708,0,0,1.400607943534851,0,0,0.7644000053405762
0.052097889,0,0,1.400607943534851,0,0,0.4586400091648102
0.05242857,0,0,1.400607943534851,0,0,0.6879600286483765
0.052754955,0,0,1.400607943534851,0,0,0.9172800183296204
0.053086415,0,0,1.400607943534851,0,0,0.6879600286483765
0.05342004,0,0,1.2832920551300049,0,0,0.9937199950218201
0.05375274,0,0,1.2832920551300049,0,0,0.8408399820327759
0.054086088,0,0,1.2832920551300049,0,0,0.5350799560546875
0.054419325,0,0,1.2832920551300049,0,0,0.5350799560546875
0.054753191,0,0,1.2832920551300049,0,0,0.7644000053405762
0.05508615,0,0,1.2832920551300049,0,0,0.3822000026702881
0.055419109,0,0,1.2832920551300049,0,0,0.2293200045824051
0.055753013,0,0,1.3239935636520386,0,0,0
0.056086027,0,0,1.3239935636520386,0,0,0.3822000026702881
0.056419561,0,0,1.3239935636520386,0,0,0.2293200045824051
0.056752909,0,0,1.3239935636520386,0,0,0.305759996175766
0.05708609,0,0,1.3239935636520386,0,0,1.375920057296753
0.05741929,0,0,1.3239935636520386,0,0,1.5288000106811523
0.057753156,0,0,1.3239935636520386,0,0,1.375920057296753
0.058085948,0,0,1.335964560508728,0,0,1.452359914779663
0.058419371,0,0,1.335964560508728,0,0,1.5288000106811523
0.058753107,0,0,1.335964560508728,0,0,2.2167599201202393
0.059086529,0,0,1.335964560508728,0,0,0.8408399820327759
0.059419433,0,0,1.335964560508728,0,0,0.6879600286483765
0.059753022,0,0,1.2545616626739502,0,0,0.7644000053405762
0.060085888,0,0,1.2545616626739502,0,0,0.4586400091648102
0.060419532,0,0,1.2545616626739502,0,0,0.9172800183296204
0.060752825,0,0,1.2545616626739502,0,0,0.305759996175766
0.061086117,0,0,1.2545616626739502,0,0,0.2293200045824051
0.061419502,0,0,1.2545616626739502,0,0,0.9937199950218201
0.061752813,0,0,1.2545616626739502,0,0,1.070159912109375
0.062089902,0,0,1.3096283674240112,0,0,0.8408399820327759
0.062419694,0,0,1.3096283674240112,0,0,0.305759996175766
0.062752838,0,0,1.3096283674240112,0,0,0.2293200045824051
0.063097723,0,0,1.3096283674240112,0,0,0.6879600286483765
0.063419849,0,0,1.3096283674240112,0,0,0.6879600286483765
0.063752752,0,0,1.3096283674240112,0,0,0.305759996175766
0.06408623,0,0,1.3096283674240112,0,0,1.1466000080108643
0.064419467,0,0,1.479616641998291,0,0,1.2994799613952637
0.064752778,0,0,1.479616641998291,0,0,1.070159912109375
0.065086255,0,0,1.479616641998291,0,0,0.611519992351532
0.065419603,0,0,1.479616641998291,0,0,1.070159912109375
0.065752673,0,0,1.479616641998291,0,0,1.452359914779663
0.066086725,0,0,1.479616641998291,0,0,0.9172800183296204
0.066420925,0,0,1.479616641998291,0,0,1.452359914779663
0.066754125,0,0,1.5322890281677246,0,0,1.070159912109375
0.067087584,0,0,1.5322890281677246,0,0,1.605239987373352
0.067419821,0,0,1.5322890281677246,0,0,1.5288000106811523
0.067752798,0,0,1.5322890281677246,0,0,0.4586400091648102
0.068086183,0,0,1.5322890281677246,0,0,0.305759996175766
0.068419438,0,0,1.5322890281677246,0,0,0.6879600286483765
0.06875262,0,0,1.5322890281677246,0,0,0.3822000026702881
0.069085986,0,0,1.525106430053711,0,0,0.3822000026702881
0.069420001,0,0,1.525106430053711,0,0,0.3822000026702881
0.069751645,0,0,1.525106430053711,0,0,0
0.07008466,0,0,1.525106430053711,0,0,0.9172800183296204
0.070418396,0,0,1.525106430053711,0,0,0.611519992351532
0.07075167,0,0,1.525106430053711,0,0,0.5350799560546875
0.071084741,0,0,1.525106430053711,0,0,0.6879600286483765
0.071418514,0,0,1.4867992401123047,0,0,0.4586400091648102
0.071751455,0,0,1.4867992401123047,0,0,0.4586400091648102
0.072084655,0,0,1.4867992401123047,0,0,1.223039984703064
0.072421466,0,0,1.4867992401123047,0,0,1.2994799613952637
0.072751425,0,0,1.4867992401123047,0,0,0.6879600286483765
0.073084958,0,0,1.4867992401123047,0,0,0.305759996175766
0.073653099,0,0,1.4867992401123047,0,0,0.7644000053405762
0.073755598,0,0,1.5753847360610962,0,0,0.8408399820327759
0.074086298,0,0,1.5753847360610962,0,0,0.9172800183296204
0.074419868,0,0,1.5753847360610962,0,0,1.2994799613952637
0.074752605,0,0,1.5753847360610962,0,0,0.9172800183296204
0.075085675,0,0,1.5753847360610962,0,0,0.6879600286483765
0.075419023,0,0,1.5753847360610962,0,0,0.6879600286483765
0.075752593,0,0,1.5753847360610962,0,0,0.5350799560546875
0.076085626,0,0,1.2521674633026123,0,0,0.9937199950218201
0.076419159,0,0,1.2521674633026123,0,0,0.611519992351532
0.076752822,0,0,1.2521674633026123,0,0,0.7644000053405762
0.077085855,0,0,1.2521674633026123,0,0,0.6879600286483765
0.077419148,0,0,1.2521674633026123,0,0,0.0764399990439415
0.077752847,0,0,1.2521674633026123,0,0,0.305759996175766
0.078085862,0,0,1.2521674633026123,0,0,0.5350799560546875
0.078419229,0,0,1.2449848651885986,0,0,0.152879998087883
0.078752743,0,0,1.2449848651885986,0,0,0.305759996175766
0.079085999,0,0,1.2449848651885986,0,0,1.2994799613952637
0.079419013,0,0,1.2449848651885986,0,0,1.375920057296753
0.079752935,0,0,1.2449848651885986,0,0,1.2994799613952637
0.08008582,0,0,1.2449848651885986,0,0,0.9172800183296204
0.080419224,0,0,1.2449848651885986,0,0,1.375920057296753
0.080752609,0,0,1.2449848651885986,0,0,1.758120059967041
0.081085827,0,0,1.2545616626739502,0,0,0.5350799560546875
0.081431027,0,0,1.2545616626739502,0,0,0.8408399820327759
0.08195928,0,0,1.2545616626739502,0,0,0.7644000053405762
0.082089297,0,0,1.2545616626739502,0,0,0.611519992351532
0.0824192,0,0,1.2545616626739502,0,0,0.5350799560546875
0.082757641,0,0,1.2545616626739502,0,0,1.223039984703064
0.083119414,0,0,1.2545616626739502,0,0,1.375920057296753
0.083463892,0,0,1.2258312702178955,0,0,0.8408399820327759
0.08375561,0,0,1.2258312702178955,0,0,0.305759996175766
0.084086551,0,0,1.2258312702178955,0,0,0.305759996175766
0.084435806,0,0,1.2258312702178955,0,0,0.8408399820327759
0.084752747,0,0,1.2258312702178955,0,0,0.8408399820327759
0.085086224,0,0,1.2258312702178955,0,0,0.611519992351532
0.085423869,0,0,1.2258312702178955,0,0,0.9937199950218201
0.085770253,0,0,1.2761094570159912,0,0,0.6879600286483765
0.086087528,0,0,1.2761094570159912,0,0,0.5350799560546875
0.086419283,0,0,1.2761094570159912,0,0,0.6879600286483765
0.086752501,0,0,1.2761094570159912,0,0,0.9172800183296204
0.08708622,0,0,1.2761094570159912,0,0,1.1466000080108643
0.08741916,0,0,1.2761094570159912,0,0,1.1466000080108643
0.087752452,0,0,1.2761094570159912,0,0,0.7644000053405762
0.088085986,0,0,1.3551181554794312,0,0,0.8408399820327759
0.088419093,0,0,1.3551181554794312,0,0,1.223039984703064
0.088752367,0,0,1.3551181554794312,0,0,1.5288000106811523
0.089086196,0,0,1.3551181554794312,0,0,1.452359914779663
0.089419303,0,0,1.3551181554794312,0,0,1.375920057296753
0.089752522,0,0,1.3551181554794312,0,0,1.605239987373352
0.090085851,0,0,1.3551181554794312,0,0,0.611519992351532
0.090419217,0,0,1.556231141090393,0,0,1.223039984703064
0.090752399,0,0,1.556231141090393,0,0,0.305759996175766
0.091085913,0,0,1.556231141090393,0,0,0.305759996175766
0.091419502,0,0,1.556231141090393,0,0,0.5350799560546875
0.091752331,0,0,1.556231141090393,0,0,0.4586400091648102
0.092085883,0,0,1.556231141090393,0,0,0.152879998087883
0.092419583,0,0,1.556231141090393,0,0,0.611519992351532
0.092752431,0,0,1.556231141090393,0,0,0.3822000026702881
0.093089316,0,0,1.678335428237915,0,0,0.6879600286483765
0.093419349,0,0,1.678335428237915,0,0,1.223039984703064
0.093752401,0,0,1.678335428237915,0,0,1.2994799613952637
0.094085508,0,0,1.678335428237915,0,0,0.611519992351532
0.094419374,0,0,1.678335428237915,0,0,0.2293200045824051
0.094752222,0,0,1.678335428237915,0,0,0.7644000053405762
0.095179439,0,0,1.678335428237915,0,0,0.8408399820327759
0.095422344,0,0,1.5275006294250488,0,0,0.5350799560546875
0.095752988,0,0,1.5275006294250488,0,0,0.8408399820327759
0.09608591,0,0,1.5275006294250488,0,0,0.9937199950218201
0.096419351,0,0,1.5275006294250488,0,0,1.2994799613952637
0.09675218,0,0,1.5275006294250488,0,0,1.070159912109375
0.097085621,0,0,1.5275006294250488,0,0,1.070159912109375
0.097419043,0,0,1.5275006294250488,0,0,1.375920057296753
0.097752372,0,0,1.6041151285171509,0,0,0.5350799560546875
0.098085628,0,0,1.6041151285171509,0,0,0.8408399820327759
0.098419013,0,0,1.6041151285171509,0,0,0.611519992351532
0.098752805,0,0,1.6041151285171509,0,0,0.7644000053405762
0.099085727,0,0,1.6041151285171509,0,0,0.7644000053405762
0.099419001,0,0,1.6041151285171509,0,0,0.8408399820327759
0.099752571,0,0,1.6041151285171509,0,0,0.6879600286483765
0.100085586,0,0,1.5418659448623657,0,0,0.3822000026702881
0.100418822,0,0,1.5418659448623657,0,0,0.611519992351532
0.100752726,0,0,1.5418659448623657,0,0,0
0.101085611,0,0,1.5418659448623657,0,0,0.152879998087883
0.101418885,0,0,1.5418659448623657,0,0,0
0.101752511,0,0,1.5418659448623657,0,0,1.2994799613952637
0.102085581,0,0,1.5418659448623657,0,0,1.5288000106811523
0.102418725,0,0,1.359906554222107,0,0,1.452359914779663
0.102752665,0,0,1.359906554222107,0,0,1.452359914779663
0.103085513,0,0,1.359906554222107,0,0,1.5288000106811523
0.103420917,0,0,1.359906554222107,0,0,1.9874399900436401
0.103752857,0,0,1.359906554222107,0,0,0.5350799560546875
0.104085446,0,0,1.359906554222107,0,0,1.452359914779663
0.10441872,0,0,1.359906554222107,0,0,1.375920057296753
0.104752068,0,0,1.359906554222107,0,0,0.5350799560546875
0.105085768,0,0,1.3862427473068237,0,0,0.3822000026702881
0.105427116,0,0,1.3862427473068237,0,0,0.5350799560546875
0.105754797,0,0,1.3862427473068237,0,0,0.9937199950218201
0.106087015,0,0,1.3862427473068237,0,0,0.6879600286483765
0.106419456,0,0,1.3862427473068237,0,0,1.223039984703064
0.106752693,0,0,1.3862427473068237,0,0,0.9172800183296204
0.107086374,0,0,1.3862427473068237,0,0,0.7644000053405762
0.10741924,0,0,1.3192051649093628,0,0,0.5350799560546875
0.107752588,0,0,1.3192051649093628,0,0,0.5350799560546875
0.10808627,0,0,1.3192051649093628,0,0,0.5350799560546875
0.108419321,0,0,1.3192051649093628,0,0,0.9172800183296204
0.108752595,0,0,1.3192051649093628,0,0,0.3822000026702881
0.109086165,0,0,1.3192051649093628,0,0,0.3822000026702881
0.109420995,0,0,1.3192051649093628,0,0,0.8408399820327759
0.109760991,0,0,1.278503656387329,0,0,1.1466000080108643
0.110086765,0,0,1.278503656387329,0,0,1.1466000080108643
0.110419316,0,0,1.278503656387329,0,0,0.9172800183296204
0.110752535,0,0,1.278503656387329,0,0,1.1466000080108643
0.11108629,0,0,1.278503656387329,0,0,1.605239987373352
0.111419305,0,0,1.278503656387329,0,0,1.452359914779663
0.111783615,0,0,1.278503656387329,0,0,0.611519992351532
0.112088815,0,0,1.3263877630233765,0,0,1.070159912109375
0.112420108,0,0,1.3263877630233765,0,0,1.605239987373352
0.11275277,0,0,1.3263877630233765,0,0,1.223039984703064
0.113085952,0,0,1.3263877630233765,0,0,0.5350799560546875
0.113420114,0,0,1.3263877630233765,0,0,1.452359914779663
0.113755666,0,0,1.3263877630233765,0,0,0
0.114085996,0,0,1.3263877630233765,0,0,0
0.114419603,0,0,1.4508862495422363,0,0,0.4586400091648102
0.114752932,0,0,1.4508862495422363,0,0,1.2994799613952637
0.115085928,0,0,1.4508862495422363,0,0,0.9937199950218201
0.115419721,0,0,1.4508862495422363,0,0,0.152879998087883
0.115752476,0,0,1.4508862495422363,0,0,0.3822000026702881
0.116085972,0,0,1.4508862495422363,0,0,0.9172800183296204
0.116419524,0,0,1.4508862495422363,0,0,0.7644000053405762
0.11675252,0,0,1.4508862495422363,0,0,0.8408399820327759
0.117085942,0,0,1.556231141090393,0,0,1.1466000080108643
0.117419549,0,0,1.556231141090393,0,0,1.223039984703064
0.117751953,0,0,1.556231141090393,0,0,1.070159912109375
0.118085134,0,0,1.556231141090393,0,0,0.9172800183296204
0.118418185,0,0,1.556231141090393,0,0,1.070159912109375
0.11875157,0,0,1.556231141090393,0,0,1.1466000080108643
0.119084715,0,0,1.556231141090393,0,0,0.9172800183296204
0.119417877,0,0,1.5610195398330688,0,0,0.611519992351532
0.119751818,0,0,1.5610195398330688,0,0,0.9172800183296204
0.120084684,0,0,1.5610195398330688,0,0,0.8408399820327759
0.120417903,0,0,1.5610195398330688,0,0,0.8408399820327759
0.120751658,0,0,1.5610195398330688,0,0,0.9172800183296204
0.121084839,0,0,1.5610195398330688,0,0,0.9172800183296204
0.121419076,0,0,1.5610195398330688,0,0,0.8408399820327759
0.121751776,0,0,1.53707754611969,0,0,0.9172800183296204
0.122084717,0,0,1.53707754611969,0,0,0.3822000026702881
0.122418027,0,0,1.53707754611969,0,0,0
0.122751783,0,0,1.53707754611969,0,0,0.0764399990439415
0.123084723,0,0,1.53707754611969,0,0,0.305759996175766
0.123417831,0,0,1.53707754611969,0,0,1.452359914779663
0.123751827,0,0,1.53707754611969,0,0,0.152879998087883
0.124087045,0,0,1.5466543436050415,0,0,1.070159912109375
0.124418134,0,0,1.5466543436050415,0,0,1.1466000080108643
0.124751648,0,0,1.5466543436050415,0,0,0.9172800183296204
0.125084644,0,0,1.5466543436050415,0,0,1.9109998941421509
0.125422159,0,0,1.5466543436050415,0,0,0.0764399990439415
0.125752988,0,0,1.5466543436050415,0,0,1.375920057296753
0.126085633,0,0,1.5466543436050415,0,0,0.305759996175766
0.126419073,0,0,1.3479355573654175,0,0,0.5350799560546875
0.126752106,0,0,1.3479355573654175,0,0,0.9172800183296204
0.127086213,0,0,1.3479355573654175,0,0,1.1466000080108643
0.127419061,0,0,1.3479355573654175,0,0,0.8408399820327759
0.127752354,0,0,1.3479355573654175,0,0,1.070159912109375
0.128085924,0,0,1.3479355573654175,0,0,0.9937199950218201
0.128419013,0,0,1.3479355573654175,0,0,0.611519992351532
0.128752324,0,0,1.359906554222107,0,0,0.611519992351532
0.12908582,0,0,1.359906554222107,0,0,0.9172800183296204
0.129420001,0,0,1.359906554222107,0,0,0.9172800183296204
0.129752238,0,0,1.359906554222107,0,0,0.6879600286483765
0.13008603,0,0,1.359906554222107,0,0,0.4586400091648102
0.130419063,0,0,1.359906554222107,0,0,0.4586400091648102
0.130752337,0,0,1.359906554222107,0,0,0.611519992351532
0.131086241,0,0,1.359906554222107,0,0,0.9937199950218201
0.131419126,0,0,1.3239935636520386,0,0,0.6879600286483765
0.131752159,0,0,1.3239935636520386,0,0,0.9172800183296204
0.132086044,0,0,1.3239935636520386,0,0,1.375920057296753
0.132419021,0,0,1.3239935636520386,0,0,1.223039984703064
0.132752147,0,0,1.3239935636520386,0,0,0.8408399820327759
0.133085551,0,0,1.3239935636520386,0,0,0.9937199950218201
0.133419102,0,0,1.3239935636520386,0,0,1.2994799613952637
0.13375245,0,0,1.2497732639312744,0,0,1.605239987373352
0.134085465,0,0,1.2497732639312744,0,0,1.452359914779663
0.13442159,0,0,1.2497732639312744,0,0,1.375920057296753
0.134752549,0,0,1.2497732639312744,0,0,1.2994799613952637
0.135085675,0,0,1.2497732639312744,0,0,1.375920057296753
0.135419579,0,0,1.2497732639312744,0,0,0.152879998087883
0.135752371,0,0,1.2497732639312744,0,0,0
0.136085626,0,0,1.2114660739898682,0,0,0.5350799560546875
0.136419123,0,0,1.2114660739898682,0,0,0.8408399820327759
0.13675223,0,0,1.2114660739898682,0,0,0.152879998087883
0.137085559,0,0,1.2114660739898682,0,0,0.5350799560546875
0.137419407,0,0,1.2114660739898682,0,0,0.611519992351532
0.137758699,0,0,1.2114660739898682,0,0,0.9172800183296204
0.138086233,0,0,1.2114660739898682,0,0,0.6879600286483765
0.138419506,0,0,1.4389152526855469,0,0,0.8408399820327759
0.138752428,0,0,1.4389152526855469,0,0,1.070159912109375
0.139085665,0,0,1.4389152526855469,0,0,0.6879600286483765
0.139419161,0,0,1.4389152526855469,0,0,0.9172800183296204
0.139752435,0,0,1.4389152526855469,0,0,1.1466000080108643
0.140085598,0,0,1.4389152526855469,0,0,0.9172800183296204
0.140419057,0,0,1.4389152526855469,0,0,0.6879600286483765
0.140752646,0,0,1.4389152526855469,0,0,0.5350799560546875
0.141085531,0,0,1.5394717454910278,0,0,0.9172800183296204
0.14141899,0,0,1.5394717454910278,0,0,1.1466000080108643
0.141752579,0,0,1.5394717454910278,0,0,1.1466000080108643
0.142085704,0,0,1.5394717454910278,0,0,0.9172800183296204
0.142418811,0,0,1.5394717454910278,0,0,0.7644000053405762
0.142753845,0,0,1.5394717454910278,0,0,1.223039984703064
0.143086359,0,0,1.5394717454910278,0,0,0.5350799560546875
0.143419115,0,0,1.5466543436050415,0,0,0.611519992351532
0.143753129,0,0,1.5466543436050415,0,0,0.5350799560546875
0.144087014,0,0,1.5466543436050415,0,0,0.611519992351532
0.144420492,0,0,1.5466543436050415,0,0,0.611519992351532
0.144759228,0,0,1.5466543436050415,0,0,0.2293200045824051
0.145088428,0,0,1.5466543436050415,0,0,0.4586400091648102
0.145425684,0,0,1.5466543436050415,0,0,1.452359914779663
0.145772624,0,0,1.534683346748352,0,0,1.070159912109375
0.146090991,0,0,1.534683346748352,0,0,0.7644000053405762
0.146427487,0,0,1.534683346748352,0,0,0.611519992351532
0.146755001,0,0,1.534683346748352,0,0,0.611519992351532
0.147475863,0,0,1.534683346748352,0,0,0.611519992351532
0.147500381,0,0,1.534683346748352,0,0,0.611519992351532
0.14776299,0,0,1.534683346748352,0,0,1.070159912109375
0.148092837,0,0,1.4891934394836426,0,0,1.1466000080108643
0.148425574,0,0,1.4891934394836426,0,0,0.8408399820327759
0.14875607,0,0,1.4891934394836426,0,0,0.7644000053405762
0.149092307,0,0,1.4891934394836426,0,0,1.070159912109375
0.149424359,0,0,1.4891934394836426,0,0,1.070159912109375
0.149759559,0,0,1.4891934394836426,0,0,0.9172800183296204
0.150097462,0,0,1.4891934394836426,0,0,1.1466000080108643
0.150434551,0,0,1.6280571222305298,0,0,0.9172800183296204
0.150764288,0,0,1.6280571222305298,0,0,0.8408399820327759
0.151103173,0,0,1.6280571222305298,0,0,0.3822000026702881
0.151433891,0,0,1.6280571222305298,0,0,0.5350799560546875
0.151759072,0,0,1.6280571222305298,0,0,0.9172800183296204
0.152093105,0,0,1.6280571222305298,0,0,0.7644000053405762
0.152422194,0,0,1.6280571222305298,0,0,1.070159912109375
0.152753672,0,0,1.3239935636520386,0,0,0.9937199950218201
0.153396998,0,0,1.3239935636520386,0,0,0.9937199950218201
0.153421256,0,0,1.3239935636520386,0,0,0.611519992351532
0.153760586,0,0,1.3239935636520386,0,0,0.9172800183296204
0.154093267,0,0,1.3239935636520386,0,0,0.3822000026702881
0.154419152,0,0,1.3239935636520386,0,0,0.6879600286483765
0.154752426,0,0,1.3239935636520386,0,0,0.9937199950218201
0.155093607,0,0,1.3239935636520386,0,0,0.5350799560546875
0.155419103,0,0,1.3192051649093628,0,0,0.7644000053405762
0.155754174,0,0,1.3192051649093628,0,0,1.2994799613952637
0.156085799,0,0,1.3192051649093628,0,0,0.7644000053405762
0.156419444,0,0,1.3192051649093628,0,0,1.375920057296753
0.156757051,0,0,1.3192051649093628,0,0,0
0.157085639,0,0,1.3192051649093628,0,0,1.452359914779663
0.157419858,0,0,1.3192051649093628,0,0,2.2167599201202393
0.157754335,0,0,1.3718775510787964,0,0,2.2167599201202393
0.158085702,0,0,1.3718775510787964,0,0,1.223039984703064
0.158419457,0,0,1.3718775510787964,0,0,-0.5350799560546875
0.158752842,0,0,1.3718775510787964,0,0,0.2293200045824051
0.15910069,0,0,1.3718775510787964,0,0,0.4586400091648102
0.159425279,0,0,1.3718775510787964,0,0,1.070159912109375
0.15975233,0,0,1.3718775510787964,0,0,0.6879600286483765
0.160085382,0,0,1.158793568611145,0,0,0.8408399820327759
0.160421248,0,0,1.158793568611145,0,0,0.6879600286483765
0.160752356,0,0,1.158793568611145,0,0,0.8408399820327759
0.161089,0,0,1.158793568611145,0,0,0.7644000053405762
0.16141957,0,0,1.158793568611145,0,0,0.9172800183296204
0.161752011,0,0,1.158793568611145,0,0,0.8408399820327759
0.162090414,0,0,1.158793568611145,0,0,0.611519992351532
0.162419466,0,0,1.3479355573654175,0,0,0.9172800183296204
0.162752221,0,0,1.3479355573654175,0,0,0.9172800183296204
0.163087347,0,0,1.3479355573654175,0,0,1.1466000080108643
0.163418917,0,0,1.3479355573654175,0,0,0.9937199950218201
0.163755913,0,0,1.3479355573654175,0,0,1.1466000080108643
0.16408578,0,0,1.3479355573654175,0,0,0.9937199950218201
0.164418702,0,0,1.3479355573654175,0,0,0.9937199950218201
0.164754772,0,0,1.3479355573654175,0,0,0.8408399820327759
0.165401857,0,0,1.5059528350830078,0,0,0.8408399820327759
0.165487467,0,0,1.5059528350830078,0,0,1.070159912109375
0.165767464,0,0,1.5059528350830078,0,0,1.452359914779663
0.166089312,0,0,1.5059528350830078,0,0,1.070159912109375
0.1664244,0,0,1.5059528350830078,0,0,0.9172800183296204
0.166753822,0,0,1.5059528350830078,0,0,0.5350799560546875
0.167087133,0,0,1.5059528350830078,0,0,0.305759996175766
0.167435129,0,0,1.5849615335464478,0,0,1.070159912109375
0.167759274,0,0,1.5849615335464478,0,0,1.452359914779663
0.168105084,0,0,1.5849615335464478,0,0,2.3696401119232178
0.168429247,0,0,1.5849615335464478,0,0,0.8408399820327759
0.16875628,0,0,1.5849615335464478,0,0,-0.152879998087883
0.169088054,0,0,1.5849615335464478,0,0,-0.0764399990439415
0.16942468,0,0,1.5849615335464478,0,0,0.0764399990439415
0.169754509,0,0,1.6041151285171509,0,0,-0.611519992351532
0.170089098,0,0,1.6041151285171509,0,0,9.249239921569824
0.170422594,0,0,1.6041151285171509,0,0,1.070159912109375
0.170754238,0,0,1.6041151285171509,0,0,0.8408399820327759
0.171147049,0,0,1.6041151285171509,0,0,0.7644000053405762
0.171425823,0,0,1.6041151285171509,0,0,0.4586400091648102
0.171753338,0,0,1.6041151285171509,0,0,0.9937199950218201
0.172091945,0,0,1.6041151285171509,0,0,0.7644000053405762
0.172420793,0,0,1.4173674583435059,0,0,0.6879600286483765
0.172753808,0,0,1.4173674583435059,0,0,0.8408399820327759
0.173091192,0,0,1.4173674583435059,0,0,1.1466000080108643
0.173421503,0,0,1.4173674583435059,0,0,1.070159912109375
0.173759555,0,0,1.4173674583435059,0,0,0.9937199950218201
0.174094773,0,0,1.4173674583435059,0,0,0.6879600286483765
0.174553027,0,0,1.4173674583435059,0,0,0.0764399990439415
0.174917523,0,0,1.6927006244659424,0,0,1.452359914779663
0.175092243,0,0,1.6927006244659424,0,0,0.9172800183296204
0.175421239,0,0,1.6927006244659424,0,0,0.4586400091648102
0.175767087,0,0,1.6927006244659424,0,0,0.6879600286483765
0.176088602,0,0,1.6927006244659424,0,0,0.6879600286483765
0.176421172,0,0,1.6927006244659424,0,0,0.6879600286483765
0.17675652,0,0,1.6927006244659424,0,0,0.611519992351532
0.177087572,0,0,1.4891934394836426,0,0,0.2293200045824051
0.177424864,0,0,1.4891934394836426,0,0,0.2293200045824051
0.177759193,0,0,1.4891934394836426,0,0,0.305759996175766
0.178088097,0,0,1.4891934394836426,0,0,0
0.178425556,0,0,1.4891934394836426,0,0,0.6879600286483765
0.178755737,0,0,1.4891934394836426,0,0,0.8408399820327759
0.179087381,0,0,1.4891934394836426,0,0,1.1466000080108643
0.17942697,0,0,1.237802267074585,0,0,-0.4586400091648102
0.179754003,0,0,1.237802267074585,0,0,0.611519992351532
0.180088407,0,0,1.237802267074585,0,0,2.06387996673584
0.18042394,0,0,1.237802267074585,0,0,1.6816799640655518
0.180754825,0,0,1.237802267074585,0,0,1.9109998941421509
0.181091913,0,0,1.237802267074585,0,0,1.6816799640655518
0.18142378,0,0,1.237802267074585,0,0,2.446079969406128
0.181755369,0,0,1.37906014919281,0,0,0.7644000053405762
0.182091587,0,0,1.37906014919281,0,0,0.8408399820327759
0.182421083,0,0,1.37906014919281,0,0,0.9172800183296204
0.182753894,0,0,1.37906014919281,0,0,0.6879600286483765
0.18308952,0,0,1.37906014919281,0,0,0.6879600286483765
0.183421053,0,0,1.37906014919281,0,0,0.7644000053405762
0.183753993,0,0,1.37906014919281,0,0,0.9937199950218201
0.184088323,0,0,1.314416766166687,0,0,0.8408399820327759
0.18442106,0,0,1.314416766166687,0,0,0.7644000053405762
0.184756759,0,0,1.314416766166687,0,0,0.9172800183296204
0.185087922,0,0,1.314416766166687,0,0,0.9937199950218201
0.185421252,0,0,1.314416766166687,0,0,0.6879600286483765
0.185762081,0,0,1.314416766166687,0,0,0.8408399820327759
0.18609417,0,0,1.314416766166687,0,0,0.7644000053405762
0.18642111,0,0,1.2545616626739502,0,0,0.6879600286483765
0.186757903,0,0,1.2545616626739502,0,0,0.611519992351532
0.187089158,0,0,1.2545616626739502,0,0,0.9937199950218201
0.187523949,0,0,1.2545616626739502,0,0,0.9172800183296204
0.187764576,0,0,1.2545616626739502,0,0,0.8408399820327759
0.188088609,0,0,1.2545616626739502,0,0,0.6879600286483765
0.188424476,0,0,1.2545616626739502,0,0,0
0.188755083,0,0,1.2545616626739502,0,0,0.5350799560546875
0.189087375,0,0,1.2761094570159912,0,0,0.6879600286483765
0.189420705,0,0,1.2761094570159912,0,0,1.8345600366592407
0.189753016,0,0,1.2761094570159912,0,0,0.3822000026702881
0.19009003,0,0,1.2761094570159912,0,0,0
0.190419508,0,0,1.2761094570159912,0,0,0.4586400091648102
0.190754837,0,0,1.2761094570159912,0,0,0.305759996175766
0.191087037,0,0,1.4700398445129395,0,0,0.6879600286483765
0.191419774,0,0,1.4700398445129395,0,0,0.6879600286483765
0.191756325,0,0,1.4700398445129395,0,0,0.6879600286483765
0.192086451,0,0,1.4700398445129395,0,0,-0.152879998087883
0.192422558,0,0,1.4700398445129395,0,0,9.707880020141602
0.192752536,0,0,1.4700398445129395,0,0,1.070159912109375
0.193121291,0,0,1.4700398445129395,0,0,0.9172800183296204
0.193449176,0,0,1.6089035272598267,0,0,0.8408399820327759
0.193755154,0,0,1.6089035272598267,0,0,0.6879600286483765
0.194086594,0,0,1.6089035272598267,0,0,0.7644000053405762
0.194419072,0,0,1.6089035272598267,0,0,0.9172800183296204
0.194757846,0,0,1.6089035272598267,0,0,0.9937199950218201
0.195099731,0,0,1.6089035272598267,0,0,0.9937199950218201
0.195419579,0,0,1.6089035272598267,0,0,0.9937199950218201
0.195754297,0,0,1.6376339197158813,0,0,1.1466000080108643
0.196086441,0,0,1.6376339197158813,0,0,0.9172800183296204
0.196430623,0,0,1.6376339197158813,0,0,0.8408399820327759
0.196752693,0,0,1.6376339197158813,0,0,0.611519992351532
0.197086541,0,0,1.6376339197158813,0,0,0.8408399820327759
0.197425389,0,0,1.6376339197158813,0,0,0.7644000053405762
0.197752551,0,0,1.6376339197158813,0,0,0.611519992351532
0.198086011,0,0,1.4844050407409668,0,0,0.5350799560546875
0.198420951,0,0,1.4844050407409668,0,0,0.5350799560546875
0.198752299,0,0,1.4844050407409668,0,0,0.0764399990439415
0.199089277,0,0,1.4844050407409668,0,0,0.7644000053405762
0.199419291,0,0,1.4844050407409668,0,0,0.4586400091648102
0.199752324,0,0,1.4844050407409668,0,0,0.305759996175766
0.200088839,0,0,1.4844050407409668,0,0,1.223039984703064
0.200419557,0,0,1.721431016921997,0,0,0.5350799560546875
0.200752498,0,0,1.721431016921997,0,0,0.4586400091648102
0.20108642,0,0,1.721431016921997,0,0,-0.2293200045824051
0.201419675,0,0,1.721431016921997,0,0,1.452359914779663
0.201757042,0,0,1.721431016921997,0,0,0.9172800183296204
0.202084519,0,0,1.721431016921997,0,0,1.6816799640655518
0.202418367,0,0,1.721431016921997,0,0,1.8345600366592407
0.202752826,0,0,1.4053963422775269,0,0,1.375920057296753
0.203084507,0,0,1.4053963422775269,0,0,0.9172800183296204
0.203418133,0,0,1.4053963422775269,0,0,1.452359914779663
0.203754555,0,0,1.4053963422775269,0,0,1.1466000080108643
0.204084514,0,0,1.4053963422775269,0,0,0.611519992351532
0.204420825,0,0,1.4053963422775269,0,0,0.7644000053405762
0.204751173,0,0,1.4053963422775269,0,0,0.9937199950218201
0.205084651,0,0,1.4053963422775269,0,0,0.9937199950218201
0.205421795,0,0,1.256955862045288,0,0,0.9172800183296204
0.205752291,0,0,1.256955862045288,0,0,1.070159912109375
0.206089028,0,0,1.256955862045288,0,0,0.8408399820327759
0.20641882,0,0,1.256955862045288,0,0,0.5350799560546875
0.206754613,0,0,1.256955862045288,0,0,0.5350799560546875
0.207090609,0,0,1.256955862045288,0,0,0.4586400091648102
0.207418771,0,0,1.256955862045288,0,0,0.8408399820327759
0.207752582,0,0,1.3048399686813354,0,0,0.9937199950218201
0.208087467,0,0,1.3048399686813354,0,0,0.7644000053405762
0.208418871,0,0,1.3048399686813354,0,0,0.6879600286483765
0.208755867,0,0,1.3048399686813354,0,0,0.6879600286483765
0.209085789,0,0,1.3048399686813354,0,0,0.6879600286483765
0.209419118,0,0,1.3048399686813354,0,0,0.6879600286483765
0.209756929,0,0,1.3048399686813354,0,0,0.4586400091648102
0.210085574,0,0,1.2066776752471924,0,0,1.2994799613952637
0.210418921,0,0,1.2066776752471924,0,0,1.605239987373352
0.210753362,0,0,1.2066776752471924,0,0,1.5288000106811523
0.211085451,0,0,1.2066776752471924,0,0,0.5350799560546875
0.211424854,0,0,1.2066776752471924,0,0,1.070159912109375
0.211752591,0,0,1.2066776752471924,0,0,0.9937199950218201
0.212085532,0,0,1.2066776752471924,0,0,0.3822000026702881
0.212420713,0,0,1.2832920551300049,0,0,1.452359914779663
0.212752579,0,0,1.2832920551300049,0,0,0.611519992351532
0.213085409,0,0,1.2832920551300049,0,0,0.6879600286483765
0.213422516,0,0,1.2832920551300049,0,0,1.8345600366592407
0.213752068,0,0,1.2832920551300049,0,0,0.5350799560546875
0.214089527,0,0,1.2832920551300049,0,0,0.6879600286483765
0.214419097,0,0,1.2832920551300049,0,0,-0.611519992351532
0.214752111,0,0,1.4197616577148438,0,0,0.305759996175766
0.215088348,0,0,1.4197616577148438,0,0,0.8408399820327759
0.215418826,0,0,1.4197616577148438,0,0,0.9172800183296204
0.215755637,0,0,1.4197616577148438,0,0,0.7644000053405762
0.216085929,0,0,1.4197616577148438,0,0,0.8408399820327759
0.216418758,0,0,1.4197616577148438,0,0,1.070159912109375
0.216757143,0,0,1.4197616577148438,0,0,0.8408399820327759
0.217088343,0,0,1.4197616577148438,0,0,0.8408399820327759
0.217419117,0,0,1.5059528350830078,0,0,0.7644000053405762
0.217754428,0,0,1.5059528350830078,0,0,0.4586400091648102
0.218084757,0,0,1.5059528350830078,0,0,0.7644000053405762
0.218418013,0,0,1.5059528350830078,0,0,0.8408399820327759
0.218751324,0,0,1.5059528350830078,0,0,1.1466000080108643
0.219084709,0,0,1.5059528350830078,0,0,0.6879600286483765
0.219422686,0,0,1.5059528350830078,0,0,0.4586400091648102
0.219751182,0,0,1.5969325304031372,0,0,0.5350799560546875
0.220084845,0,0,1.5969325304031372,0,0,0.611519992351532
0.220418582,0,0,1.5969325304031372,0,0,0.4586400091648102
0.220751319,0,0,1.5969325304031372,0,0,1.223039984703064
0.221090056,0,0,1.5969325304031372,0,0,0.6879600286483765
0.221419681,0,0,1.5969325304031372,0,0,0.8408399820327759
0.221752214,0,0,1.5969325304031372,0,0,0
0.222087674,0,0,1.522712230682373,0,0,0.305759996175766
0.222419281,0,0,1.522712230682373,0,0,0.0764399990439415
0.222755777,0,0,1.522712230682373,0,0,0.0764399990439415
0.223085403,0,0,1.522712230682373,0,0,0.4586400091648102
0.223419269,0,0,1.522712230682373,0,0,0.2293200045824051
0.223755543,0,0,1.522712230682373,0,0,0.7644000053405762
0.224085465,0,0,1.522712230682373,0,0,1.375920057296753
0.224419202,0,0,1.50355863571167,0,0,1.2994799613952637
0.224754272,0,0,1.50355863571167,0,0,0.0764399990439415
0.225085361,0,0,1.50355863571167,0,0,1.375920057296753
0.225419616,0,0,1.50355863571167,0,0,1.758120059967041
0.225752093,0,0,1.50355863571167,0,0,1.9109998941421509
0.226085441,0,0,1.50355863571167,0,0,0.7644000053405762
0.226424308,0,0,1.50355863571167,0,0,0.9172800183296204
0.22675223,0,0,1.623268723487854,0,0,1.452359914779663
0.227085448,0,0,1.623268723487854,0,0,0.9172800183296204
0.227423037,0,0,1.623268723487854,0,0,0.9937199950218201
0.227752496,0,0,1.623268723487854,0,0,0.8408399820327759
0.228089029,0,0,1.623268723487854,0,0,0.5350799560546875
0.228418951,0,0,1.623268723487854,0,0,0.5350799560546875
0.22875254,0,0,1.623268723487854,0,0,0.5350799560546875
0.229087499,0,0,1.623268723487854,0,0,0.8408399820327759
0.229419273,0,0,1.3431471586227417,0,0,0.7644000053405762
0.229756102,0,0,1.3431471586227417,0,0,0.6879600286483765
0.230085617,0,0,1.3431471586227417,0,0,0.611519992351532
0.230418817,0,0,1.3431471586227417,0,0,0.5350799560546875
0.230754461,0,0,1.3431471586227417,0,0,0.3822000026702881
0.231085512,0,0,1.3431471586227417,0,0,0.305759996175766
0.231421657,0,0,1.3431471586227417,0,0,0.7644000053405762
0.231752468,0,0,1.3862427473068237,0,0,0.6879600286483765
0.232085741,0,0,1.3862427473068237,0,0,1.223039984703064
0.232420571,0,0,1.3862427473068237,0,0,0.2293200045824051
0.232752567,0,0,1.3862427473068237,0,0,0.6879600286483765
0.233087933,0,0,1.3862427473068237,0,0,0.611519992351532
0.233419318,0,0,1.3862427473068237,0,0,1.1466000080108643
0.233752666,0,0,1.3862427473068237,0,0,1.5288000106811523
0.23409044,0,0,1.3886369466781616,0,0,0.3822000026702881
0.234418714,0,0,1.3886369466781616,0,0,1.2994799613952637
0.234752488,0,0,1.3886369466781616,0,0,1.223039984703064
0.235087428,0,0,1.3886369466781616,0,0,1.2994799613952637
0.235419184,0,0,1.3886369466781616,0,0,1.070159912109375
0.235757569,0,0,1.3886369466781616,0,0,0.611519992351532
0.236086195,0,0,1.3886369466781616,0,0,0.5350799560546875
0.236418746,0,0,1.259350061416626,0,0,0.3822000026702881
0.236754779,0,0,1.259350061416626,0,0,2.14031982421875
0.23708572,0,0,1.259350061416626,0,0,1.070159912109375
0.237419697,0,0,1.259350061416626,0,0,0.8408399820327759
0.237755564,0,0,1.259350061416626,0,0,0.9172800183296204
0.238086078,0,0,1.259350061416626,0,0,0.7644000053405762
0.238424649,0,0,1.259350061416626,0,0,0.6879600286483765
0.238752256,0,0,1.259350061416626,0,0,0.305759996175766
0.2390859,0,0,1.3263877630233765,0,0,0.611519992351532
0.239420285,0,0,1.3263877630233765,0,0,0.5350799560546875
0.239752281,0,0,1.3263877630233765,0,0,0.9172800183296204
0.240089851,0,0,1.3263877630233765,0,0,0.9172800183296204
0.240424273,0,0,1.3263877630233765,0,0,0.611519992351532
0.240760103,0,0,1.3263877630233765,0,0,0.8408399820327759
0.241098006,0,0,1.3263877630233765,0,0,0.6879600286483765
0.24142828,0,0,1.4173674583435059,0,0,0.611519992351532
0.241769443,0,0,1.4173674583435059,0,0,0.3822000026702881
0.242106828,0,0,1.4173674583435059,0,0,0.8408399820327759
0.242423991,0,0,1.4173674583435059,0,0,1.5288000106811523
0.242756153,0,0,1.4173674583435059,0,0,1.1466000080108643
0.243092872,0,0,1.4173674583435059,0,0,0
0.243420701,0,0,1.4173674583435059,0,0,0.7644000053405762
0.243753568,0,0,1.5203180313110352,0,0,1.223039984703064
0.24410586,0,0,1.5203180313110352,0,0,1.1466000080108643
0.244432115,0,0,1.5203180313110352,0,0,0.6879600286483765
0.244758778,0,0,1.5203180313110352,0,0,0.7644000053405762
0.245095422,0,0,1.5203180313110352,0,0,0.5350799560546875
0.245423474,0,0,1.5203180313110352,0,0,0.611519992351532
0.245756655,0,0,1.5203180313110352,0,0,1.375920057296753
0.246089281,0,0,1.601720929145813,0,0,0.6879600286483765
0.246419481,0,0,1.601720929145813,0,0,0
0.246756736,0,0,1.601720929145813,0,0,0.6879600286483765
0.247088158,0,0,1.601720929145813,0,0,0.4586400091648102
0.247432173,0,0,1.601720929145813,0,0,0.305759996175766
0.247757761,0,0,1.601720929145813,0,0,0.5350799560546875
0.248108442,0,0,1.601720929145813,0,0,0.6879600286483765
0.248433902,0,0,1.4053963422775269,0,0,0.9172800183296204
0.248756287,0,0,1.4053963422775269,0,0,1.070159912109375
0.249109894,0,0,1.4053963422775269,0,0,0.9937199950218201
0.249439649,0,0,1.4053963422775269,0,0,0.5350799560546875
0.250114326,0,0,1.4053963422775269,0,0,0.5350799560546875
0.250145307,0,0,1.4053963422775269,0,0,0.9172800183296204
0.250505637,0,0,1.4053963422775269,0,0,0.6879600286483765
0.250786522,0,0,1.4053963422775269,0,0,0.8408399820327759
0.251095889,0,0,1.5682021379470825,0,0,0.611519992351532
0.2514327,0,0,1.5682021379470825,0,0,0.7644000053405762
0.251780011,0,0,1.5682021379470825,0,0,0.7644000053405762
0.252096562,0,0,1.5682021379470825,0,0,0.611519992351532
0.252440558,0,0,1.5682021379470825,0,0,0.5350799560546875
0.252780295,0,0,1.5682021379470825,0,0,1.1466000080108643
0.253092014,0,0,1.5682021379470825,0,0,1.452359914779663
0.253429639,0,0,1.4269442558288574,0,0,1.070159912109375
0.253781672,0,0,1.4269442558288574,0,0,0.611519992351532
0.254089817,0,0,1.4269442558288574,0,0,0.611519992351532
0.254478479,0,0,1.4269442558288574,0,0,0.5350799560546875
0.254834252,0,0,1.4269442558288574,0,0,0.6879600286483765
0.255089787,0,0,1.4269442558288574,0,0,0.8408399820327759
0.255420634,0,0,1.4269442558288574,0,0,0.4586400091648102
0.255755094,0,0,1.3886369466781616,0,0,0.5350799560546875
0.256088516,0,0,1.3886369466781616,0,0,0.2293200045824051
0.25643453,0,0,1.3886369466781616,0,0,0.3822000026702881
0.256856229,0,0,1.3886369466781616,0,0,0.7644000053405762
0.25728252,0,0,1.3886369466781616,0,0,0.7644000053405762
0.257430537,0,0,1.3886369466781616,0,0,0.611519992351532
0.257759052,0,0,1.3886369466781616,0,0,0
0.258098381,0,0,1.3982137441635132,0,0,1.9874399900436401
0.258446358,0,0,1.3982137441635132,0,0,1.070159912109375
0.258825798,0,0,1.3982137441635132,0,0,1.070159912109375
0.25917709,0,0,1.3982137441635132,0,0,0.611519992351532
0.259436439,0,0,1.3982137441635132,0,0,0.9172800183296204
0.259778806,0,0,1.3982137441635132,0,0,0.611519992351532
0.260103691,0,0,1.3982137441635132,0,0,0.8408399820327759
0.260434539,0,0,1.3479355573654175,0,0,0.611519992351532
0.260756627,0,0,1.3479355573654175,0,0,0.6879600286483765
0.261101179,0,0,1.3479355573654175,0,0,0.6879600286483765
0.26144749,0,0,1.3479355573654175,0,0,0.6879600286483765
0.261765764,0,0,1.3479355573654175,0,0,0.3822000026702881
0.262105093,0,0,1.3479355573654175,0,0,0.8408399820327759
0.262440367,0,0,1.3479355573654175,0,0,0.3822000026702881
0.262755326,0,0,1.3479355573654175,0,0,0.3822000026702881
0.263096489,0,0,1.2689268589019775,0,0,0.8408399820327759
0.263438078,0,0,1.2689268589019775,0,0,1.2994799613952637
0.263755481,0,0,1.2689268589019775,0,0,0.9172800183296204
0.264091699,0,0,1.2689268589019775,0,0,0.305759996175766
0.264430677,0,0,1.2689268589019775,0,0,0.2293200045824051
0.264758118,0,0,1.2689268589019775,0,0,0.5350799560546875
0.265101651,0,0,1.2689268589019775,0,0,0.9937199950218201
0.265449591,0,0,1.3311761617660522,0,0,0.9937199950218201
0.265755569,0,0,1.3311761617660522,0,0,1.070159912109375
0.266090158,0,0,1.3311761617660522,0,0,1.1466000080108643
0.266422061,0,0,1.3311761617660522,0,0,0.9172800183296204
0.266755076,0,0,1.3311761617660522,0,0,0.7644000053405762
0.267092109,0,0,1.3311761617660522,0,0,0.305759996175766
0.267423364,0,0,1.3311761617660522,0,0,1.1466000080108643
0.267759082,0,0,1.501164436340332,0,0,1.5288000106811523
0.268105504,0,0,1.501164436340332,0,0,1.758120059967041
0.268451908,0,0,1.501164436340332,0,0,0.7644000053405762
0.268764497,0,0,1.501164436340332,0,0,1.223039984703064
0.269100789,0,0,1.501164436340332,0,0,2.3696401119232178
0.269448507,0,0,1.501164436340332,0,0,0.9937199950218201
0.269770651,0,0,1.501164436340332,0,0,1.1466000080108643
0.270125258,0,0,1.558625340461731,0,0,0.9172800183296204
0.270460717,0,0,1.558625340461731,0,0,0.6879600286483765
0.270779084,0,0,1.558625340461731,0,0,0.7644000053405762
0.271105395,0,0,1.558625340461731,0,0,0.611519992351532
0.271456502,0,0,1.558625340461731,0,0,0.8408399820327759
0.271764184,0,0,1.558625340461731,0,0,0.9937199950218201
0.272102624,0,0,1.558625340461731,0,0,0.9172800183296204
0.272463564,0,0,1.599326729774475,0,0,0.9172800183296204
0.272767561,0,0,1.599326729774475,0,0,0.5350799560546875
0.273114779,0,0,1.599326729774475,0,0,0.611519992351532
0.273449127,0,0,1.599326729774475,0,0,1.2994799613952637
0.274796148,0,0,1.599326729774475,0,0,1.2994799613952637
0.274827277,0,0,1.599326729774475,0,0,1.2994799613952637
0.274851777,0,0,1.599326729774475,0,0,1.2994799613952637
0.274874536,0,0,1.599326729774475,0,0,0.6879600286483765
0.275105126,0,0,1.5969325304031372,0,0,0.0764399990439415
0.275439437,0,0,1.5969325304031372,0,0,0.8408399820327759
0.275783859,0,0,1.5969325304031372,0,0,0.9172800183296204
0.276096744,0,0,1.5969325304031372,0,0,0.6879600286483765
0.276437573,0,0,1.5969325304031372,0,0,1.1466000080108643
0.276757662,0,0,1.5969325304031372,0,0,0.9172800183296204
0.277107325,0,0,1.5969325304031372,0,0,1.1466000080108643
0.277441024,0,0,1.678335428237915,0,0,0.6879600286483765
0.277774113,0,0,1.678335428237915,0,0,0.6879600286483765
0.278092276,0,0,1.678335428237915,0,0,0.9937199950218201
0.278440105,0,0,1.678335428237915,0,0,0.9172800183296204
0.27911582,0,0,1.678335428237915,0,0,0.9172800183296204
0.279172689,0,0,1.678335428237915,0,0,0
0.279456834,0,0,1.678335428237915,0,0,1.070159912109375
0.27978459,0,0,1.3287819623947144,0,0,0.611519992351532
0.28012053,0,0,1.3287819623947144,0,0,-0.2293200045824051
0.280435915,0,0,1.3287819623947144,0,0,0.7644000053405762
0.280963131,0,0,1.3287819623947144,0,0,0.7644000053405762
0.281088796,0,0,1.3287819623947144,0,0,1.605239987373352
0.281421311,0,0,1.3287819623947144,0,0,1.1466000080108643
0.281759585,0,0,1.3287819623947144,0,0,0.5350799560546875
0.282104525,0,0,1.3287819623947144,0,0,0.8408399820327759
0.28243141,0,0,1.3287819623947144,0,0,0.6879600286483765
0.282764258,0,0,1.3287819623947144,0,0,0.8408399820327759
0.283108365,0,0,1.3287819623947144,0,0,0.8408399820327759
0.28343001,0,0,1.3287819623947144,0,0,0.611519992351532
0.283757821,0,0,1.3287819623947144,0,0,0.7644000053405762
0.284101113,0,0,1.3287819623947144,0,0,0.3822000026702881
0.28442498,0,0,1.3311761617660522,0,0,0.5350799560546875
0.284766457,0,0,1.3311761617660522,0,0,1.1466000080108643
0.285100823,0,0,1.3311761617660522,0,0,1.223039984703064
0.285443671,0,0,1.3311761617660522,0,0,0.5350799560546875
0.285801334,0,0,1.3311761617660522,0,0,0.4586400091648102
0.286096608,0,0,1.3311761617660522,0,0,0.6879600286483765
0.28652451,0,0,1.3311761617660522,0,0,0.8408399820327759
0.286764915,0,0,1.3311761617660522,0,0,0.8408399820327759
0.287092837,0,0,1.213860273361206,0,0,0.9937199950218201
0.287419148,0,0,1.213860273361206,0,0,0.6879600286483765
0.287757366,0,0,1.213860273361206,0,0,1.070159912109375
0.288089159,0,0,1.213860273361206,0,0,0.6879600286483765
0.288419118,0,0,1.213860273361206,0,0,1.1466000080108643
0.288756466,0,0,1.213860273361206,0,0,0.5350799560546875
0.289085369,0,0,1.213860273361206,0,0,1.1466000080108643
0.289424495,0,0,1.357512354850769,0,0,1.2994799613952637
0.289756399,0,0,1.357512354850769,0,0,0.9172800183296204
0.290085172,0,0,1.357512354850769,0,0,0.5350799560546875
0.290418761,0,0,1.357512354850769,0,0,0.4586400091648102
0.290755628,0,0,1.357512354850769,0,0,0.8408399820327759
0.29116716,0,0,1.357512354850769,0,0,0.9172800183296204
0.291485638,0,0,1.357512354850769,0,0,0.9172800183296204
0.291754912,0,0,1.455674648284912,0,0,1.605239987373352
0.292085779,0,0,1.455674648284912,0,0,-0.2293200045824051
0.292423034,0,0,1.455674648284912,0,0,1.6816799640655518
0.292754178,0,0,1.455674648284912,0,0,0.611519992351532
0.293085711,0,0,1.455674648284912,0,0,0.611519992351532
0.293423596,0,0,1.455674648284912,0,0,0.7644000053405762
0.293752722,0,0,1.455674648284912,0,0,0.5350799560546875
0.294085459,0,0,1.558625340461731,0,0,0.9172800183296204
0.294422492,0,0,1.558625340461731,0,0,0.7644000053405762
0.294751951,0,0,1.558625340461731,0,0,0.5350799560546875
0.295085299,0,0,1.558625340461731,0,0,0.6879600286483765
0.295422147,0,0,1.558625340461731,0,0,1.223039984703064
0.295752402,0,0,1.558625340461731,0,0,1.223039984703064
0.296085491,0,0,1.558625340461731,0,0,0.3822000026702881
0.296434542,0,0,1.6400281190872192,0,0,0.305759996175766
0.296752372,0,0,1.6400281190872192,0,0,0.8408399820327759
0.29708922,0,0,1.6400281190872192,0,0,0.9937199950218201
0.297457605,0,0,1.6400281190872192,0,0,0.8408399820327759
0.297764953,0,0,1.6400281190872192,0,0,0.9172800183296204
0.298093486,0,0,1.6400281190872192,0,0,0.7644000053405762
0.298425223,0,0,1.6400281190872192,0,0,0.9172800183296204
0.299110641,0,0,1.6400281190872192,0,0,0.9172800183296204
0.299134844,0,0,1.436521053314209,0,0,0.611519992351532
0.299421433,0,0,1.436521053314209,0,0,1.605239987373352
0.299772614,0,0,1.436521053314209,0,0,1.375920057296753
0.300086,0,0,1.436521053314209,0,0,0.3822000026702881
0.300420477,0,0,1.436521053314209,0,0,0.3822000026702881
0.300752344,0,0,1.436521053314209,0,0,0.0764399990439415
0.301085599,0,0,1.436521053314209,0,0,0.4586400091648102
0.301435669,0,0,1.5825673341751099,0,0,1.605239987373352
0.301752221,0,0,1.5825673341751099,0,0,1.2994799613952637
0.302090921,0,0,1.5825673341751099,0,0,1.375920057296753
0.302418676,0,0,1.5825673341751099,0,0,1.1466000080108643
0.302752154,0,0,1.5825673341751099,0,0,1.1466000080108643
0.303089242,0,0,1.5825673341751099,0,0,-0.3822000026702881
0.303419683,0,0,1.5825673341751099,0,0,1.2994799613952637
0.303752105,0,0,1.5921441316604614,0,0,2.2932000160217285
0.30408923,0,0,1.5921441316604614,0,0,0.8408399820327759
0.304418875,0,0,1.5921441316604614,0,0,0.6879600286483765
0.304752112,0,0,1.5921441316604614,0,0,0.611519992351532
0.305101404,0,0,1.5921441316604614,0,0,0.611519992351532
0.305420696,0,0,1.5921441316604614,0,0,0.611519992351532
0.305757637,0,0,1.5921441316604614,0,0,1.1466000080108643
0.306086226,0,0,1.3215993642807007,0,0,1.223039984703064
0.306418944,0,0,1.3215993642807007,0,0,0.611519992351532
0.30675607,0,0,1.3215993642807007,0,0,0
0.307085232,0,0,1.3215993642807007,0,0,0.305759996175766
0.307418895,0,0,1.3215993642807007,0,0,0.611519992351532
0.30775541,0,0,1.3215993642807007,0,0,0.8408399820327759
0.308099757,0,0,1.3215993642807007,0,0,0.611519992351532
0.308419087,0,0,1.3215993642807007,0,0,0.305759996175766
0.308755731,0,0,1.314416766166687,0,0,0.7644000053405762
0.309085783,0,0,1.314416766166687,0,0,0.611519992351532
0.309422038,0,0,1.314416766166687,0,0,0.4586400091648102
0.309758053,0,0,1.314416766166687,0,0,1.223039984703064
0.310088864,0,0,1.314416766166687,0,0,1.375920057296753
0.31042073,0,0,1.314416766166687,0,0,0.7644000053405762
0.310758726,0,0,1.314416766166687,0,0,0.7644000053405762
0.31108726,0,0,1.37906014919281,0,0,0.9172800183296204
0.311420496,0,0,1.37906014919281,0,0,1.223039984703064
0.311758252,0,0,1.37906014919281,0,0,0.9172800183296204
0.312086637,0,0,1.37906014919281,0,0,0.9937199950218201
0.312420577,0,0,1.37906014919281,0,0,1.5288000106811523
0.312758018,0,0,1.37906014919281,0,0,0.4586400091648102
0.313085662,0,0,1.37906014919281,0,0,0.9937199950218201
0.313419695,0,0,1.3000515699386597,0,0,0.9937199950218201
0.31375671,0,0,1.3000515699386597,0,0,1.2994799613952637
0.314085002,0,0,1.3000515699386597,0,0,0.4586400091648102
0.314418813,0,0,1.3000515699386597,0,0,0.3822000026702881
0.314756013,0,0,1.3000515699386597,0,0,2.446079969406128
0.315085416,0,0,1.3000515699386597,0,0,0.0764399990439415
0.315418542,0,0,1.3000515699386597,0,0,0.5350799560546875
0.315755853,0,0,1.3287819623947144,0,0,0.305759996175766
0.316086627,0,0,1.3287819623947144,0,0,0.2293200045824051
0.316418845,0,0,1.3287819623947144,0,0,1.452359914779663
0.316755582,0,0,1.3287819623947144,0,0,0.9172800183296204
0.317086189,0,0,1.3287819623947144,0,0,0.4586400091648102
0.317421167,0,0,1.3287819623947144,0,0,0
0.317758441,0,0,1.3287819623947144,0,0,0.7644000053405762
0.318086881,0,0,1.4293384552001953,0,0,0.9172800183296204
0.31842034,0,0,1.4293384552001953,0,0,0.611519992351532
0.318758355,0,0,1.4293384552001953,0,0,0.8408399820327759
0.319086555,0,0,1.4293384552001953,0,0,1.070159912109375
0.319420495,0,0,1.4293384552001953,0,0,0.9937199950218201
0.319759732,0,0,1.4293384552001953,0,0,0.8408399820327759
0.32008808,0,0,1.4293384552001953,0,0,0.8408399820327759
0.320422798,0,0,1.6184803247451782,0,0,1.070159912109375
0.320759035,0,0,1.6184803247451782,0,0,0.9172800183296204
0.321087439,0,0,1.6184803247451782,0,0,1.1466000080108643
0.321420583,0,0,1.6184803247451782,0,0,0.9172800183296204
0.32175519,0,0,1.6184803247451782,0,0,1.223039984703064
0.322085519,0,0,1.6184803247451782,0,0,1.2994799613952637
0.322420404,0,0,1.6184803247451782,0,0,0.611519992351532
0.322757771,0,0,1.6184803247451782,0,0,1.5288000106811523
0.323086248,0,0,1.6711528301239014,0,0,0.611519992351532
0.323420652,0,0,1.6711528301239014,0,0,0.7644000053405762
0.323758111,0,0,1.6711528301239014,0,0,1.6816799640655518
0.324088218,0,0,1.6711528301239014,0,0,0.5350799560546875
0.324420566,0,0,1.6711528301239014,0,0,0
0.324758581,0,0,1.6711528301239014,0,0,0.6879600286483765
0.325087077,0,0,1.6711528301239014,0,0,0.0764399990439415
0.325419203,0,0,1.482010841369629,0,0,1.375920057296753
0.325756365,0,0,1.482010841369629,0,0,0.611519992351532
0.326085047,0,0,1.482010841369629,0,0,0.9172800183296204
0.326418728,0,0,1.482010841369629,0,0,0.611519992351532
0.326758076,0,0,1.482010841369629,0,0,0.611519992351532
0.327087368,0,0,1.482010841369629,0,0,1.070159912109375
0.327418846,0,0,1.482010841369629,0,0,1.070159912109375
0.327755786,0,0,1.6687586307525635,0,0,0.305759996175766
0.328085745,0,0,1.6687586307525635,0,0,0.4586400091648102
0.328419019,0,0,1.6687586307525635,0,0,0.9172800183296204
0.328755552,0,0,1.6687586307525635,0,0,0.7644000053405762
0.329086715,0,0,1.6687586307525635,0,0,0.6879600286483765
0.329428489,0,0,1.6687586307525635,0,0,0.9937199950218201
0.329758244,0,0,1.6687586307525635,0,0,1.070159912109375
0.33008624,0,0,1.4652514457702637,0,0,1.070159912109375
0.33042044,0,0,1.4652514457702637,0,0,0.9937199950218201
0.330760714,0,0,1.4652514457702637,0,0,0.8408399820327759
0.331090284,0,0,1.4652514457702637,0,0,0.9172800183296204
0.331420447,0,0,1.4652514457702637,0,0,0.6879600286483765
0.331758499,0,0,1.4652514457702637,0,0,0.611519992351532
0.332086698,0,0,1.4652514457702637,0,0,0.2293200045824051
0.332420361,0,0,1.3646949529647827,0,0,0.4586400091648102
0.332758394,0,0,1.3646949529647827,0,0,1.452359914779663
0.333088279,0,0,1.3646949529647827,0,0,0.305759996175766
0.333420572,0,0,1.3646949529647827,0,0,0.611519992351532
0.333755994,0,0,1.3646949529647827,0,0,0.305759996175766
0.334086731,0,0,1.3646949529647827,0,0,1.070159912109375
0.334420764,0,0,1.3646949529647827,0,0,1.375920057296753
0.334757889,0,0,1.3646949529647827,0,0,0.611519992351532
0.335085941,0,0,1.381454348564148,0,0,1.223039984703064
0.33542053,0,0,1.381454348564148,0,0,21.326759338378906
0.335758229,0,0,1.381454348564148,0,0,0
0.336086263,0,0,1.381454348564148,0,0,1.452359914779663
0.336420388,0,0,1.381454348564148,0,0,1.758120059967041
0.336758273,0,0,1.381454348564148,0,0,0
0.337090566,0,0,1.381454348564148,0,0,0.6879600286483765
0.33741958,0,0,1.3431471586227417,0,0,0.305759996175766
0.337758465,0,0,1.3431471586227417,0,0,1.452359914779663
0.338086332,0,0,1.3431471586227417,0,0,0.9172800183296204
0.338418698,0,0,1.3431471586227417,0,0,0.152879998087883
0.338755898,0,0,1.3431471586227417,0,0,0.5350799560546875
0.339085709,0,0,1.3431471586227417,0,0,1.1466000080108643
0.339418668,0,0,1.3431471586227417,0,0,1.1466000080108643
0.339755627,0,0,1.316810965538025,0,0,0.6879600286483765
0.34008579,0,0,1.316810965538025,0,0,0.9937199950218201
0.340418841,0,0,1.316810965538025,0,0,0.8408399820327759
0.340768708,0,0,1.316810965538025,0,0,0.9937199950218201
0.3410895,0,0,1.316810965538025,0,0,0.8408399820327759
0.341431774,0,0,1.316810965538025,0,0,0.8408399820327759
0.341848602,0,0,1.316810965538025,0,0,0.9172800183296204
0.342088914,0,0,1.4772224426269531,0,0,0.9937199950218201
0.342466669,0,0,1.4772224426269531,0,0,0.6879600286483765
0.342758981,0,0,1.4772224426269531,0,0,0.7644000053405762
0.343087792,0,0,1.4772224426269531,0,0,0.9937199950218201
0.343420121,0,0,1.4772224426269531,0,0,1.5288000106811523
0.343758025,0,0,1.4772224426269531,0,0,0.7644000053405762
0.344086724,0,0,1.4772224426269531,0,0,1.223039984703064
0.344420332,0,0,1.556231141090393,0,0,1.070159912109375
0.344757865,0,0,1.556231141090393,0,0,0.9172800183296204
0.345086583,0,0,1.556231141090393,0,0,0.611519992351532
0.345420172,0,0,1.556231141090393,0,0,0.2293200045824051
0.34575502,0,0,1.556231141090393,0,0,0.611519992351532
0.346086108,0,0,1.556231141090393,0,0,0.8408399820327759
0.346420216,0,0,1.556231141090393,0,0,0.5350799560546875
0.3467576,0,0,1.625662922859192,0,0,1.8345600366592407
0.347086374,0,0,1.625662922859192,0,0,0
0.347420259,0,0,1.625662922859192,0,0,-0.5350799560546875
0.347757681,0,0,1.625662922859192,0,0,-0.2293200045824051
0.348085733,0,0,1.625662922859192,0,0,1.070159912109375
0.348420137,0,0,1.625662922859192,0,0,0.7644000053405762
0.348757651,0,0,1.625662922859192,0,0,1.2994799613952637
0.349085869,0,0,1.5203180313110352,0,0,0.5350799560546875
0.349420403,0,0,1.5203180313110352,0,0,0.4586400091648102
0.349757954,0,0,1.5203180313110352,0,0,0.7644000053405762
0.350086117,0,0,1.5203180313110352,0,0,1.1466000080108643
0.35042015,0,0,1.5203180313110352,0,0,0.7644000053405762
0.35075822,0,0,1.5203180313110352,0,0,0.9937199950218201
0.351086327,0,0,1.5203180313110352,0,0,1.223039984703064
0.351422787,0,0,1.5466543436050415,0,0,0.9172800183296204
0.351757949,0,0,1.5466543436050415,0,0,0.8408399820327759
0.352086612,0,0,1.5466543436050415,0,0,0.9172800183296204
0.35242009,0,0,1.5466543436050415,0,0,1.070159912109375
0.352757919,0,0,1.5466543436050415,0,0,0.9937199950218201
0.353086156,0,0,1.5466543436050415,0,0,0.8408399820327759
0.353420171,0,0,1.5466543436050415,0,0,0.6879600286483765
0.353757944,0,0,1.5753847360610962,0,0,0.9937199950218201
0.354086403,0,0,1.5753847360610962,0,0,0.8408399820327759
0.35442014,0,0,1.5753847360610962,0,0,0.7644000053405762
0.354757896,0,0,1.5753847360610962,0,0,0.9937199950218201
0.355088114,0,0,1.5753847360610962,0,0,0.9172800183296204
0.355420129,0,0,1.5753847360610962,0,0,0.4586400091648102
0.355754495,0,0,1.5753847360610962,0,0,0.3822000026702881
0.356085213,0,0,1.3000515699386597,0,0,0.8408399820327759
0.356420395,0,0,1.3000515699386597,0,0,0.8408399820327759
0.356757409,0,0,1.3000515699386597,0,0,0.5350799560546875
0.357085276,0,0,1.3000515699386597,0,0,1.2994799613952637
0.357420327,0,0,1.3000515699386597,0,0,0.6879600286483765
0.357757934,0,0,1.3000515699386597,0,0,-0.3822000026702881
0.358086134,0,0,1.3000515699386597,0,0,1.2994799613952637
0.35842026,0,0,1.3096283674240112,0,0,1.5288000106811523
0.358758052,0,0,1.3096283674240112,0,0,0.2293200045824051
0.359086345,0,0,1.3096283674240112,0,0,0.2293200045824051
0.359420119,0,0,1.3096283674240112,0,0,2.446079969406128
0.359754337,0,0,1.3096283674240112,0,0,0.2293200045824051
0.360085055,0,0,1.3096283674240112,0,0,0.2293200045824051
0.360419959,0,0,1.3096283674240112,0,0,0.7644000053405762
0.360757455,0,0,1.235408067703247,0,0,0.7644000053405762
0.361085914,0,0,1.235408067703247,0,0,0.8408399820327759
0.361420354,0,0,1.235408067703247,0,0,0.611519992351532
0.361760276,0,0,1.235408067703247,0,0,0.9172800183296204
0.362090013,0,0,1.235408067703247,0,0,0.9937199950218201
0.362420028,0,0,1.316810965538025,0,0,0.7644000053405762
0.362758709,0,0,1.316810965538025,0,0,1.1466000080108643
0.363086946,0,0,1.316810965538025,0,0,0.9172800183296204
0.363419924,0,0,1.316810965538025,0,0,0.6879600286483765
0.363758327,0,0,1.316810965538025,0,0,0.6879600286483765
0.364088194,0,0,1.316810965538025,0,0,0.6879600286483765
0.364419986,0,0,1.316810965538025,0,0,0.9937199950218201
0.364757945,0,0,1.4652514457702637,0,0,0.9937199950218201
0.365086682,0,0,1.4652514457702637,0,0,0.9937199950218201
0.365426882,0,0,1.4652514457702637,0,0,1.070159912109375
0.36575847,0,0,1.4652514457702637,0,0,0.8408399820327759
0.366087226,0,0,1.4652514457702637,0,0,1.1466000080108643
0.366420074,0,0,1.4652514457702637,0,0,0.9172800183296204
0.366757884,0,0,1.4652514457702637,0,0,0.4586400091648102
0.367086566,0,0,1.5155296325683594,0,0,0.305759996175766
0.367420284,0,0,1.5155296325683594,0,0,0.5350799560546875
0.367758095,0,0,1.5155296325683594,0,0,0.8408399820327759
0.368086684,0,0,1.5155296325683594,0,0,0.4586400091648102
0.368420161,0,0,1.5155296325683594,0,0,0.305759996175766
0.368754009,0,0,1.5155296325683594,0,0,0.305759996175766
0.369085209,0,0,1.5155296325683594,0,0,-0.305759996175766
0.369419909,0,0,1.4676456451416016,0,0,-0.2293200045824051
0.369757109,0,0,1.4676456451416016,0,0,1.605239987373352
0.370086271,0,0,1.4676456451416016,0,0,0.4586400091648102
0.370418971,0,0,1.4676456451416016,0,0,1.223039984703064
0.370756282,0,0,1.4676456451416016,0,0,0.7644000053405762
0.37111513,0,0,1.4676456451416016,0,0,0.9172800183296204
0.3714327,0,0,1.4676456451416016,0,0,0.6879600286483765
0.371771103,0,0,1.558625340461731,0,0,0.8408399820327759
0.372092748,0,0,1.558625340461731,0,0,0.9937199950218201
0.372420022,0,0,1.558625340461731,0,0,0.9937199950218201
0.372752592,0,0,1.558625340461731,0,0,0.7644000053405762
0.373089625,0,0,1.558625340461731,0,0,0.6879600286483765
0.373421103,0,0,1.558625340461731,0,0,1.223039984703064
0.373753839,0,0,1.558625340461731,0,0,1.070159912109375
0.374091298,0,0,1.5107412338256836,0,0,0.7644000053405762
0.374420035,0,0,1.5107412338256836,0,0,0.6879600286483765
0.374753587,0,0,1.5107412338256836,0,0,0.611519992351532
0.37509149,0,0,1.5107412338256836,0,0,1.223039984703064
0.375419357,0,0,1.5107412338256836,0,0,0.8408399820327759
0.375753723,0,0,1.5107412338256836,0,0,0.9172800183296204
0.376091442,0,0,1.5107412338256836,0,0,0.8408399820327759
0.376419938,0,0,1.6543933153152466,0,0,0.6879600286483765
0.376753619,0,0,1.6543933153152466,0,0,0.4586400091648102
0.377091189,0,0,1.6543933153152466,0,0,0.4586400091648102
0.377423722,0,0,1.6543933153152466,0,0,0.4586400091648102
0.377753904,0,0,1.6543933153152466,0,0,0.611519992351532
0.37809177,0,0,1.6543933153152466,0,0,1.070159912109375
0.378420377,0,0,1.6543933153152466,0,0,1.070159912109375
0.378753762,0,0,1.434126853942871,0,0,1.070159912109375
0.379091351,0,0,1.434126853942871,0,0,0.8408399820327759
0.379418995,0,0,1.434126853942871,0,0,1.223039984703064
0.379753695,0,0,1.434126853942871,0,0,0.7644000053405762
0.380091469,0,0,1.434126853942871,0,0,-0.305759996175766
0.380419724,0,0,1.434126853942871,0,0,1.9874399900436401
0.380753776,0,0,1.434126853942871,0,0,2.3696401119232178
0.381091457,0,0,1.434126853942871,0,0,0.305759996175766
0.381421342,0,0,1.3239935636520386,0,0,1.070159912109375
0.381753986,0,0,1.3239935636520386,0,0,1.5288000106811523
0.382091742,0,0,1.3239935636520386,0,0,0
0.382422071,0,0,1.3239935636520386,0,0,0.611519992351532
0.382753882,0,0,1.3239935636520386,0,0,0.9937199950218201
0.38309136,0,0,1.3239935636520386,0,0,0.8408399820327759
0.383419559,0,0,1.3239935636520386,0,0,0.8408399820327759
0.38375363,0,0,1.2880805730819702,0,0,0.7644000053405762
0.384092348,0,0,1.2880805730819702,0,0,0.9172800183296204
0.384421918,0,0,1.2880805730819702,0,0,0.6879600286483765
0.384757322,0,0,1.2880805730819702,0,0,0.6879600286483765
0.385097558,0,0,1.2880805730819702,0,0,0.5350799560546875
0.385434277,0,0,1.2880805730819702,0,0,0.9937199950218201
0.385757551,0,0,1.2880805730819702,0,0,0.9937199950218201
0.386097565,0,0,1.3000515699386597,0,0,0.7644000053405762
0.386434469,0,0,1.3000515699386597,0,0,0.6879600286483765
0.386758113,0,0,1.3000515699386597,0,0,0.5350799560546875
0.38709609,0,0,1.3000515699386597,0,0,0.6879600286483765
0.387432401,0,0,1.3000515699386597,0,0,1.070159912109375
0.38775936,0,0,1.3000515699386597,0,0,0.7644000053405762
0.388095171,0,0,1.3000515699386597,0,0,0.3822000026702881
0.388433741,0,0,1.1492167711257935,0,0,0.9172800183296204
0.388756793,0,0,1.1492167711257935,0,0,1.070159912109375
0.389092845,0,0,1.1492167711257935,0,0,0.5350799560546875
0.389431693,0,0,1.1492167711257935,0,0,0.4586400091648102
0.389757411,0,0,1.1492167711257935,0,0,1.375920057296753
0.390098129,0,0,1.1492167711257935,0,0,0.5350799560546875
0.390439014,0,0,1.1492167711257935,0,0,0
0.390756918,0,0,1.3024457693099976,0,0,1.1466000080108643
0.391098321,0,0,1.3024457693099976,0,0,1.8345600366592407
0.391428021,0,0,1.3024457693099976,0,0,1.375920057296753
0.391753795,0,0,1.3024457693099976,0,0,-0.4586400091648102
0.392091995,0,0,1.3024457693099976,0,0,1.223039984703064
0.392419917,0,0,1.3024457693099976,0,0,0
0.392758968,0,0,1.3024457693099976,0,0,-0.4586400091648102
0.393092094,0,0,1.5466543436050415,0,0,0.5350799560546875
0.393427405,0,0,1.5466543436050415,0,0,0.9937199950218201
0.393753994,0,0,1.5466543436050415,0,0,0.9172800183296204
0.394092008,0,0,1.5466543436050415,0,0,0.5350799560546875
0.394420486,0,0,1.5466543436050415,0,0,0.6879600286483765
0.39475363,0,0,1.5466543436050415,0,0,0.9937199950218201
0.3950892,0,0,1.5466543436050415,0,0,0.8408399820327759
0.395420122,0,0,1.623268723487854,0,0,0.7644000053405762
0.39575373,0,0,1.623268723487854,0,0,0.6879600286483765
0.396091003,0,0,1.623268723487854,0,0,0.9937199950218201
0.396419333,0,0,1.623268723487854,0,0,0.9937199950218201
0.396753811,0,0,1.623268723487854,0,0,0.9172800183296204
0.397091473,0,0,1.623268723487854,0,0,0.9937199950218201
0.397421192,0,0,1.623268723487854,0,0,0.9172800183296204
0.397753688,0,0,1.6089035272598267,0,0,0.8408399820327759
0.398091499,0,0,1.6089035272598267,0,0,0.9172800183296204
0.398420032,0,0,1.6089035272598267,0,0,0.4586400091648102
0.398753806,0,0,1.6089035272598267,0,0,0.611519992351532
0.399091228,0,0,1.6089035272598267,0,0,1.070159912109375
0.399421613,0,0,1.6089035272598267,0,0,0.611519992351532
0.399753701,0,0,1.6089035272598267,0,0,0.611519992351532
0.400091771,0,0,1.4460978507995605,0,0,1.070159912109375
0.400419675,0,0,1.4460978507995605,0,0,0.9172800183296204
0.400753745,0,0,1.4460978507995605,0,0,0.611519992351532
0.401091297,0,0,1.4460978507995605,0,0,0.2293200045824051
0.401420867,0,0,1.4460978507995605,0,0,1.1466000080108643
0.401753826,0,0,1.4460978507995605,0,0,1.605239987373352
0.402091248,0,0,1.4460978507995605,0,0,0.305759996175766
0.402419559,0,0,1.4460978507995605,0,0,0.7644000053405762
0.402753666,0,0,1.680729627609253,0,0,1.452359914779663
0.403093773,0,0,1.680729627609253,0,0,0
0.403421621,0,0,1.680729627609253,0,0,1.2994799613952637
0.403753895,0,0,1.680729627609253,0,0,1.452359914779663
0.404089299,0,0,1.680729627609253,0,0,1.5288000106811523
0.40441948,0,0,1.680729627609253,0,0,0.4586400091648102
0.404753791,0,0,1.680729627609253,0,0,0.9937199950218201
0.405091009,0,0,1.359906554222107,0,0,1.1466000080108643
0.405420172,0,0,1.359906554222107,0,0,0.9172800183296204
0.405753705,0,0,1.359906554222107,0,0,0.6879600286483765
0.406091257,0,0,1.359906554222107,0,0,0.7644000053405762
0.406419493,0,0,1.359906554222107,0,0,0.7644000053405762
0.406754027,0,0,1.359906554222107,0,0,0.6879600286483765
0.407091189,0,0,1.359906554222107,0,0,1.070159912109375
0.40741913,0,0,1.3000515699386597,0,0,0.6879600286483765
0.407753737,0,0,1.3000515699386597,0,0,0.9172800183296204
0.408091492,0,0,1.3000515699386597,0,0,1.2994799613952637
0.408421451,0,0,1.3000515699386597,0,0,0.8408399820327759
0.408755022,0,0,1.3000515699386597,0,0,0.611519992351532
0.409100203,0,0,1.3000515699386597,0,0,0.6879600286483765
0.409771621,0,0,1.3000515699386597,0,0,0.6879600286483765
0.409794769,0,0,1.2832920551300049,0,0,0.8408399820327759
0.410091339,0,0,1.2832920551300049,0,0,0.5350799560546875
0.410424428,0,0,1.2832920551300049,0,0,1.223039984703064
0.410753369,0,0,1.2832920551300049,0,0,0.6879600286483765
0.411086939,0,0,1.2832920551300049,0,0,0.8408399820327759
0.411424676,0,0,1.2832920551300049,0,0,0.6879600286483765
0.411752986,0,0,1.2832920551300049,0,0,0.2293200045824051
0.412086908,0,0,1.2665326595306396,0,0,0.611519992351532
0.412424775,0,0,1.2665326595306396,0,0,1.070159912109375
0.412753327,0,0,1.2665326595306396,0,0,0.611519992351532
0.413087212,0,0,1.2665326595306396,0,0,0.305759996175766
0.413430745,0,0,1.2665326595306396,0,0,1.1466000080108643
0.413760222,0,0,1.2665326595306396,0,0,1.223039984703064
0.414087311,0,0,1.2665326595306396,0,0,0
0.414424992,0,0,1.3096283674240112,0,0,1.452359914779663
0.414752544,0,0,1.3096283674240112,0,0,0.9172800183296204
0.415089207,0,0,1.3096283674240112,0,0,0.9172800183296204
0.415452962,0,0,1.3096283674240112,0,0,0.9172800183296204
0.415759625,0,0,1.3096283674240112,0,0,0.9172800183296204
0.41608825,0,0,1.3096283674240112,0,0,1.1466000080108643
0.416423672,0,0,1.3096283674240112,0,0,0.611519992351532
0.41675415,0,0,1.50355863571167,0,0,0.7644000053405762
0.417346088,0,0,1.50355863571167,0,0,0.7644000053405762
0.417382809,0,0,1.50355863571167,0,0,1.070159912109375
0.417755064,0,0,1.50355863571167,0,0,1.223039984703064
0.41808732,0,0,1.50355863571167,0,0,0.7644000053405762
0.418435353,0,0,1.50355863571167,0,0,0.611519992351532
0.418753682,0,0,1.525106430053711,0,0,0.8408399820327759
0.419091474,0,0,1.525106430053711,0,0,0.6879600286483765
0.419420304,0,0,1.525106430053711,0,0,0.8408399820327759
0.419753615,0,0,1.525106430053711,0,0,0.5350799560546875
0.420091148,0,0,1.525106430053711,0,0,0.7644000053405762
0.420419663,0,0,1.525106430053711,0,0,0.611519992351532
0.420753677,0,0,1.525106430053711,0,0,0.9172800183296204
0.42109121,0,0,1.5275006294250488,0,0,0.9172800183296204
0.421422058,0,0,1.5275006294250488,0,0,0.6879600286483765
0.421753869,0,0,1.5275006294250488,0,0,0.305759996175766
0.422088458,0,0,1.5275006294250488,0,0,0.611519992351532
0.422448398,0,0,1.5275006294250488,0,0,0.611519992351532
0.422753783,0,0,1.5275006294250488,0,0,0.4586400091648102
0.423091039,0,0,1.5275006294250488,0,0,1.452359914779663
0.423419146,0,0,1.4844050407409668,0,0,1.223039984703064
0.423758772,0,0,1.4844050407409668,0,0,0.152879998087883
0.424091379,0,0,1.4844050407409668,0,0,0.305759996175766
0.424419264,0,0,1.4844050407409668,0,0,1.1466000080108643
0.424753649,0,0,1.4844050407409668,0,0,1.1466000080108643
0.425091275,0,0,1.4844050407409668,0,0,0.0764399990439415
0.425420771,0,0,1.4844050407409668,0,0,1.9874399900436401
0.425754026,0,0,1.6089035272598267,0,0,1.9874399900436401
0.426091263,0,0,1.6089035272598267,0,0,-0.2293200045824051
0.426421296,0,0,1.6089035272598267,0,0,2.3696401119232178
0.426753681,0,0,1.6089035272598267,0,0,0.9172800183296204
0.427091621,0,0,1.6089035272598267,0,0,0.6879600286483765
0.427419729,0,0,1.6089035272598267,0,0,0.611519992351532
0.42775391,0,0,1.6089035272598267,0,0,0.8408399820327759
0.428091184,0,0,1.6089035272598267,0,0,1.1466000080108643
0.428419235,0,0,1.5514427423477173,0,0,0.9172800183296204
0.428753898,0,0,1.5514427423477173,0,0,0.8408399820327759
0.429091283,0,0,1.5514427423477173,0,0,1.070159912109375
0.429420613,0,0,1.5514427423477173,0,0,0.9937199950218201
0.429753683,0,0,1.5514427423477173,0,0,0.6879600286483765
0.43009129,0,0,1.5514427423477173,0,0,0.6879600286483765
0.43041936,0,0,1.5514427423477173,0,0,0.611519992351532
0.430753616,0,0,1.3192051649093628,0,0,0.611519992351532
0.431091908,0,0,1.3192051649093628,0,0,1.070159912109375
0.431419997,0,0,1.3192051649093628,0,0,0.8408399820327759
0.43175377,0,0,1.3192051649093628,0,0,0.9172800183296204
0.43209147,0,0,1.3192051649093628,0,0,0.611519992351532
0.432419744,0,0,1.3192051649093628,0,0,1.070159912109375
0.432753796,0,0,1.3192051649093628,0,0,0.611519992351532
0.433091292,0,0,1.4077905416488647,0,0,0.0764399990439415
0.433420844,0,0,1.4077905416488647,0,0,0.8408399820327759
0.433753599,0,0,1.4077905416488647,0,0,1.452359914779663
0.434094039,0,0,1.4077905416488647,0,0,0.5350799560546875
0.434423369,0,0,1.4077905416488647,0,0,0.2293200045824051
0.43475368,0,0,1.4077905416488647,0,0,0.611519992351532
0.435091954,0,0,1.4077905416488647,0,0,0.8408399820327759
0.435421542,0,0,1.3623007535934448,0,0,1.375920057296753
0.435753612,0,0,1.3623007535934448,0,0,0.611519992351532
0.436092331,0,0,1.3623007535934448,0,0,0.9937199950218201
0.436420549,0,0,1.3623007535934448,0,0,0.5350799560546875
0.436753638,0,0,1.3623007535934448,0,0,0.6879600286483765
0.437091615,0,0,1.3623007535934448,0,0,1.605239987373352
0.437421185,0,0,1.3623007535934448,0,0,0.611519992351532
0.437753682,0,0,1.2449848651885986,0,0,9.478560447692871
0.438091122,0,0,1.2449848651885986,0,0,0.6879600286483765
0.43841997,0,0,1.2449848651885986,0,0,0.9937199950218201
0.438753781,0,0,1.2449848651885986,0,0,1.1466000080108643
0.439091092,0,0,1.2449848651885986,0,0,0.7644000053405762
0.439419551,0,0,1.2449848651885986,0,0,0.9937199950218201
0.43975388,0,0,1.2449848651885986,0,0,1.1466000080108643
0.440091525,0,0,1.2066776752471924,0,0,0.9172800183296204
0.440420076,0,0,1.2066776752471924,0,0,0.9937199950218201
0.440753683,0,0,1.2066776752471924,0,0,0.7644000053405762
0.441091142,0,0,1.2066776752471924,0,0,0.6879600286483765
0.441937447,0,0,1.2066776752471924,0,0,0.6879600286483765
0.441960929,0,0,1.2066776752471924,0,0,-1.375920057296753
0.442090427,0,0,1.2066776752471924,0,0,0.8408399820327759
0.442426497,0,0,1.3646949529647827,0,0,1.070159912109375
0.442754604,0,0,1.3646949529647827,0,0,0.8408399820327759
0.443086823,0,0,1.3646949529647827,0,0,0.5350799560546875
0.443425282,0,0,1.3646949529647827,0,0,0.7644000053405762
0.443753759,0,0,1.3646949529647827,0,0,0.611519992351532
0.444087404,0,0,1.3646949529647827,0,0,1.2994799613952637
0.444429733,0,0,1.3646949529647827,0,0,1.758120059967041
0.444762636,0,0,1.5729905366897583,0,0,-0.0764399990439415
0.445087151,0,0,1.5729905366897583,0,0,0
0.445425536,0,0,1.5729905366897583,0,0,0.305759996175766
0.445754162,0,0,1.5729905366897583,0,0,0.305759996175766
0.44608701,0,0,1.5729905366897583,0,0,0.4586400091648102
0.446425024,0,0,1.5729905366897583,0,0,0.3822000026702881
0.446753335,0,0,1.5729905366897583,0,0,1.2994799613952637
0.447087072,0,0,1.5729905366897583,0,0,1.452359914779663
0.447419772,0,0,1.5921441316604614,0,0,0.9172800183296204
0.447752324,0,0,1.5921441316604614,0,0,1.758120059967041
0.448085394,0,0,1.5921441316604614,0,0,1.9109998941421509
0.448433575,0,0,1.5921441316604614,0,0,0
0.448752219,0,0,1.5921441316604614,0,0,1.8345600366592407
0.449085789,0,0,1.5921441316604614,0,0,0.5350799560546875
0.44942023,0,0,1.5921441316604614,0,0,1.1466000080108643
0.449753819,0,0,1.4389152526855469,0,0,1.1466000080108643
0.450091018,0,0,1.4389152526855469,0,0,0.9172800183296204
0.450423459,0,0,1.4389152526855469,0,0,0.9172800183296204
0.450753825,0,0,1.4389152526855469,0,0,1.070159912109375
0.451091136,0,0,1.4389152526855469,0,0,0.9937199950218201
0.451419132,0,0,1.4389152526855469,0,0,0.4586400091648102
0.451753666,0,0,1.4389152526855469,0,0,0.6879600286483765
0.452091217,0,0,1.6974890232086182,0,0,0.9172800183296204
0.45241901,0,0,1.6974890232086182,0,0,0.9172800183296204
0.452753691,0,0,1.6974890232086182,0,0,0.6879600286483765
0.453091335,0,0,1.6974890232086182,0,0,0.6879600286483765
0.453422442,0,0,1.6974890232086182,0,0,0.6879600286483765
0.453752142,0,0,1.6974890232086182,0,0,0.6879600286483765
0.454089842,0,0,1.6974890232086182,0,0,0.4586400091648102
0.454419005,0,0,1.4437036514282227,0,0,1.070159912109375
0.454754593,0,0,1.4437036514282227,0,0,1.6816799640655518
0.455089312,0,0,1.4437036514282227,0,0,0.5350799560546875
0.455418511,0,0,1.4437036514282227,0,0,0.305759996175766
0.455752008,0,0,1.4437036514282227,0,0,0.6879600286483765
0.456089318,0,0,1.4437036514282227,0,0,1.2994799613952637
0.456419685,0,0,1.4437036514282227,0,0,0.9172800183296204
0.456752107,0,0,1.3455413579940796,0,0,0.6879600286483765
0.45710164,0,0,1.3455413579940796,0,0,0.4586400091648102
0.457452339,0,0,1.3455413579940796,0,0,1.5288000106811523
0.457752817,0,0,1.3455413579940796,0,0,0.611519992351532
0.458085665,0,0,1.3455413579940796,0,0,0.4586400091648102
0.458423773,0,0,1.3455413579940796,0,0,1.758120059967041
0.458752121,0,0,1.3455413579940796,0,0,0.0764399990439415
0.45908858,0,0,1.3646949529647827,0,0,0.0764399990439415
0.459419983,0,0,1.3646949529647827,0,0,0
0.459751998,0,0,1.3646949529647827,0,0,0
0.460088734,0,0,1.3646949529647827,0,0,0.3822000026702881
0.460419212,0,0,1.3646949529647827,0,0,0.9937199950218201
0.460752153,0,0,1.3646949529647827,0,0,0.9937199950218201
0.461101056,0,0,1.3646949529647827,0,0,1.070159912109375
0.461422793,0,0,1.173158884048462,0,0,0.9172800183296204
0.461753919,0,0,1.173158884048462,0,0,0.7644000053405762
0.462091081,0,0,1.173158884048462,0,0,0.7644000053405762
0.462420689,0,0,1.173158884048462,0,0,0.9172800183296204
0.462753759,0,0,1.173158884048462,0,0,0.7644000053405762
0.463091329,0,0,1.173158884048462,0,0,0.8408399820327759
0.463420084,0,0,1.173158884048462,0,0,0.7644000053405762
0.463753488,0,0,1.1851298809051514,0,0,1.070159912109375
0.464091113,0,0,1.1851298809051514,0,0,0.8408399820327759
0.464419573,0,0,1.1851298809051514,0,0,0.5350799560546875
0.464753476,0,0,1.1851298809051514,0,0,0.4586400091648102
0.465094583,0,0,1.1851298809051514,0,0,1.2994799613952637
0.465424172,0,0,1.1851298809051514,0,0,1.5288000106811523
0.465753483,0,0,1.1851298809051514,0,0,0.305759996175766
0.466092238,0,0,1.3910311460494995,0,0,0.305759996175766
0.466420179,0,0,1.3910311460494995,0,0,0.152879998087883
0.466753601,0,0,1.3910311460494995,0,0,0.305759996175766
0.467091467,0,0,1.3910311460494995,0,0,0.611519992351532
0.467419556,0,0,1.3910311460494995,0,0,0.6879600286483765
0.467753348,0,0,1.3910311460494995,0,0,0.9937199950218201
0.468090955,0,0,1.3910311460494995,0,0,0.5350799560546875
0.468418859,0,0,1.3910311460494995,0,0,0.6879600286483765
0.468754244,0,0,1.434126853942871,0,0,0.9937199950218201
0.469086925,0,0,1.434126853942871,0,0,1.1466000080108643
0.469428884,0,0,1.434126853942871,0,0,1.9874399900436401
0.469753954,0,0,1.434126853942871,0,0,1.605239987373352
0.470087543,0,0,1.434126853942871,0,0,1.6816799640655518
0.470419095,0,0,1.434126853942871,0,0,1.8345600366592407
0.470753258,0,0,1.434126853942871,0,0,1.8345600366592407
0.471090735,0,0,1.5634137392044067,0,0,1.6816799640655518
0.471420213,0,0,1.5634137392044067,0,0,0.305759996175766
0.471754005,0,0,1.5634137392044067,0,0,0.9172800183296204
0.472091094,0,0,1.5634137392044067,0,0,1.070159912109375
0.472419145,0,0,1.5634137392044067,0,0,0.9172800183296204
0.472753234,0,0,1.5634137392044067,0,0,0.7644000053405762
0.473090971,0,0,1.5634137392044067,0,0,0.9937199950218201
0.473419986,0,0,1.5634137392044067,0,0,0.7644000053405762
0.473753352,0,0,1.5634137392044067,0,0,0.611519992351532
0.474090867,0,0,1.5634137392044067,0,0,0.5350799560546875
0.474461899,0,0,1.5634137392044067,0,0,0.4586400091648102
0.474796655,0,0,1.5634137392044067,0,0,0.6879600286483765
0.475088262,0,0,1.5634137392044067,0,0,0.7644000053405762
0.47542374,0,0,1.5634137392044067,0,0,0.7644000053405762
0.475771754,0,0,1.5634137392044067,0,0,1.1466000080108643
0.476086658,0,0,1.5634137392044067,0,0,1.1466000080108643
0.476419858,0,0,1.5634137392044067,0,0,1.070159912109375
0.476758891,0,0,1.5634137392044067,0,0,0.152879998087883
0.477086535,0,0,1.5634137392044067,0,0,0.5350799560546875
0.477424679,0,0,1.5634137392044067,0,0,0.4586400091648102
0.477752953,0,0,1.5634137392044067,0,0,0.9172800183296204
0.478086579,0,0,1.6280571222305298,0,0,0.8408399820327759
0.478424186,0,0,1.6280571222305298,0,0,1.223039984703064
0.47876696,0,0,1.6280571222305298,0,0,0.5350799560546875
0.479093178,0,0,1.6280571222305298,0,0,0.6879600286483765
0.4794246,0,0,1.6280571222305298,0,0,0.7644000053405762
0.479752782,0,0,1.6280571222305298,0,0,0.611519992351532
0.480086685,0,0,1.6280571222305298,0,0,0.7644000053405762
0.480422811,0,0,1.2952631711959839,0,0,0.5350799560546875
0.480753066,0,0,1.2952631711959839,0,0,0.0764399990439415
0.48108634,0,0,1.2952631711959839,0,0,0.0764399990439415
0.481425855,0,0,1.2952631711959839,0,0,1.9874399900436401
0.481754036,0,0,1.2952631711959839,0,0,0.0764399990439415
0.482086551,0,0,1.2952631711959839,0,0,-0.305759996175766
0.482424713,0,0,1.2952631711959839,0,0,1.2994799613952637
0.482753043,0,0,1.3024457693099976,0,0,0.8408399820327759
0.48308652,0,0,1.3024457693099976,0,0,0.6879600286483765
0.483424368,0,0,1.3024457693099976,0,0,0.8408399820327759
0.483752142,0,0,1.3024457693099976,0,0,1.1466000080108643
0.484086564,0,0,1.3024457693099976,0,0,0.9172800183296204
0.484424171,0,0,1.3024457693099976,0,0,0.5350799560546875
0.484753797,0,0,1.3024457693099976,0,0,0.7644000053405762
0.485086515,0,0,1.3024457693099976,0,0,0.7644000053405762
0.485425271,0,0,1.3311761617660522,0,0,0.3822000026702881
0.485755785,0,0,1.3311761617660522,0,0,0.7644000053405762
0.486086781,0,0,1.3311761617660522,0,0,0.8408399820327759
0.486424815,0,0,1.3311761617660522,0,0,1.375920057296753
0.486753181,0,0,1.3311761617660522,0,0,0.9937199950218201
0.487086807,0,0,1.3311761617660522,0,0,0.305759996175766
0.487424395,0,0,1.3311761617660522,0,0,0.3822000026702881
0.487752743,0,0,1.2737152576446533,0,0,0.6879600286483765
0.488086795,0,0,1.2737152576446533,0,0,0.8408399820327759
0.488424013,0,0,1.2737152576446533,0,0,0.9937199950218201
0.488901471,0,0,1.2737152576446533,0,0,0.611519992351532
0.489102172,0,0,1.2737152576446533,0,0,1.1466000080108643
0.489419465,0,0,1.2737152576446533,0,0,0.5350799560546875
0.48975509,0,0,1.2737152576446533,0,0,0.7644000053405762
0.490085716,0,0,1.290474772453308,0,0,1.1466000080108643
0.490418416,0,0,1.290474772453308,0,0,1.375920057296753
0.490755449,0,0,1.290474772453308,0,0,0.611519992351532
0.491085501,0,0,1.290474772453308,0,0,1.375920057296753
0.491418571,0,0,1.290474772453308,0,0,1.5288000106811523
0.49176803,0,0,1.290474772453308,0,0,0.3822000026702881
0.492085211,0,0,1.290474772453308,0,0,1.758120059967041
0.492421781,0,0,1.403002142906189,0,0,2.06387996673584
0.492752814,0,0,1.403002142906189,0,0,1.8345600366592407
0.493085107,0,0,1.403002142906189,0,0,0
0.493422788,0,0,1.403002142906189,0,0,1.375920057296753
0.493751599,0,0,1.403002142906189,0,0,0.4586400091648102
0.494085169,0,0,1.403002142906189,0,0,0.611519992351532
0.494422091,0,0,1.403002142906189,0,0,0.9172800183296204
0.494751995,0,0,1.4844050407409668,0,0,0.9172800183296204
0.495085306,0,0,1.4844050407409668,0,0,0.611519992351532
0.495434079,0,0,1.4844050407409668,0,0,0.9937199950218201
0.495751983,0,0,1.4844050407409668,0,0,0.9172800183296204
0.49609259,0,0,1.4844050407409668,0,0,0.8408399820327759
0.496419068,0,0,1.4844050407409668,0,0,0.5350799560546875
0.496752138,0,0,1.4844050407409668,0,0,0.611519992351532
0.49708956,0,0,1.5538369417190552,0,0,1.1466000080108643
0.497418537,0,0,1.5538369417190552,0,0,1.2994799613952637
0.497751885,0,0,1.5538369417190552,0,0,0.5350799560546875
0.49808903,0,0,1.5538369417190552,0,0,0.0764399990439415
0.498419322,0,0,1.5538369417190552,0,0,0.3822000026702881
0.4987518,0,0,1.5538369417190552,0,0,1.223039984703064
0.499101407,0,0,1.5538369417190552,0,0,0.9172800183296204
0.499418625,0,0,1.5155296325683594,0,0,1.070159912109375
0.499755973,0,0,1.5155296325683594,0,0,1.1466000080108643
0.500095321,0,0,1.5155296325683594,0,0,1.070159912109375
0.500418928,0,0,1.5155296325683594,0,0,0.7644000053405762
0.500755517,0,0,1.5155296325683594,0,0,1.223039984703064
0.501085865,0,0,1.5155296325683594,0,0,0.6879600286483765
0.501420417,0,0,1.5155296325683594,0,0,0.5350799560546875
0.501757357,0,0,1.5155296325683594,0,0,1.070159912109375
0.502087075,0,0,1.680729627609253,0,0,0.6879600286483765
0.50241996,0,0,1.680729627609253,0,0,0.4586400091648102
0.502757364,0,0,1.680729627609253,0,0,1.8345600366592407
0.50308536,0,0,1.680729627609253,0,0,0.152879998087883
0.503419912,0,0,1.680729627609253,0,0,0.152879998087883
0.503757463,0,0,1.680729627609253,0,0,1.605239987373352
0.504085811,0,0,1.680729627609253,0,0,0.305759996175766
0.504419992,0,0,1.482010841369629,0,0,-0.4586400091648102
0.504758229,0,0,1.482010841369629,0,0,0.305759996175766
0.505086466,0,0,1.482010841369629,0,0,0.9172800183296204
0.505420129,0,0,1.482010841369629,0,0,0.8408399820327759
0.505754643,0,0,1.482010841369629,0,0,0.5350799560546875
0.506085066,0,0,1.482010841369629,0,0,0.6879600286483765
0.506422432,0,0,1.482010841369629,0,0,0.8408399820327759
0.506757854,0,0,1.3311761617660522,0,0,0.6879600286483765
0.50708598,0,0,1.3311761617660522,0,0,0.7644000053405762
0.507420291,0,0,1.3311761617660522,0,0,0.9172800183296204
0.507757601,0,0,1.3311761617660522,0,0,0.8408399820327759
0.508085912,0,0,1.3311761617660522,0,0,0.3822000026702881
0.508420094,0,0,1.3311761617660522,0,0,0.305759996175766
0.508757516,0,0,1.3311761617660522,0,0,0.611519992351532
0.509086827,0,0,1.3192051649093628,0,0,0.6879600286483765
0.509420026,0,0,1.3192051649093628,0,0,0.611519992351532
0.509757615,0,0,1.3192051649093628,0,0,1.070159912109375
0.510085593,0,0,1.3192051649093628,0,0,1.070159912109375
0.510420218,0,0,1.3192051649093628,0,0,0.7644000053405762
0.510757622,0,0,1.3192051649093628,0,0,0.9937199950218201
0.511096396,0,0,1.3192051649093628,0,0,0.305759996175766
0.511420059,0,0,1.280897855758667,0,0,0.3822000026702881
0.511754147,0,0,1.280897855758667,0,0,0.5350799560546875
0.512085884,0,0,1.280897855758667,0,0,0.5350799560546875
0.512419862,0,0,1.280897855758667,0,0,0.7644000053405762
0.512757672,0,0,1.280897855758667,0,0,0.6879600286483765
0.513086261,0,0,1.280897855758667,0,0,1.1466000080108643
0.513419757,0,0,1.280897855758667,0,0,1.223039984703064
0.513758105,0,0,1.2617442607879639,0,0,0.9172800183296204
0.514086083,0,0,1.2617442607879639,0,0,1.5288000106811523
0.514419968,0,0,1.2617442607879639,0,0,1.070159912109375
0.514757723,0,0,1.2617442607879639,0,0,-0.2293200045824051
0.51508546,0,0,1.2617442607879639,0,0,1.1466000080108643
0.515420141,0,0,1.2617442607879639,0,0,1.605239987373352
0.515757915,0,0,1.2617442607879639,0,0,1.452359914779663
0.516086263,0,0,1.359906554222107,0,0,0.3822000026702881
0.516420092,0,0,1.359906554222107,0,0,0.7644000053405762
0.516759977,0,0,1.359906554222107,0,0,0.7644000053405762
0.517089677,0,0,1.359906554222107,0,0,0.6879600286483765
0.517420062,0,0,1.359906554222107,0,0,0.611519992351532
0.517758225,0,0,1.359906554222107,0,0,0.3822000026702881
0.518086666,0,0,1.359906554222107,0,0,0.611519992351532
0.518420032,0,0,1.5418659448623657,0,0,1.070159912109375
0.518757898,0,0,1.5418659448623657,0,0,1.070159912109375
0.519086209,0,0,1.5418659448623657,0,0,0.4586400091648102
0.519419909,0,0,1.5418659448623657,0,0,0.0764399990439415
0.519757609,0,0,1.5418659448623657,0,0,0.8408399820327759
0.520087809,0,0,1.5418659448623657,0,0,0.6879600286483765
0.520419972,0,0,1.5418659448623657,0,0,0.7644000053405762
0.520757708,0,0,1.5418659448623657,0,0,0.9172800183296204
0.521086167,0,0,1.5107412338256836,0,0,0.9172800183296204
0.521426052,0,0,1.5107412338256836,0,0,1.1466000080108643
0.52175803,0,0,1.5107412338256836,0,0,0.3822000026702881
0.522086452,0,0,1.5107412338256836,0,0,0.9937199950218201
0.522418893,0,0,1.5107412338256836,0,0,0.9937199950218201
0.522756055,0,0,1.5107412338256836,0,0,1.070159912109375
0.523085237,0,0,1.5107412338256836,0,0,0.611519992351532
0.52341851,0,0,1.558625340461731,0,0,0.611519992351532
0.523761803,0,0,1.558625340461731,0,0,0.2293200045824051
0.524094891,0,0,1.558625340461731,0,0,0.4586400091648102
0.524425295,0,0,1.558625340461731,0,0,0.8408399820327759
0.525427339,0,0,1.558625340461731,0,0,0.8408399820327759
0.525451301,0,0,1.558625340461731,0,0,0.8408399820327759
0.525474597,0,0,1.558625340461731,0,0,1.9109998941421509
0.525763576,0,0,1.6112977266311646,0,0,-0.3822000026702881
0.526086664,0,0,1.6112977266311646,0,0,-0.2293200045824051
0.52641992,0,0,1.6112977266311646,0,0,-0.152879998087883
0.526752268,0,0,1.6112977266311646,0,0,1.5288000106811523
0.527092023,0,0,1.6112977266311646,0,0,1.2994799613952637
0.52741976,0,0,1.6112977266311646,0,0,0.611519992351532
0.527752423,0,0,1.6112977266311646,0,0,0.6879600286483765
0.52808553,0,0,1.6496049165725708,0,0,0.611519992351532
0.528419137,0,0,1.6496049165725708,0,0,0.5350799560546875
0.528752115,0,0,1.6496049165725708,0,0,1.223039984703064
0.529085407,0,0,1.6496049165725708,0,0,1.223039984703064
0.529418829,0,0,1.6496049165725708,0,0,0.4586400091648102
0.529752566,0,0,1.6496049165725708,0,0,0.3822000026702881
0.530085432,0,0,1.6496049165725708,0,0,0.6879600286483765
0.530418836,0,0,1.3503297567367554,0,0,0.9172800183296204
0.530752684,0,0,1.3503297567367554,0,0,0.5350799560546875
0.531085532,0,0,1.3503297567367554,0,0,0.611519992351532
0.531418676,0,0,1.3503297567367554,0,0,0.9937199950218201
0.531752376,0,0,1.3503297567367554,0,0,0.611519992351532
0.532085372,0,0,1.3503297567367554,0,0,0.4586400091648102
0.532418923,0,0,1.3503297567367554,0,0,0.305759996175766
0.532752512,0,0,1.3192051649093628,0,0,0.611519992351532
0.533085601,0,0,1.3192051649093628,0,0,0.7644000053405762
0.533418671,0,0,1.3192051649093628,0,0,0.3822000026702881
0.533752445,0,0,1.3192051649093628,0,0,0.611519992351532
0.534085552,0,0,1.3192051649093628,0,0,0.9937199950218201
0.534418622,0,0,1.3192051649093628,0,0,1.2994799613952637
0.53475247,0,0,1.3192051649093628,0,0,1.2994799613952637
0.53508554,0,0,1.3407529592514038,0,0,1.070159912109375
0.535418666,0,0,1.3407529592514038,0,0,0.8408399820327759
0.535752625,0,0,1.3407529592514038,0,0,1.758120059967041
0.536103677,0,0,1.3407529592514038,0,0,1.452359914779663
0.536419414,0,0,1.3407529592514038,0,0,1.452359914779663
0.53675215,0,0,1.3407529592514038,0,0,1.375920057296753
0.537085609,0,0,1.3407529592514038,0,0,1.6816799640655518
0.537421124,0,0,1.3407529592514038,0,0,1.605239987373352
0.537752528,0,0,1.292868971824646,0,0,0.4586400091648102
0.538085709,0,0,1.292868971824646,0,0,-0.305759996175766
0.538418668,0,0,1.292868971824646,0,0,0.3822000026702881
0.538751757,0,0,1.292868971824646,0,0,0.6879600286483765
0.539085771,0,0,1.292868971824646,0,0,0.6879600286483765
0.539418804,0,0,1.292868971824646,0,0,1.070159912109375
0.539752171,0,0,1.292868971824646,0,0,0.9937199950218201
0.5400855,0,0,1.3263877630233765,0,0,0.305759996175766
0.540418811,0,0,1.3263877630233765,0,0,0.2293200045824051
0.540752159,0,0,1.3263877630233765,0,0,0.2293200045824051
0.541086081,0,0,1.3263877630233765,0,0,0.5350799560546875
0.54141854,0,0,1.3263877630233765,0,0,0.7644000053405762
0.541761036,0,0,1.3263877630233765,0,0,1.1466000080108643
0.542092847,0,0,1.3263877630233765,0,0,0.9937199950218201
0.542421788,0,0,1.4173674583435059,0,0,0.6879600286483765
0.542760302,0,0,1.4173674583435059,0,0,0.9172800183296204
0.543086484,0,0,1.4173674583435059,0,0,0.8408399820327759
0.543419202,0,0,1.4173674583435059,0,0,1.223039984703064
0.543752124,0,0,1.4173674583435059,0,0,1.223039984703064
0.544085324,0,0,1.4173674583435059,0,0,0.9937199950218201
0.544419357,0,0,1.4173674583435059,0,0,1.223039984703064
0.544752205,0,0,1.4628572463989258,0,0,0.7644000053405762
0.545085275,0,0,1.4628572463989258,0,0,0.9172800183296204
0.545419234,0,0,1.4628572463989258,0,0,0.9172800183296204
0.545752304,0,0,1.4628572463989258,0,0,0.4586400091648102
0.546085504,0,0,1.4628572463989258,0,0,0.5350799560546875
0.546419185,0,0,1.4628572463989258,0,0,0.611519992351532
0.546752163,0,0,1.4628572463989258,0,0,0.8408399820327759
0.547085418,0,0,1.5969325304031372,0,0,0.611519992351532
0.547419359,0,0,1.5969325304031372,0,0,0.8408399820327759
0.547754762,0,0,1.5969325304031372,0,0,0
0.548085795,0,0,1.5969325304031372,0,0,0.152879998087883
0.548419106,0,0,1.5969325304031372,0,0,-0.3822000026702881
0.548751991,0,0,1.5969325304031372,0,0,0.0764399990439415
0.54908558,0,0,1.5969325304031372,0,0,-0.3822000026702881
0.549419169,0,0,1.5969325304031372,0,0,9.478560447692871
0.549751979,0,0,1.623268723487854,0,0,0.3822000026702881
0.550085531,0,0,1.623268723487854,0,0,1.375920057296753
0.550418731,0,0,1.623268723487854,0,0,1.1466000080108643
0.550752134,0,0,1.623268723487854,0,0,0
0.551085316,0,0,1.623268723487854,0,0,0.2293200045824051
0.551418923,0,0,1.623268723487854,0,0,0.7644000053405762
0.551752586,0,0,1.623268723487854,0,0,0.9172800183296204
0.552085508,0,0,1.5873557329177856,0,0,0.9172800183296204
0.552418782,0,0,1.5873557329177856,0,0,0.9172800183296204
0.552752333,0,0,1.5873557329177856,0,0,0.8408399820327759
0.553085329,0,0,1.5873557329177856,0,0,0.7644000053405762
0.553418807,0,0,1.5873557329177856,0,0,0.611519992351532
0.553752359,0,0,1.5873557329177856,0,0,0.9937199950218201
0.554085577,0,0,1.5873557329177856,0,0,1.1466000080108643
0.554418814,0,0,1.534683346748352,0,0,0.7644000053405762
0.55475518,0,0,1.534683346748352,0,0,0.611519992351532
0.555085639,0,0,1.534683346748352,0,0,0.611519992351532
0.555418635,0,0,1.534683346748352,0,0,0.611519992351532
0.555752465,0,0,1.534683346748352,0,0,0.8408399820327759
0.556085609,0,0,1.534683346748352,0,0,0.611519992351532
0.556419049,0,0,1.534683346748352,0,0,0.5350799560546875
0.556752583,0,0,1.357512354850769,0,0,0.4586400091648102
0.557085431,0,0,1.357512354850769,0,0,0.9937199950218201
0.557418704,0,0,1.357512354850769,0,0,0.7644000053405762
0.557752145,0,0,1.357512354850769,0,0,0.6879600286483765
0.558088697,0,0,1.357512354850769,0,0,1.223039984703064
0.558419137,0,0,1.357512354850769,0,0,0.9172800183296204
0.558752152,0,0,1.357512354850769,0,0,1.452359914779663
0.559085814,0,0,1.41257905960083,0,0,0.8408399820327759
0.559418607,0,0,1.41257905960083,0,0,1.758120059967041
0.559752159,0,0,1.41257905960083,0,0,2.06387996673584
0.560085858,0,0,1.41257905960083,0,0,1.452359914779663
0.560418873,0,0,1.41257905960083,0,0,1.5288000106811523
0.560752202,0,0,1.41257905960083,0,0,0.9937199950218201
0.561086143,0,0,1.41257905960083,0,0,0.6879600286483765
0.561419102,0,0,1.3982137441635132,0,0,0.2293200045824051
0.561752135,0,0,1.3982137441635132,0,0,0.611519992351532
0.562085724,0,0,1.3982137441635132,0,0,0.8408399820327759
0.562418924,0,0,1.3982137441635132,0,0,0.6879600286483765
0.562751975,0,0,1.3982137441635132,0,0,0.7644000053405762
0.563085768,0,0,1.3982137441635132,0,0,1.1466000080108643
0.56341869,0,0,1.3982137441635132,0,0,0.7644000053405762
0.563752075,0,0,1.256955862045288,0,0,0.3822000026702881
0.564095367,0,0,1.256955862045288,0,0,0.611519992351532
0.564419493,0,0,1.256955862045288,0,0,0.8408399820327759
0.5647521,0,0,1.256955862045288,0,0,1.375920057296753
0.565085596,0,0,1.256955862045288,0,0,0.6879600286483765
0.565418759,0,0,1.256955862045288,0,0,0.8408399820327759
0.565752033,0,0,1.256955862045288,0,0,0.9172800183296204
0.566085473,0,0,1.256955862045288,0,0,1.223039984703064
0.566419154,0,0,1.3958195447921753,0,0,1.223039984703064
0.566752151,0,0,1.3958195447921753,0,0,0.9172800183296204
0.567085406,0,0,1.3958195447921753,0,0,1.452359914779663
0.567418995,0,0,1.3958195447921753,0,0,1.5288000106811523
0.567752083,0,0,1.3958195447921753,0,0,1.2994799613952637
0.568085209,0,0,1.3958195447921753,0,0,1.070159912109375
0.568421612,0,0,1.3958195447921753,0,0,0.611519992351532
0.568752294,0,0,1.4915876388549805,0,0,0.4586400091648102
0.569085531,0,0,1.4915876388549805,0,0,0.611519992351532
0.56941923,0,0,1.4915876388549805,0,0,0.5350799560546875
0.569751986,0,0,1.4915876388549805,0,0,0.5350799560546875
0.570085537,0,0,1.4915876388549805,0,0,0.3822000026702881
0.5704192,0,0,1.4915876388549805,0,0,0.6879600286483765
0.570751807,0,0,1.4915876388549805,0,0,-0.305759996175766
0.571085433,0,0,1.6208745241165161,0,0,-0.3822000026702881
0.571418948,0,0,1.6208745241165161,0,0,-0.5350799560546875
0.571752073,0,0,1.6208745241165161,0,0,0.4586400091648102
0.572085607,0,0,1.6208745241165161,0,0,0
0.572418769,0,0,1.6208745241165161,0,0,0.8408399820327759
0.572752247,0,0,1.6208745241165161,0,0,0.6879600286483765
0.573085465,0,0,1.6208745241165161,0,0,0.8408399820327759
0.573418813,0,0,1.7262194156646729,0,0,0.9937199950218201
0.573752587,0,0,1.7262194156646729,0,0,0.9172800183296204
0.574085583,0,0,1.7262194156646729,0,0,0.611519992351532
0.57441882,0,0,1.7262194156646729,0,0,0.5350799560546875
0.574752464,0,0,1.7262194156646729,0,0,1.452359914779663
0.575085349,0,0,1.7262194156646729,0,0,1.070159912109375
0.575418882,0,0,1.7262194156646729,0,0,0.9172800183296204
0.575752564,0,0,1.6208745241165161,0,0,0.9172800183296204
0.576085337,0,0,1.6208745241165161,0,0,0.5350799560546875
0.576419389,0,0,1.6208745241165161,0,0,0.7644000053405762
0.576752293,0,0,1.6208745241165161,0,0,1.070159912109375
0.5770854,0,0,1.6208745241165161,0,0,0.8408399820327759
0.577419007,0,0,1.6208745241165161,0,0,0.8408399820327759
0.577752522,0,0,1.6208745241165161,0,0,0.7644000053405762
0.578085518,0,0,1.7070658206939697,0,0,0.7644000053405762
0.578418736,0,0,1.7070658206939697,0,0,0.6879600286483765
0.578755491,0,0,1.7070658206939697,0,0,0.4586400091648102
0.579085617,0,0,1.7070658206939697,0,0,0.2293200045824051
0.579418909,0,0,1.7070658206939697,0,0,0.4586400091648102
0.579752128,0,0,1.7070658206939697,0,0,0.3822000026702881
0.580085939,0,0,1.7070658206939697,0,0,0.3822000026702881
0.580418898,0,0,1.4532804489135742,0,0,0
0.580752264,0,0,1.4532804489135742,0,0,1.223039984703064
0.581085834,0,0,1.4532804489135742,0,0,1.2994799613952637
0.581418645,0,0,1.4532804489135742,0,0,0.8408399820327759
0.581752141,0,0,1.4532804489135742,0,0,1.223039984703064
0.58208573,0,0,1.4532804489135742,0,0,1.223039984703064
0.582418708,0,0,1.4532804489135742,0,0,2.2167599201202393
0.582752056,0,0,1.3455413579940796,0,0,2.06387996673584
0.583085848,0,0,1.3455413579940796,0,0,2.06387996673584
0.583418807,0,0,1.3455413579940796,0,0,0.6879600286483765
0.583752099,0,0,1.3455413579940796,0,0,0.611519992351532
0.584086021,0,0,1.3455413579940796,0,0,1.070159912109375
0.584418832,0,0,1.3455413579940796,0,0,0.9172800183296204
0.584752069,0,0,1.3455413579940796,0,0,0.7644000053405762
0.585085713,0,0,1.3311761617660522,0,0,0.8408399820327759
0.585425117,0,0,1.3311761617660522,0,0,0.9172800183296204
0.585754446,0,0,1.3311761617660522,0,0,0.8408399820327759
0.586087887,0,0,1.3311761617660522,0,0,0.8408399820327759
0.586418846,0,0,1.3311761617660522,0,0,0.8408399820327759
0.586752212,0,0,1.3311761617660522,0,0,0.4586400091648102
0.587087708,0,0,1.3311761617660522,0,0,0.7644000053405762
0.587506074,0,0,1.237802267074585,0,0,0.8408399820327759
0.587757015,0,0,1.237802267074585,0,0,0.9172800183296204
0.588086123,0,0,1.237802267074585,0,0,0.5350799560546875
0.588419637,0,0,1.237802267074585,0,0,1.070159912109375
0.58875243,0,0,1.237802267074585,0,0,0.8408399820327759
0.589090518,0,0,1.237802267074585,0,0,0.8408399820327759
0.589419329,0,0,1.237802267074585,0,0,0.9172800183296204
0.589752103,0,0,1.2210428714752197,0,0,0.9937199950218201
0.590085655,0,0,1.2210428714752197,0,0,1.375920057296753
0.590419151,0,0,1.2210428714752197,0,0,1.452359914779663
0.590751999,0,0,1.2210428714752197,0,0,1.1466000080108643
0.591085458,0,0,1.2210428714752197,0,0,1.5288000106811523
0.591419176,0,0,1.2210428714752197,0,0,0.611519992351532
0.591752135,0,0,1.2210428714752197,0,0,0.305759996175766
0.592103094,0,0,1.403002142906189,0,0,0.2293200045824051
0.592806697,0,0,1.403002142906189,0,0,2.14031982421875
0.592830937,0,0,1.403002142906189,0,0,2.14031982421875
0.593113953,0,0,1.403002142906189,0,0,0.7644000053405762
0.593431745,0,0,1.403002142906189,0,0,-1.2994799613952637
0.59376713,0,0,1.403002142906189,0,0,1.375920057296753
0.594086997,0,0,1.403002142906189,0,0,0.2293200045824051
0.594419752,0,0,1.5083470344543457,0,0,0.8408399820327759
0.594764396,0,0,1.5083470344543457,0,0,1.1466000080108643
0.595089115,0,0,1.5083470344543457,0,0,0.9172800183296204
0.595420129,0,0,1.5083470344543457,0,0,1.070159912109375
0.595752885,0,0,1.5083470344543457,0,0,0.8408399820327759
0.596086584,0,0,1.5083470344543457,0,0,0.611519992351532
0.596423729,0,0,1.5083470344543457,0,0,0.9937199950218201
0.596753928,0,0,1.601720929145813,0,0,1.1466000080108643
0.597088332,0,0,1.601720929145813,0,0,0.9937199950218201
0.597421143,0,0,1.601720929145813,0,0,0.9937199950218201
0.597895267,0,0,1.601720929145813,0,0,0.4586400091648102
0.598088968,0,0,1.601720929145813,0,0,0.9172800183296204
0.598424779,0,0,1.601720929145813,0,0,0.8408399820327759
0.598755979,0,0,1.601720929145813,0,0,0.8408399820327759
0.59908666,0,0,1.6280571222305298,0,0,0.611519992351532
0.599426453,0,0,1.6280571222305298,0,0,0.5350799560546875
0.599760356,0,0,1.6280571222305298,0,0,0.2293200045824051
0.600086667,0,0,1.6280571222305298,0,0,0.611519992351532
0.600423867,0,0,1.6280571222305298,0,0,0.6879600286483765
0.60082177,0,0,1.6280571222305298,0,0,1.1466000080108643
0.601101711,0,0,1.4987702369689941,0,0,1.2994799613952637
0.601420281,0,0,1.4987702369689941,0,0,0.305759996175766
0.60175374,0,0,1.4987702369689941,0,0,0.305759996175766
0.602092088,0,0,1.4987702369689941,0,0,1.223039984703064
0.602420269,0,0,1.4987702369689941,0,0,0.2293200045824051
0.602757191,0,0,1.4987702369689941,0,0,0.5350799560546875
0.60308691,0,0,1.4987702369689941,0,0,1.223039984703064
0.60342011,0,0,1.5897499322891235,0,0,1.6816799640655518
0.603757013,0,0,1.5897499322891235,0,0,1.070159912109375
0.604089083,0,0,1.5897499322891235,0,0,-0.2293200045824051
0.604419931,0,0,1.5897499322891235,0,0,0.5350799560546875
0.60475452,0,0,1.5897499322891235,0,0,2.14031982421875
0.605085423,0,0,1.5897499322891235,0,0,1.8345600366592407
0.605419901,0,0,1.5897499322891235,0,0,1.8345600366592407
0.605755915,0,0,1.3862427473068237,0,0,0.6879600286483765
0.606086541,0,0,1.3862427473068237,0,0,0.9172800183296204
0.606419815,0,0,1.3862427473068237,0,0,1.1466000080108643
0.606772885,0,0,1.3862427473068237,0,0,0.7644000053405762
0.60709877,0,0,1.3862427473068237,0,0,0.9172800183296204
0.607420044,0,0,1.3862427473068237,0,0,0.7644000053405762
0.607753207,0,0,1.3862427473068237,0,0,0.9937199950218201
0.608085962,0,0,1.3982137441635132,0,0,0.6879600286483765
0.608420069,0,0,1.3982137441635132,0,0,0.7644000053405762
0.608756899,0,0,1.3982137441635132,0,0,1.1466000080108643
0.609086025,0,0,1.3982137441635132,0,0,0.7644000053405762
0.609419891,0,0,1.3982137441635132,0,0,0.5350799560546875
0.609759887,0,0,1.3455413579940796,0,0,0.4586400091648102
0.610089772,0,0,1.3455413579940796,0,0,0.3822000026702881
0.61041999,0,0,1.3455413579940796,0,0,0.8408399820327759
0.610755357,0,0,1.3455413579940796,0,0,0.611519992351532
0.611085834,0,0,1.3455413579940796,0,0,0.9172800183296204
0.611419979,0,0,1.3455413579940796,0,0,0.9172800183296204
0.611756512,0,0,1.2545616626739502,0,0,1.1466000080108643
0.612085452,0,0,1.2545616626739502,0,0,0.8408399820327759
0.6124203,0,0,1.2545616626739502,0,0,0.9937199950218201
0.612756722,0,0,1.2545616626739502,0,0,0.611519992351532
0.613088052,0,0,1.2545616626739502,0,0,1.223039984703064
0.613419844,0,0,1.2545616626739502,0,0,0.0764399990439415
0.613753636,0,0,1.2545616626739502,0,0,0.9172800183296204
0.614085484,0,0,1.2521674633026123,0,0,1.375920057296753
0.614420036,0,0,1.2521674633026123,0,0,0.7644000053405762
0.614754866,0,0,1.2521674633026123,0,0,-0.4586400091648102
0.615085343,0,0,1.2521674633026123,0,0,0.0764399990439415
0.615419747,0,0,1.2521674633026123,0,0,0
0.615756187,0,0,1.2521674633026123,0,0,0.5350799560546875
0.616086757,0,0,1.2521674633026123,0,0,-0.6879600286483765
0.616419846,0,0,1.3886369466781616,0,0,0.305759996175766
0.61675699,0,0,1.3886369466781616,0,0,0.7644000053405762
0.61708619,0,0,1.3886369466781616,0,0,0.9172800183296204
0.617420186,0,0,1.3886369466781616,0,0,1.1466000080108643
0.61775659,0,0,1.3886369466781616,0,0,0.9172800183296204
0.618085678,0,0,1.3886369466781616,0,0,0.9172800183296204
0.618420008,0,0,1.3886369466781616,0,0,0.6879600286483765
0.618757133,0,0,1.5275006294250488,0,0,0.7644000053405762
0.619086111,0,0,1.5275006294250488,0,0,0.9172800183296204
0.619419977,0,0,1.5275006294250488,0,0,0.9172800183296204
0.619757288,0,0,1.5275006294250488,0,0,1.070159912109375
0.620089081,0,0,1.5275006294250488,0,0,0.9172800183296204
0.620419984,0,0,1.5275006294250488,0,0,0.8408399820327759
0.620757147,0,0,1.5275006294250488,0,0,0.9172800183296204
0.621089902,0,0,1.5753847360610962,0,0,1.1466000080108643
0.621420176,0,0,1.5753847360610962,0,0,0.7644000053405762
0.621755283,0,0,1.5753847360610962,0,0,0.6879600286483765
0.622087113,0,0,1.5753847360610962,0,0,0.5350799560546875
0.622419924,0,0,1.5753847360610962,0,0,0.2293200045824051
0.622757012,0,0,1.5753847360610962,0,0,0.305759996175766
0.623086583,0,0,1.5753847360610962,0,0,0.4586400091648102
0.623420005,0,0,1.4484920501708984,0,0,0.3822000026702881
0.623757056,0,0,1.4484920501708984,0,0,0.305759996175766
0.624086219,0,0,1.4484920501708984,0,0,0.9172800183296204
0.624419808,0,0,1.4484920501708984,0,0,1.375920057296753
0.624756804,0,0,1.4484920501708984,0,0,1.452359914779663
0.625085726,0,0,1.4484920501708984,0,0,1.375920057296753
0.625419907,0,0,1.4484920501708984,0,0,0.3822000026702881
0.625757218,0,0,1.5083470344543457,0,0,0.5350799560546875
0.626086492,0,0,1.5083470344543457,0,0,1.6816799640655518
0.626419858,0,0,1.5083470344543457,0,0,1.5288000106811523
0.626756725,0,0,1.5083470344543457,0,0,0.8408399820327759
0.627085851,0,0,1.5083470344543457,0,0,0.7644000053405762
0.627419921,0,0,1.5083470344543457,0,0,0.5350799560546875
0.627757028,0,0,1.5083470344543457,0,0,0.152879998087883
0.628094376,0,0,1.5179238319396973,0,0,0.9172800183296204
0.628420057,0,0,1.5179238319396973,0,0,1.1466000080108643
0.628757109,0,0,1.5179238319396973,0,0,0.8408399820327759
0.629086068,0,0,1.5179238319396973,0,0,0.6879600286483765
0.629420101,0,0,1.5179238319396973,0,0,0.8408399820327759
0.629757041,0,0,1.5179238319396973,0,0,0.8408399820327759
0.630086093,0,0,1.5179238319396973,0,0,1.070159912109375
0.630422626,0,0,1.3479355573654175,0,0,0.6879600286483765
0.630757308,0,0,1.3479355573654175,0,0,1.070159912109375
0.631086618,0,0,1.3479355573654175,0,0,0.9172800183296204
0.631419874,0,0,1.3479355573654175,0,0,0.8408399820327759
0.631757018,0,0,1.3479355573654175,0,0,0.8408399820327759
0.632086014,0,0,1.3479355573654175,0,0,0.9172800183296204
0.632419844,0,0,1.3479355573654175,0,0,0.9172800183296204
0.63275708,0,0,1.37906014919281,0,0,0.6879600286483765
0.633086095,0,0,1.37906014919281,0,0,0.9937199950218201
0.633421054,0,0,1.37906014919281,0,0,0.9172800183296204
0.633753124,0,0,1.37906014919281,0,0,0.9172800183296204
0.634086009,0,0,1.37906014919281,0,0,0.6879600286483765
0.634420487,0,0,1.37906014919281,0,0,0.8408399820327759
0.63475715,0,0,1.37906014919281,0,0,0.611519992351532
0.635096034,0,0,1.2976573705673218,0,0,1.2994799613952637
0.635419901,0,0,1.2976573705673218,0,0,0.9172800183296204
0.635757156,0,0,1.2976573705673218,0,0,0
0.636085967,0,0,1.2976573705673218,0,0,-0.2293200045824051
0.636420037,0,0,1.2976573705673218,0,0,0.7644000053405762
0.636757163,0,0,1.2976573705673218,0,0,0.152879998087883
0.637086326,0,0,1.359906554222107,0,0,0
0.637420748,0,0,1.359906554222107,0,0,0.152879998087883
0.637757022,0,0,1.359906554222107,0,0,0.2293200045824051
0.638086796,0,0,1.359906554222107,0,0,0
0.638420088,0,0,1.359906554222107,0,0,0
0.638757343,0,0,1.359906554222107,0,0,1.6816799640655518
0.639086654,0,0,1.359906554222107,0,0,0.305759996175766
0.639420113,0,0,1.4221558570861816,0,0,0.9172800183296204
0.63975698,0,0,1.4221558570861816,0,0,0.611519992351532
0.640086272,0,0,1.4221558570861816,0,0,0.9937199950218201
0.640419953,0,0,1.4221558570861816,0,0,1.070159912109375
0.640760394,0,0,1.4221558570861816,0,0,0.7644000053405762
0.641090168,0,0,1.4221558570861816,0,0,0.9937199950218201
0.641420201,0,0,1.4508862495422363,0,0,1.070159912109375
0.641756086,0,0,1.4508862495422363,0,0,1.1466000080108643
0.642096341,0,0,1.4508862495422363,0,0,0.5350799560546875
0.642420449,0,0,1.4508862495422363,0,0,0.611519992351532
0.642756852,0,0,1.4508862495422363,0,0,0.611519992351532
0.643085848,0,0,1.4508862495422363,0,0,0.8408399820327759
0.643419974,0,0,1.558625340461731,0,0,0.8408399820327759
0.643757063,0,0,1.659181833267212,0,0,0.611519992351532
0.644090873,0,0,1.659181833267212,0,0,0.8408399820327759
0.644420036,0,0,1.659181833267212,0,0,0.4586400091648102
0.644755903,0,0,1.659181833267212,0,0,0.5350799560546875
0.645085695,0,0,1.659181833267212,0,0,0.4586400091648102
0.645419913,0,0,1.659181833267212,0,0,0.305759996175766
0.645756984,0,0,1.577778935432434,0,0,1.605239987373352
0.646086035,0,0,1.577778935432434,0,0,0.9172800183296204
0.646420013,0,0,1.577778935432434,0,0,0.4586400091648102
0.646756861,0,0,1.577778935432434,0,0,0
0.647086653,0,0,1.577778935432434,0,0,0.9937199950218201
0.647419945,0,0,1.577778935432434,0,0,1.375920057296753
0.64775709,0,0,1.577778935432434,0,0,0.7644000053405762
0.648086864,0,0,1.6855180263519287,0,0,1.6816799640655518
0.648419989,0,0,1.6855180263519287,0,0,1.9109998941421509
0.648756615,0,0,1.6855180263519287,0,0,2.14031982421875
0.649086519,0,0,1.6855180263519287,0,0,1.452359914779663
0.649431107,0,0,1.6855180263519287,0,0,0
0.649757288,0,0,1.6855180263519287,0,0,1.070159912109375
0.65008647,0,0,1.482010841369629,0,0,0.7644000053405762
0.650422058,0,0,1.482010841369629,0,0,0.9172800183296204
0.650757166,0,0,1.482010841369629,0,0,0.9172800183296204
0.651089865,0,0,1.482010841369629,0,0,1.070159912109375
0.651419954,0,0,1.482010841369629,0,0,0.6879600286483765
0.651757061,0,0,1.482010841369629,0,0,0.9937199950218201
0.652086557,0,0,1.482010841369629,0,0,1.223039984703064
0.652419868,0,0,1.3215993642807007,0,0,0.7644000053405762
0.652757124,0,0,1.3215993642807007,0,0,0.6879600286483765
0.653088694,0,0,1.3215993642807007,0,0,0.4586400091648102
0.65342006,0,0,1.3215993642807007,0,0,0.7644000053405762
0.653754612,0,0,1.3215993642807007,0,0,0.8408399820327759
0.654085497,0,0,1.3766659498214722,0,0,0.7644000053405762
0.654419956,0,0,1.3766659498214722,0,0,0.8408399820327759
0.654755878,0,0,1.3766659498214722,0,0,0.8408399820327759
0.655086282,0,0,1.3766659498214722,0,0,0.7644000053405762
0.655420241,0,0,1.3766659498214722,0,0,0.7644000053405762
0.65575657,0,0,1.3766659498214722,0,0,0.7644000053405762
0.656085751,0,0,1.1994950771331787,0,0,0.9937199950218201
0.656419933,0,0,1.1994950771331787,0,0,1.452359914779663
0.656756855,0,0,1.1994950771331787,0,0,0.8408399820327759
0.657085999,0,0,1.1994950771331787,0,0,-0.4586400091648102
0.657419995,0,0,1.1994950771331787,0,0,0.152879998087883
0.657756676,0,0,1.1994950771331787,0,0,0.611519992351532
0.658085839,0,0,1.3000515699386597,0,0,0.4586400091648102
0.658419946,0,0,1.3000515699386597,0,0,0.305759996175766
0.658756887,0,0,1.3000515699386597,0,0,1.2994799613952637
0.659086179,0,0,1.3000515699386597,0,0,0.5350799560546875
0.659420008,0,0,1.3000515699386597,0,0,0
0.659757023,0,0,1.3000515699386597,0,0,0
0.660086315,0,0,1.3000515699386597,0,0,0.2293200045824051
0.660420126,0,0,1.403002142906189,0,0,1.452359914779663
0.660757104,0,0,1.403002142906189,0,0,0.6879600286483765
0.661085896,0,0,1.403002142906189,0,0,0.8408399820327759
0.661422485,0,0,1.403002142906189,0,0,0.6879600286483765
0.661758018,0,0,1.403002142906189,0,0,1.2994799613952637
0.662087718,0,0,1.403002142906189,0,0,0.7644000053405762
0.662419899,0,0,1.403002142906189,0,0,0.9937199950218201
0.662754932,0,0,1.525106430053711,0,0,0.9937199950218201
0.663085873,0,0,1.525106430053711,0,0,0.9172800183296204
0.663419943,0,0,1.525106430053711,0,0,0.6879600286483765
0.663756013,0,0,1.525106430053711,0,0,0.6879600286483765
0.66408662,0,0,1.525106430053711,0,0,0.7644000053405762
0.664419857,0,0,1.525106430053711,0,0,0.8408399820327759
0.664756798,0,0,1.525106430053711,0,0,0.4586400091648102
0.665086461,0,0,1.534683346748352,0,0,0.7644000053405762
0.665419901,0,0,1.534683346748352,0,0,0.6879600286483765
0.665757305,0,0,1.534683346748352,0,0,0.9172800183296204
0.666089245,0,0,1.534683346748352,0,0,0.4586400091648102
0.666419797,0,0,1.534683346748352,0,0,0.4586400091648102
0.666754367,0,0,1.5610195398330688,0,0,1.1466000080108643
0.667085289,0,0,1.5610195398330688,0,0,1.8345600366592407
0.667419822,0,0,1.5610195398330688,0,0,0.6879600286483765
0.667755281,0,0,1.5610195398330688,0,0,-0.3822000026702881
0.668086259,0,0,1.5610195398330688,0,0,0.9172800183296204
0.668419755,0,0,1.5610195398330688,0,0,1.1466000080108643
0.668756806,0,0,1.5298948287963867,0,0,0.305759996175766
0.669086377,0,0,1.5298948287963867,0,0,1.223039984703064
0.669420002,0,0,1.5298948287963867,0,0,1.452359914779663
0.669756943,0,0,1.5298948287963867,0,0,0.7644000053405762
0.670086606,0,0,1.5298948287963867,0,0,1.452359914779663
0.670420046,0,0,1.5298948287963867,0,0,1.452359914779663
0.670764875,0,0,1.5298948287963867,0,0,0.9172800183296204
0.671094186,0,0,1.5945383310317993,0,0,0.4586400091648102
0.671420016,0,0,1.5945383310317993,0,0,0.3822000026702881
0.671759105,0,0,1.5945383310317993,0,0,0.152879998087883
0.672088508,0,0,1.5945383310317993,0,0,2.2932000160217285
0.672420097,0,0,1.5945383310317993,0,0,0.4586400091648102
0.672754426,0,0,1.5945383310317993,0,0,0.7644000053405762
0.673085182,0,0,1.5945383310317993,0,0,0.9172800183296204
0.673419826,0,0,1.2665326595306396,0,0,0.7644000053405762
0.673756655,0,0,1.2665326595306396,0,0,0.6879600286483765
0.67408604,0,0,1.2665326595306396,0,0,0.4586400091648102
0.674419981,0,0,1.2665326595306396,0,0,0.4586400091648102
0.674757162,0,0,1.2665326595306396,0,0,0.6879600286483765
0.675088417,0,0,1.2665326595306396,0,0,0.7644000053405762
0.675420117,0,0,1.2665326595306396,0,0,0.8408399820327759
0.675753947,0,0,1.3287819623947144,0,0,0.8408399820327759
0.676084683,0,0,1.3287819623947144,0,0,0.7644000053405762
0.676419883,0,0,1.3287819623947144,0,0,0.611519992351532
0.676754953,0,0,1.3287819623947144,0,0,0.7644000053405762
0.677085301,0,0,1.3287819623947144,0,0,0.7644000053405762
0.677433742,0,0,1.3287819623947144,0,0,1.223039984703064
0.677753942,0,0,1.3287819623947144,0,0,1.452359914779663
0.678086753,0,0,1.3982137441635132,0,0,0.8408399820327759
0.678419008,0,0,1.3982137441635132,0,0,0.152879998087883
0.678753393,0,0,1.3982137441635132,0,0,0.3822000026702881
0.67909013,0,0,1.3982137441635132,0,0,0.9937199950218201
0.679421293,0,0,1.3982137441635132,0,0,0.611519992351532
0.679753566,0,0,1.2234370708465576,0,0,0.9172800183296204
0.680087266,0,0,1.2234370708465576,0,0,0.8408399820327759
0.68041804,0,0,1.2234370708465576,0,0,0.3822000026702881
0.680753407,0,0,1.2234370708465576,0,0,0.4586400091648102
0.68108844,0,0,1.2234370708465576,0,0,0.4586400091648102
0.681418676,0,0,1.2234370708465576,0,0,1.223039984703064
0.681753358,0,0,1.2234370708465576,0,0,0.2293200045824051
0.682092724,0,0,1.3311761617660522,0,0,0.5350799560546875
0.682422961,0,0,1.3311761617660522,0,0,0.8408399820327759
0.682753457,0,0,1.3311761617660522,0,0,1.605239987373352
0.683218489,0,0,1.3311761617660522,0,0,0.152879998087883
0.683422449,0,0,1.3311761617660522,0,0,1.605239987373352
0.683753982,0,0,1.3311761617660522,0,0,1.070159912109375
0.684090534,0,0,1.3311761617660522,0,0,0.9937199950218201
0.684419938,0,0,1.381454348564148,0,0,0.7644000053405762
0.684753841,0,0,1.381454348564148,0,0,0.6879600286483765
0.685090596,0,0,1.381454348564148,0,0,0.7644000053405762
0.685421407,0,0,1.381454348564148,0,0,0.7644000053405762
0.685753218,0,0,1.381454348564148,0,0,0.9172800183296204
0.686087066,0,0,1.381454348564148,0,0,0.4586400091648102
0.686418859,0,0,1.381454348564148,0,0,0.8408399820327759
0.686753244,0,0,1.4724340438842773,0,0,0.7644000053405762
0.68708824,0,0,1.4724340438842773,0,0,0.5350799560546875
0.687418717,0,0,1.4724340438842773,0,0,0.305759996175766
0.687753473,0,0,1.4724340438842773,0,0,0.305759996175766
0.688089321,0,0,1.4724340438842773,0,0,1.1466000080108643
0.688420502,0,0,1.4724340438842773,0,0,0.9172800183296204
0.688753257,0,0,1.4724340438842773,0,0,0.3822000026702881
0.689090624,0,0,1.6065093278884888,0,0,0.0764399990439415
0.689421064,0,0,1.6065093278884888,0,0,0.4586400091648102
0.689753468,0,0,1.6065093278884888,0,0,0.9937199950218201
0.690090353,0,0,1.6065093278884888,0,0,0.5350799560546875
0.690419386,0,0,1.6065093278884888,0,0,1.1466000080108643
0.690753326,0,0,1.6065093278884888,0,0,1.375920057296753
0.691090526,0,0,1.6065093278884888,0,0,0.9937199950218201
0.691420096,0,0,1.6065093278884888,0,0,1.375920057296753
0.691753481,0,0,1.580173134803772,0,0,1.605239987373352
0.692091033,0,0,1.580173134803772,0,0,0.8408399820327759
0.692422585,0,0,1.580173134803772,0,0,1.2994799613952637
0.692753507,0,0,1.580173134803772,0,0,0.3822000026702881
0.693090317,0,0,1.580173134803772,0,0,0.8408399820327759
0.693421258,0,0,1.580173134803772,0,0,0.7644000053405762
0.693753347,0,0,1.6663644313812256,0,0,0.6879600286483765
0.694087861,0,0,1.6663644313812256,0,0,0.2293200045824051
0.694419117,0,0,1.6663644313812256,0,0,-0.611519992351532
0.694753298,0,0,1.6663644313812256,0,0,9.325679779052734
0.695089072,0,0,1.6663644313812256,0,0,0.7644000053405762
0.695419957,0,0,1.6663644313812256,0,0,0.6879600286483765
0.695753249,0,0,1.6663644313812256,0,0,0.6879600286483765
0.696090042,0,0,1.4772224426269531,0,0,0.5350799560546875
0.696419334,0,0,1.4772224426269531,0,0,0.9172800183296204
0.696753608,0,0,1.4772224426269531,0,0,0.9172800183296204
0.697090345,0,0,1.4772224426269531,0,0,0.8408399820327759
0.697428952,0,0,1.4772224426269531,0,0,1.070159912109375
0.697753392,0,0,1.3431471586227417,0,0,0.5350799560546875
0.698090518,0,0,1.3431471586227417,0,0,0.7644000053405762
0.69841994,0,0,1.3431471586227417,0,0,1.070159912109375
0.698753529,0,0,1.3431471586227417,0,0,1.452359914779663
0.699090617,0,0,1.3431471586227417,0,0,0.6879600286483765
0.699420465,0,0,1.3431471586227417,0,0,0.5350799560546875
0.699753536,0,0,1.3431471586227417,0,0,0.5350799560546875
0.700090346,0,0,1.4437036514282227,0,0,0.8408399820327759
0.700419361,0,0,1.4437036514282227,0,0,0.9937199950218201
0.700753524,0,0,1.4437036514282227,0,0,0.4586400091648102
0.701090464,0,0,1.4437036514282227,0,0,0.6879600286483765
0.701420423,0,0,1.4437036514282227,0,0,0.7644000053405762
0.701753549,0,0,1.4437036514282227,0,0,0.8408399820327759
