Time,AccelX1,AccelY1,AccelZ1,AccelX2,AccelY2,AccelZ2
0.000193017,0,0,1.3886369466781616,0,0,0.9172800183296204
0.00054346,0,0,1.3886369466781616,0,0,1.1466000080108643
0.00075844,0,0,1.3886369466781616,0,0,0.152879998087883
0.001113364,0,0,1.400607943534851,0,0,1.375920057296753
0.001424195,0,0,1.400607943534851,0,0,0.4586400091648102
0.001756027,0,0,1.400607943534851,0,0,0.7644000053405762
0.002413004,0,0,1.400607943534851,0,0,0.7644000053405762
0.002436523,0,0,1.400607943534851,0,0,1.070159912109375
0.002782298,0,0,1.400607943534851,0,0,1.375920057296753
0.0031115,0,0,1.400607943534851,0,0,0.152879998087883
0.003443498,0,0,1.4987702369689941,0,0,0.611519992351532
0.003807478,0,0,1.4987702369689941,0,0,0.8408399820327759
0.004092347,0,0,1.4987702369689941,0,0,0.611519992351532
0.0044344,0,0,1.4987702369689941,0,0,0.9172800183296204
0.004755398,0,0,1.4987702369689941,0,0,1.1466000080108643
0.005088433,0,0,1.4987702369689941,0,0,0.9172800183296204
0.005428617,0,0,1.4987702369689941,0,0,0.5350799560546875
0.005756707,0,0,1.5873557329177856,0,0,0.5350799560546875
0.006087465,0,0,1.5873557329177856,0,0,0.9937199950218201
0.006419426,0,0,1.5873557329177856,0,0,0.611519992351532
0.00675335,0,0,1.5873557329177856,0,0,0.7644000053405762
0.007091403,0,0,1.5873557329177856,0,0,0.8408399820327759
0.007419457,0,0,1.5873557329177856,0,0,0.9172800183296204
0.007769455,0,0,1.45806884765625,0,0,0.7644000053405762
0.00809149,0,0,1.45806884765625,0,0,0.7644000053405762
0.008420229,0,0,1.45806884765625,0,0,0.4586400091648102
0.00875356,0,0,1.45806884765625,0,0,1.1466000080108643
0.00909141,0,0,1.45806884765625,0,0,0.8408399820327759
0.009422501,0,0,1.45806884765625,0,0,0.5350799560546875
0.009753832,0,0,1.45806884765625,0,0,0.9172800183296204
0.010088053,0,0,1.556231141090393,0,0,0.9172800183296204
0.010423958,0,0,1.556231141090393,0,0,0.8408399820327759
0.010753771,0,0,1.556231141090393,0,0,1.452359914779663
0.011112047,0,0,1.556231141090393,0,0,0.2293200045824051
0.011428823,0,0,1.556231141090393,0,0,0
0.011793265,0,0,1.556231141090393,0,0,0.9937199950218201
0.012091949,0,0,1.556231141090393,0,0,0.7644000053405762
0.012428669,0,0,1.436521053314209,0,0,0.2293200045824051
0.012770371,0,0,1.436521053314209,0,0,2.06387996673584
0.013106721,0,0,1.436521053314209,0,0,1.2994799613952637
0.013436774,0,0,1.436521053314209,0,0,1.9874399900436401
0.013753976,0,0,1.436521053314209,0,0,0.5350799560546875
0.014086974,0,0,1.436521053314209,0,0,-0.9937199950218201
0.014419361,0,0,1.436521053314209,0,0,0
0.014753656,0,0,1.414973258972168,0,0,0.8408399820327759
0.015091487,0,0,1.414973258972168,0,0,0.6879600286483765
0.015419615,0,0,1.414973258972168,0,0,0.8408399820327759
0.015773446,0,0,1.414973258972168,0,0,0.9937199950218201
0.016091278,0,0,1.414973258972168,0,0,0.9937199950218201
0.016419387,0,0,1.414973258972168,0,0,0.9172800183296204
0.016753533,0,0,1.414973258972168,0,0,0.8408399820327759
0.017091031,0,0,1.3958195447921753,0,0,0.7644000053405762
0.017418937,0,0,1.3958195447921753,0,0,0.9172800183296204
0.01775362,0,0,1.3958195447921753,0,0,0.9172800183296204
0.018091136,0,0,1.3958195447921753,0,0,0.6879600286483765
0.018420783,0,0,1.3958195447921753,0,0,0.9172800183296204
0.018753336,0,0,1.3958195447921753,0,0,0.8408399820327759
0.01909152,0,0,1.3958195447921753,0,0,0.9937199950218201
0.019419277,0,0,1.314416766166687,0,0,0.7644000053405762
0.019766423,0,0,1.314416766166687,0,0,0.9172800183296204
0.020091569,0,0,1.314416766166687,0,0,1.070159912109375
0.020419808,0,0,1.314416766166687,0,0,0.611519992351532
0.020758732,0,0,1.314416766166687,0,0,0.8408399820327759
0.021091249,0,0,1.314416766166687,0,0,0.9937199950218201
0.021418821,0,0,1.314416766166687,0,0,0.4586400091648102
0.021774986,0,0,1.292868971824646,0,0,0.4586400091648102
0.022092873,0,0,1.292868971824646,0,0,0.5350799560546875
0.022421371,0,0,1.292868971824646,0,0,0.0764399990439415
0.022753517,0,0,1.292868971824646,0,0,0.9937199950218201
0.023088385,0,0,1.292868971824646,0,0,0.152879998087883
0.023418532,0,0,1.292868971824646,0,0,1.223039984703064
0.023765919,0,0,1.292868971824646,0,0,1.070159912109375
0.024090843,0,0,1.3934253454208374,0,0,0.152879998087883
0.024418804,0,0,1.3934253454208374,0,0,1.6816799640655518
0.024753579,0,0,1.3934253454208374,0,0,1.8345600366592407
0.025091078,0,0,1.3934253454208374,0,0,-0.611519992351532
0.025419539,0,0,1.3934253454208374,0,0,1.6816799640655518
0.025753537,0,0,1.3934253454208374,0,0,1.758120059967041
0.026090998,0,0,1.4460978507995605,0,0,1.1466000080108643
0.026418996,0,0,1.4460978507995605,0,0,0.9937199950218201
0.026753679,0,0,1.4460978507995605,0,0,1.070159912109375
0.027090881,0,0,1.4460978507995605,0,0,0.6879600286483765
0.02742036,0,0,1.4460978507995605,0,0,0.7644000053405762
0.027764747,0,0,1.4460978507995605,0,0,0.9172800183296204
0.028091431,0,0,1.4460978507995605,0,0,0.9937199950218201
0.028420003,0,0,1.5418659448623657,0,0,0.7644000053405762
0.028753353,0,0,1.5418659448623657,0,0,0.5350799560546875
0.029091147,0,0,1.5418659448623657,0,0,0.8408399820327759
0.029419127,0,0,1.5418659448623657,0,0,0.9937199950218201
0.02975368,0,0,1.5418659448623657,0,0,0.7644000053405762
0.030091401,0,0,1.5418659448623657,0,0,0.9937199950218201
0.030419214,0,0,1.5418659448623657,0,0,0.6879600286483765
0.030753563,0,0,1.5705963373184204,0,0,0.9937199950218201
0.031093432,0,0,1.5705963373184204,0,0,0.305759996175766
0.031427948,0,0,1.5705963373184204,0,0,0.4586400091648102
0.031774224,0,0,1.5705963373184204,0,0,0.9937199950218201
0.032453609,0,0,1.5705963373184204,0,0,0.9937199950218201
0.032476609,0,0,1.5705963373184204,0,0,0.6879600286483765
0.032757626,0,0,1.5705963373184204,0,0,0.9937199950218201
0.033090661,0,0,1.5059528350830078,0,0,0.9937199950218201
0.033419067,0,0,1.5059528350830078,0,0,0.4586400091648102
0.033753898,0,0,1.5059528350830078,0,0,0.152879998087883
0.034091285,0,0,1.5059528350830078,0,0,1.2994799613952637
0.034419024,0,0,1.5059528350830078,0,0,0.152879998087883
0.034753818,0,0,1.5059528350830078,0,0,0.4586400091648102
0.03509115,0,0,1.5059528350830078,0,0,2.06387996673584
0.035419185,0,0,1.6160861253738403,0,0,0.4586400091648102
0.035773757,0,0,1.6160861253738403,0,0,-0.611519992351532
0.036089996,0,0,1.6160861253738403,0,0,0
0.036421068,0,0,1.6160861253738403,0,0,-0.5350799560546875
0.036752455,0,0,1.6160861253738403,0,0,1.375920057296753
0.03708986,0,0,1.6160861253738403,0,0,0.9172800183296204
0.037419303,0,0,1.6160861253738403,0,0,1.223039984703064
0.03775256,0,0,1.3718775510787964,0,0,0.8408399820327759
0.038089058,0,0,1.3718775510787964,0,0,0.7644000053405762
0.038420371,0,0,1.3718775510787964,0,0,0.9172800183296204
0.038752017,0,0,1.3718775510787964,0,0,1.070159912109375
0.039089108,0,0,1.3718775510787964,0,0,0.9937199950218201
0.039419606,0,0,1.3718775510787964,0,0,0.611519992351532
0.039789548,0,0,1.3718775510787964,0,0,0.9172800183296204
0.040088362,0,0,1.292868971824646,0,0,1.1466000080108643
0.040418841,0,0,1.292868971824646,0,0,1.070159912109375
0.040753358,0,0,1.292868971824646,0,0,0.7644000053405762
0.041088541,0,0,1.292868971824646,0,0,0.7644000053405762
0.041428706,0,0,1.292868971824646,0,0,0.3822000026702881
0.041753371,0,0,1.292868971824646,0,0,0.9172800183296204
0.042090887,0,0,1.292868971824646,0,0,0.9172800183296204
0.042418941,0,0,1.3048399686813354,0,0,0.5350799560546875
0.042753346,0,0,1.3048399686813354,0,0,0.5350799560546875
0.043101752,0,0,1.3048399686813354,0,0,0.611519992351532
0.043431972,0,0,1.3048399686813354,0,0,0.6879600286483765
0.043766396,0,0,1.3048399686813354,0,0,0.305759996175766
0.044089635,0,0,1.3048399686813354,0,0,0.0764399990439415
0.044420077,0,0,1.3048399686813354,0,0,0.9172800183296204
0.04475339,0,0,1.2737152576446533,0,0,0.9172800183296204
0.045091074,0,0,1.2737152576446533,0,0,0.2293200045824051
0.045420386,0,0,1.2737152576446533,0,0,1.375920057296753
0.045753403,0,0,1.2737152576446533,0,0,1.452359914779663
0.046091123,0,0,1.2737152576446533,0,0,0.2293200045824051
0.046419195,0,0,1.2737152576446533,0,0,0.3822000026702881
0.046753545,0,0,1.2737152576446533,0,0,0.3822000026702881
0.04709084,0,0,1.2665326595306396,0,0,0.9937199950218201
0.04741906,0,0,1.2665326595306396,0,0,0.3822000026702881
0.047765225,0,0,1.2665326595306396,0,0,1.1466000080108643
0.048091223,0,0,1.2665326595306396,0,0,2.3696401119232178
0.048419925,0,0,1.2665326595306396,0,0,1.1466000080108643
0.048753645,0,0,1.2665326595306396,0,0,0.611519992351532
0.04909118,0,0,1.2665326595306396,0,0,1.070159912109375
0.04965414,0,0,1.3670891523361206,0,0,1.758120059967041
0.049760398,0,0,1.3670891523361206,0,0,0.6879600286483765
0.050093063,0,0,1.3670891523361206,0,0,0.9172800183296204
0.050420358,0,0,1.3670891523361206,0,0,0.5350799560546875
0.050758319,0,0,1.3670891523361206,0,0,1.1466000080108643
0.051086298,0,0,1.3670891523361206,0,0,1.223039984703064
0.051420482,0,0,1.3670891523361206,0,0,0.8408399820327759
0.051775479,0,0,1.4437036514282227,0,0,1.1466000080108643
0.052102033,0,0,1.4437036514282227,0,0,0.6879600286483765
0.052420235,0,0,1.4437036514282227,0,0,1.1466000080108643
0.052757789,0,0,1.4437036514282227,0,0,0.9172800183296204
0.053086157,0,0,1.4437036514282227,0,0,0.5350799560546875
0.0534201,0,0,1.4437036514282227,0,0,1.070159912109375
0.053757801,0,0,1.4437036514282227,0,0,1.223039984703064
0.054085725,0,0,1.6112977266311646,0,0,0.9937199950218201
0.05442039,0,0,1.6112977266311646,0,0,0.6879600286483765
0.054757814,0,0,1.6112977266311646,0,0,0.9172800183296204
0.055086034,0,0,1.6112977266311646,0,0,0.5350799560546875
0.05541994,0,0,1.6112977266311646,0,0,0.2293200045824051
0.055767012,0,0,1.6112977266311646,0,0,0.2293200045824051
0.056096455,0,0,1.6112977266311646,0,0,0.2293200045824051
0.056420064,0,0,1.5969325304031372,0,0,0.2293200045824051
0.056754988,0,0,1.5969325304031372,0,0,0.611519992351532
0.057085227,0,0,1.5969325304031372,0,0,1.452359914779663
0.057419965,0,0,1.5969325304031372,0,0,1.070159912109375
0.057757964,0,0,1.5969325304031372,0,0,0.152879998087883
0.05808611,0,0,1.5969325304031372,0,0,1.8345600366592407
0.058420015,0,0,1.5969325304031372,0,0,1.070159912109375
0.058757939,0,0,1.4939818382263184,0,0,-0.8408399820327759
0.059087586,0,0,1.4939818382263184,0,0,2.446079969406128
0.059420232,0,0,1.4939818382263184,0,0,1.1466000080108643
0.059768267,0,0,1.4939818382263184,0,0,0.7644000053405762
0.060087913,0,0,1.4939818382263184,0,0,0.6879600286483765
0.060419041,0,0,1.4939818382263184,0,0,0.9172800183296204
0.060753502,0,0,1.4939818382263184,0,0,0.6879600286483765
0.06108587,0,0,1.5849615335464478,0,0,0.7644000053405762
0.061418813,0,0,1.5849615335464478,0,0,0.9937199950218201
0.061757274,0,0,1.5849615335464478,0,0,1.2994799613952637
0.06208805,0,0,1.5849615335464478,0,0,0.5350799560546875
0.062418918,0,0,1.5849615335464478,0,0,0.4586400091648102
0.06275412,0,0,1.5849615335464478,0,0,0.5350799560546875
0.063086044,0,0,1.5849615335464478,0,0,0.6879600286483765
0.063422227,0,0,1.3886369466781616,0,0,1.2994799613952637
0.063759262,0,0,1.3886369466781616,0,0,0.7644000053405762
0.06408626,0,0,1.3886369466781616,0,0,0.611519992351532
0.064454703,0,0,1.3886369466781616,0,0,0.5350799560546875
0.06475322,0,0,1.3886369466781616,0,0,0.9937199950218201
0.065086051,0,0,1.3886369466781616,0,0,0.9937199950218201
0.065419642,0,0,1.3886369466781616,0,0,0.6879600286483765
0.065751936,0,0,1.3120225667953491,0,0,0.9172800183296204
0.066091749,0,0,1.3120225667953491,0,0,0.7644000053405762
0.066418654,0,0,1.3120225667953491,0,0,0.9172800183296204
0.066751949,0,0,1.3120225667953491,0,0,0.9172800183296204
0.067115669,0,0,1.3120225667953491,0,0,0.9172800183296204
0.067423056,0,0,1.3120225667953491,0,0,1.2994799613952637
0.067779461,0,0,1.3120225667953491,0,0,1.758120059967041
0.068112941,0,0,1.3694833517074585,0,0,0.9172800183296204
0.068436735,0,0,1.3694833517074585,0,0,0.6879600286483765
0.068755974,0,0,1.3694833517074585,0,0,1.375920057296753
0.069085583,0,0,1.3694833517074585,0,0,0.2293200045824051
0.069423026,0,0,1.3694833517074585,0,0,1.452359914779663
0.06975232,0,0,1.3694833517074585,0,0,0
0.070085337,0,0,1.3694833517074585,0,0,0
0.070421094,0,0,1.3646949529647827,0,0,0
0.070752278,0,0,1.3646949529647827,0,0,0.8408399820327759
0.071085387,0,0,1.3646949529647827,0,0,1.070159912109375
0.071418792,0,0,1.3646949529647827,0,0,0.9172800183296204
0.071775698,0,0,1.3646949529647827,0,0,0.6879600286483765
0.072088677,0,0,1.3646949529647827,0,0,0.9172800183296204
0.072423916,0,0,1.3646949529647827,0,0,0.9937199950218201
0.072752433,0,0,1.335964560508728,0,0,0.9937199950218201
0.073087579,0,0,1.335964560508728,0,0,1.070159912109375
0.073419262,0,0,1.335964560508728,0,0,1.1466000080108643
0.073752408,0,0,1.335964560508728,0,0,1.1466000080108643
0.074085481,0,0,1.335964560508728,0,0,0.611519992351532
0.074420997,0,0,1.45806884765625,0,0,0.9172800183296204
0.074752014,0,0,1.45806884765625,0,0,0.6879600286483765
0.075086549,0,0,1.45806884765625,0,0,0.5350799560546875
0.075418843,0,0,1.45806884765625,0,0,0.9172800183296204
0.07576386,0,0,1.45806884765625,0,0,0.9172800183296204
0.076090691,0,0,1.45806884765625,0,0,0.9937199950218201
0.076418634,0,0,1.45806884765625,0,0,0.305759996175766
0.076752521,0,0,1.5059528350830078,0,0,0.305759996175766
0.077087574,0,0,1.5059528350830078,0,0,0.9172800183296204
0.077418832,0,0,1.5059528350830078,0,0,0.305759996175766
0.077752237,0,0,1.5059528350830078,0,0,0.3822000026702881
0.078088754,0,0,1.5059528350830078,0,0,0.6879600286483765
0.078418845,0,0,1.5059528350830078,0,0,1.452359914779663
0.078756232,0,0,1.5059528350830078,0,0,0.305759996175766
0.079085378,0,0,1.4748282432556152,0,0,0.6879600286483765
0.079418709,0,0,1.4748282432556152,0,0,0.9172800183296204
0.079765596,0,0,1.4748282432556152,0,0,1.1466000080108643
0.080085353,0,0,1.4748282432556152,0,0,1.6816799640655518
0.080420703,0,0,1.4748282432556152,0,0,1.605239987373352
0.080752294,0,0,1.4748282432556152,0,0,1.8345600366592407
0.081085237,0,0,1.4748282432556152,0,0,0.305759996175766
0.081423809,0,0,1.5490485429763794,0,0,1.1466000080108643
0.081751936,0,0,1.5490485429763794,0,0,0.6879600286483765
0.082085435,0,0,1.5490485429763794,0,0,0.7644000053405762
0.082585506,0,0,1.5490485429763794,0,0,0.8408399820327759
0.082758246,0,0,1.5490485429763794,0,0,0.8408399820327759
0.083087299,0,0,1.5490485429763794,0,0,0.7644000053405762
0.083419668,0,0,1.5490485429763794,0,0,1.1466000080108643
0.083768832,0,0,1.5849615335464478,0,0,0.9172800183296204
0.084092256,0,0,1.5849615335464478,0,0,0.9937199950218201
0.084419458,0,0,1.5849615335464478,0,0,0.8408399820327759
0.084752401,0,0,1.5849615335464478,0,0,0.8408399820327759
0.08508788,0,0,1.5849615335464478,0,0,0.9172800183296204
0.085418952,0,0,1.5849615335464478,0,0,0.6879600286483765
0.08578208,0,0,1.5849615335464478,0,0,1.1466000080108643
0.086087245,0,0,1.6160861253738403,0,0,0.7644000053405762
0.086419095,0,0,1.6160861253738403,0,0,0.9937199950218201
0.086756389,0,0,1.6160861253738403,0,0,0.611519992351532
0.087086035,0,0,1.6160861253738403,0,0,0.9937199950218201
0.087419145,0,0,1.6160861253738403,0,0,0.7644000053405762
0.087764383,0,0,1.6160861253738403,0,0,0.611519992351532
0.088086178,0,0,1.6160861253738403,0,0,0.6879600286483765
0.088424843,0,0,1.359906554222107,0,0,0.9172800183296204
0.088752433,0,0,1.359906554222107,0,0,0.6879600286483765
0.089085505,0,0,1.359906554222107,0,0,0.8408399820327759
0.0894208,0,0,1.359906554222107,0,0,0.611519992351532
0.089752242,0,0,1.359906554222107,0,0,0.5350799560546875
0.090085777,0,0,1.359906554222107,0,0,0
0.090419516,0,0,1.359906554222107,0,0,0.5350799560546875
0.090752274,0,0,1.3311761617660522,0,0,0
0.091088401,0,0,1.3311761617660522,0,0,-0.2293200045824051
0.091419418,0,0,1.3311761617660522,0,0,0.0764399990439415
0.09176262,0,0,1.3311761617660522,0,0,1.1466000080108643
0.092087951,0,0,1.3311761617660522,0,0,0
0.092419375,0,0,1.3311761617660522,0,0,1.8345600366592407
0.092755466,0,0,1.3311761617660522,0,0,1.1466000080108643
0.093088353,0,0,1.3048399686813354,0,0,1.452359914779663
0.093419554,0,0,1.3048399686813354,0,0,0.611519992351532
0.093757478,0,0,1.3048399686813354,0,0,0.6879600286483765
0.094085828,0,0,1.3048399686813354,0,0,0.9172800183296204
0.094419382,0,0,1.3048399686813354,0,0,0.9937199950218201
0.094753991,0,0,1.3048399686813354,0,0,0.9172800183296204
0.095085637,0,0,1.3048399686813354,0,0,0.8408399820327759
0.095422543,0,0,1.2186486721038818,0,0,0.9937199950218201
0.095762615,0,0,1.2186486721038818,0,0,0.6879600286483765
0.096085891,0,0,1.2186486721038818,0,0,0.8408399820327759
0.0964225,0,0,1.2186486721038818,0,0,0.9172800183296204
0.096752702,0,0,1.2186486721038818,0,0,0.7644000053405762
0.097085533,0,0,1.2186486721038818,0,0,0.6879600286483765
0.097419624,0,0,1.2186486721038818,0,0,0.5350799560546875
0.097752493,0,0,1.259350061416626,0,0,0.4586400091648102
0.09809125,0,0,1.259350061416626,0,0,0.5350799560546875
0.098419044,0,0,1.259350061416626,0,0,0.611519992351532
0.098752709,0,0,1.259350061416626,0,0,0.4586400091648102
0.099087614,0,0,1.259350061416626,0,0,0.3822000026702881
0.099418983,0,0,1.259350061416626,0,0,1.2994799613952637
0.099762592,0,0,1.259350061416626,0,0,1.1466000080108643
0.100086701,0,0,1.4652514457702637,0,0,1.2994799613952637
0.100424385,0,0,1.4652514457702637,0,0,0.4586400091648102
0.100752697,0,0,1.4652514457702637,0,0,0.9937199950218201
0.101085529,0,0,1.4652514457702637,0,0,1.1466000080108643
0.101420842,0,0,1.4652514457702637,0,0,1.1466000080108643
0.101752581,0,0,1.4652514457702637,0,0,1.223039984703064
0.102089153,0,0,1.4652514457702637,0,0,1.1466000080108643
0.10241904,0,0,1.6065093278884888,0,0,0.7644000053405762
0.102752204,0,0,1.6065093278884888,0,0,0.3822000026702881
0.103091054,0,0,1.6065093278884888,0,0,1.223039984703064
0.10342133,0,0,1.6065093278884888,0,0,0.611519992351532
0.103766865,0,0,1.6065093278884888,0,0,0.7644000053405762
0.104086919,0,0,1.6065093278884888,0,0,0.3822000026702881
0.104417806,0,0,1.6065093278884888,0,0,0.9172800183296204
0.104754026,0,0,1.6208745241165161,0,0,0.9172800183296204
0.105084784,0,0,1.6208745241165161,0,0,0.9172800183296204
0.105417745,0,0,1.6208745241165161,0,0,0.611519992351532
0.10575178,0,0,1.6208745241165161,0,0,0.6879600286483765
0.106084759,0,0,1.6208745241165161,0,0,0.9172800183296204
0.106420943,0,0,1.6208745241165161,0,0,0.7644000053405762
0.106751126,0,0,1.6208745241165161,0,0,0.7644000053405762
0.107084568,0,0,1.4437036514282227,0,0,1.070159912109375
0.107417604,0,0,1.4437036514282227,0,0,0.9172800183296204
0.107763676,0,0,1.4437036514282227,0,0,0.9937199950218201
0.108091155,0,0,1.4437036514282227,0,0,0.7644000053405762
0.108419116,0,0,1.4437036514282227,0,0,0.8408399820327759
0.108752466,0,0,1.4437036514282227,0,0,0.8408399820327759
0.109089724,0,0,1.4437036514282227,0,0,0.6879600286483765
0.109418907,0,0,1.5897499322891235,0,0,0.6879600286483765
0.109752349,0,0,1.5897499322891235,0,0,0.7644000053405762
0.110086366,0,0,1.5897499322891235,0,0,0.9172800183296204
0.110418975,0,0,1.5897499322891235,0,0,0.611519992351532
0.110784769,0,0,1.5897499322891235,0,0,0.5350799560546875
0.111085731,0,0,1.5897499322891235,0,0,0.8408399820327759
0.11141934,0,0,1.5897499322891235,0,0,0.4586400091648102
0.111765301,0,0,1.5107412338256836,0,0,0
0.112085632,0,0,1.5107412338256836,0,0,0
0.112422852,0,0,1.5107412338256836,0,0,0.5350799560546875
0.112754184,0,0,1.5107412338256836,0,0,0.4586400091648102
0.113085478,0,0,1.5107412338256836,0,0,1.223039984703064
0.113421402,0,0,1.3096283674240112,0,0,0.0764399990439415
0.113754919,0,0,1.3096283674240112,0,0,1.1466000080108643
0.114085787,0,0,1.3096283674240112,0,0,1.2994799613952637
0.114419452,0,0,1.3096283674240112,0,0,1.070159912109375
0.114752265,0,0,1.3096283674240112,0,0,1.9109998941421509
0.115088856,0,0,1.3096283674240112,0,0,0.611519992351532
0.115419261,0,0,1.3096283674240112,0,0,2.3696401119232178
0.115762685,0,0,1.3215993642807007,0,0,0.8408399820327759
0.116088017,0,0,1.3215993642807007,0,0,1.223039984703064
0.116419404,0,0,1.3215993642807007,0,0,0.9172800183296204
0.116755642,0,0,1.3215993642807007,0,0,0.6879600286483765
0.117085826,0,0,1.3215993642807007,0,0,0.9937199950218201
0.117419064,0,0,1.3215993642807007,0,0,0.9172800183296204
0.117757766,0,0,1.3215993642807007,0,0,0.9172800183296204
0.118085764,0,0,1.4269442558288574,0,0,0.4586400091648102
0.118418948,0,0,1.4269442558288574,0,0,0.5350799560546875
0.118754427,0,0,1.4269442558288574,0,0,0.9172800183296204
0.119085499,0,0,1.4269442558288574,0,0,0.5350799560546875
0.119422646,0,0,1.4269442558288574,0,0,0.5350799560546875
0.119764792,0,0,1.4269442558288574,0,0,0.5350799560546875
0.120085956,0,0,1.4269442558288574,0,0,0.8408399820327759
0.120423825,0,0,1.4245500564575195,0,0,0.5350799560546875
0.120752508,0,0,1.4245500564575195,0,0,0.6879600286483765
0.121085673,0,0,1.4245500564575195,0,0,0.7644000053405762
0.121427208,0,0,1.4245500564575195,0,0,1.452359914779663
0.121752928,0,0,1.4245500564575195,0,0,1.223039984703064
0.122091093,0,0,1.4245500564575195,0,0,0.2293200045824051
0.122418776,0,0,1.4245500564575195,0,0,0.9172800183296204
0.122752441,0,0,1.4269442558288574,0,0,1.223039984703064
0.123088476,0,0,1.4269442558288574,0,0,1.758120059967041
0.123421863,0,0,1.4269442558288574,0,0,0.8408399820327759
0.123778528,0,0,1.4269442558288574,0,0,0.152879998087883
0.124098285,0,0,1.4269442558288574,0,0,0.4586400091648102
0.124419765,0,0,1.4269442558288574,0,0,0.9937199950218201
0.124756596,0,0,1.4269442558288574,0,0,1.452359914779663
0.125085854,0,0,1.3934253454208374,0,0,0.6879600286483765
0.125634221,0,0,1.3934253454208374,0,0,1.8345600366592407
0.125762387,0,0,1.3934253454208374,0,0,0.4586400091648102
0.126086644,0,0,1.3934253454208374,0,0,0.2293200045824051
0.12642092,0,0,1.3934253454208374,0,0,0.5350799560546875
0.126752437,0,0,1.3934253454208374,0,0,0.9937199950218201
0.127089638,0,0,1.3934253454208374,0,0,0.8408399820327759
0.127419118,0,0,1.5131354331970215,0,0,0.7644000053405762
0.12777432,0,0,1.5131354331970215,0,0,0.7644000053405762
0.128091059,0,0,1.5131354331970215,0,0,0.9172800183296204
0.128419038,0,0,1.5131354331970215,0,0,0.6879600286483765
0.12875237,0,0,1.5131354331970215,0,0,0.5350799560546875
0.129086794,0,0,1.5131354331970215,0,0,0.9172800183296204
0.129418921,0,0,1.5131354331970215,0,0,1.1466000080108643
0.129753456,0,0,1.5418659448623657,0,0,0.9172800183296204
0.130086084,0,0,1.5418659448623657,0,0,0.9172800183296204
0.130418916,0,0,1.5418659448623657,0,0,0.6879600286483765
0.130757506,0,0,1.5418659448623657,0,0,0.611519992351532
0.131086004,0,0,1.5418659448623657,0,0,0.9937199950218201
0.131418984,0,0,1.5418659448623657,0,0,0.8408399820327759
0.131767223,0,0,1.5418659448623657,0,0,0.9937199950218201
0.13208585,0,0,1.4987702369689941,0,0,0.9172800183296204
0.132422348,0,0,1.4987702369689941,0,0,1.1466000080108643
0.132752495,0,0,1.4987702369689941,0,0,0.9937199950218201
0.133199455,0,0,1.4987702369689941,0,0,0.2293200045824051
0.133429546,0,0,1.4987702369689941,0,0,0.152879998087883
0.133756267,0,0,1.4987702369689941,0,0,1.1466000080108643
0.134086043,0,0,1.4987702369689941,0,0,0.5350799560546875
0.134427726,0,0,1.5610195398330688,0,0,0.2293200045824051
0.134756983,0,0,1.5610195398330688,0,0,0.6879600286483765
0.135104148,0,0,1.5610195398330688,0,0,0.7644000053405762
0.13542135,0,0,1.5610195398330688,0,0,0
0.13581657,0,0,1.5610195398330688,0,0,0.8408399820327759
0.136088679,0,0,1.5610195398330688,0,0,0
0.136419455,0,0,1.5610195398330688,0,0,1.5288000106811523
0.136752916,0,0,1.5155296325683594,0,0,1.1466000080108643
0.137085673,0,0,1.5155296325683594,0,0,1.223039984703064
0.137419375,0,0,1.5155296325683594,0,0,1.375920057296753
0.137758021,0,0,1.5155296325683594,0,0,0.9937199950218201
0.138085742,0,0,1.5155296325683594,0,0,0.8408399820327759
0.138419351,0,0,1.5155296325683594,0,0,0.611519992351532
0.138754201,0,0,1.5155296325683594,0,0,0.8408399820327759
0.139085606,0,0,1.3982137441635132,0,0,0.9172800183296204
0.139421049,0,0,1.3982137441635132,0,0,0.7644000053405762
0.139764769,0,0,1.3982137441635132,0,0,0.7644000053405762
0.140085841,0,0,1.3982137441635132,0,0,0.8408399820327759
0.14042458,0,0,1.3982137441635132,0,0,1.1466000080108643
0.140752689,0,0,1.3982137441635132,0,0,0.9172800183296204
0.141085706,0,0,1.3982137441635132,0,0,0.6879600286483765
0.141420686,0,0,1.37906014919281,0,0,0.5350799560546875
0.141752702,0,0,1.37906014919281,0,0,0.5350799560546875
0.14208883,0,0,1.37906014919281,0,0,0.4586400091648102
0.142418939,0,0,1.37906014919281,0,0,0.611519992351532
0.142764956,0,0,1.37906014919281,0,0,0.611519992351532
0.14309125,0,0,1.37906014919281,0,0,1.223039984703064
0.143419007,0,0,1.37906014919281,0,0,1.1466000080108643
0.143767857,0,0,1.3838485479354858,0,0,0.8408399820327759
0.144094337,0,0,1.3838485479354858,0,0,0.7644000053405762
0.144426261,0,0,1.3838485479354858,0,0,0.5350799560546875
0.144756722,0,0,1.3838485479354858,0,0,0.9937199950218201
0.14508472,0,0,1.3838485479354858,0,0,1.375920057296753
0.145420477,0,0,1.3838485479354858,0,0,1.5288000106811523
0.145751327,0,0,1.3838485479354858,0,0,0.9937199950218201
0.146084233,0,0,1.3838485479354858,0,0,0.5350799560546875
0.146418435,0,0,1.3311761617660522,0,0,0.8408399820327759
0.146750896,0,0,1.3311761617660522,0,0,0.611519992351532
0.147090597,0,0,1.3311761617660522,0,0,1.8345600366592407
0.147417725,0,0,1.3311761617660522,0,0,0.7644000053405762
0.147769205,0,0,1.3311761617660522,0,0,1.605239987373352
0.148089795,0,0,1.3311761617660522,0,0,2.06387996673584
0.148419127,0,0,1.3311761617660522,0,0,1.375920057296753
0.148752403,0,0,1.4676456451416016,0,0,9.402119636535645
0.149086975,0,0,1.4676456451416016,0,0,0.9172800183296204
0.149418751,0,0,1.4676456451416016,0,0,0.6879600286483765
0.149758693,0,0,1.4676456451416016,0,0,0.8408399820327759
0.150085895,0,0,1.4676456451416016,0,0,0.611519992351532
0.150418856,0,0,1.4676456451416016,0,0,0.8408399820327759
0.150754391,0,0,1.4676456451416016,0,0,0.6879600286483765
0.151086019,0,0,1.482010841369629,0,0,1.070159912109375
0.151418906,0,0,1.482010841369629,0,0,0.9937199950218201
0.15176233,0,0,1.482010841369629,0,0,0.6879600286483765
0.152086217,0,0,1.482010841369629,0,0,0.6879600286483765
0.152423974,0,0,1.482010841369629,0,0,0.9172800183296204
0.152752435,0,0,1.482010841369629,0,0,1.1466000080108643
0.153085452,0,0,1.482010841369629,0,0,0.9172800183296204
0.153420561,0,0,1.6304513216018677,0,0,0.7644000053405762
0.1537523,0,0,1.6304513216018677,0,0,0.9937199950218201
0.154085427,0,0,1.6304513216018677,0,0,1.070159912109375
0.154419685,0,0,1.6304513216018677,0,0,1.070159912109375
0.154751998,0,0,1.6304513216018677,0,0,0.3822000026702881
0.155091366,0,0,1.6304513216018677,0,0,0.2293200045824051
0.155419457,0,0,1.6424223184585571,0,0,0.9172800183296204
0.155762696,0,0,1.6424223184585571,0,0,0.7644000053405762
0.156088046,0,0,1.6424223184585571,0,0,0.611519992351532
0.156419507,0,0,1.6424223184585571,0,0,0.2293200045824051
0.156752301,0,0,1.6424223184585571,0,0,0.305759996175766
0.157086429,0,0,1.4700398445129395,0,0,0.305759996175766
0.157419371,0,0,1.4700398445129395,0,0,0
0.157758258,0,0,1.4700398445129395,0,0,0.8408399820327759
0.158085775,0,0,1.4700398445129395,0,0,1.452359914779663
0.158419402,0,0,1.4700398445129395,0,0,1.2994799613952637
0.158755123,0,0,1.4700398445129395,0,0,0
0.159087139,0,0,1.4700398445129395,0,0,1.1466000080108643
0.159419674,0,0,1.4700398445129395,0,0,1.375920057296753
0.159773302,0,0,1.5514427423477173,0,0,1.452359914779663
0.160088967,0,0,1.5514427423477173,0,0,0.152879998087883
0.160426446,0,0,1.5514427423477173,0,0,0.9937199950218201
0.160753667,0,0,1.5514427423477173,0,0,1.070159912109375
0.161086257,0,0,1.5514427423477173,0,0,0.5350799560546875
0.1614297,0,0,1.5514427423477173,0,0,0.9172800183296204
0.161765605,0,0,1.5514427423477173,0,0,1.070159912109375
0.162090585,0,0,1.403002142906189,0,0,1.1466000080108643
0.162438268,0,0,1.403002142906189,0,0,0.7644000053405762
0.162754007,0,0,1.403002142906189,0,0,0.6879600286483765
0.163099987,0,0,1.403002142906189,0,0,0.4586400091648102
0.163429651,0,0,1.403002142906189,0,0,0.4586400091648102
0.163791742,0,0,1.403002142906189,0,0,0.3822000026702881
0.164107499,0,0,1.403002142906189,0,0,0.611519992351532
0.164437738,0,0,1.2880805730819702,0,0,1.1466000080108643
0.164756866,0,0,1.2880805730819702,0,0,0.9172800183296204
0.165088586,0,0,1.2880805730819702,0,0,0.5350799560546875
0.165431584,0,0,1.2880805730819702,0,0,0
0.165758323,0,0,1.2880805730819702,0,0,0.4586400091648102
0.16628195,0,0,1.2880805730819702,0,0,0.3822000026702881
0.166443356,0,0,1.2880805730819702,0,0,0.8408399820327759
0.166768317,0,0,1.4724340438842773,0,0,0.6879600286483765
0.167105556,0,0,1.4724340438842773,0,0,1.375920057296753
0.167436776,0,0,1.4724340438842773,0,0,0.8408399820327759
0.167782441,0,0,1.4724340438842773,0,0,0.8408399820327759
0.168092162,0,0,1.4724340438842773,0,0,1.2994799613952637
0.168432808,0,0,1.4724340438842773,0,0,0.9937199950218201
0.168761213,0,0,1.4724340438842773,0,0,1.1466000080108643
0.1690926,0,0,1.290474772453308,0,0,0.611519992351532
0.169421172,0,0,1.290474772453308,0,0,0.152879998087883
0.169753689,0,0,1.290474772453308,0,0,0.611519992351532
0.170087687,0,0,1.290474772453308,0,0,0.8408399820327759
0.170423778,0,0,1.290474772453308,0,0,1.605239987373352
0.170753591,0,0,1.290474772453308,0,0,-0.7644000053405762
0.171126292,0,0,1.290474772453308,0,0,9.402119636535645
0.171425716,0,0,1.256955862045288,0,0,0.5350799560546875
0.171777474,0,0,1.256955862045288,0,0,0.5350799560546875
0.172085842,0,0,1.256955862045288,0,0,0.6879600286483765
0.172422748,0,0,1.256955862045288,0,0,0.7644000053405762
0.17275195,0,0,1.256955862045288,0,0,0.9172800183296204
0.173085374,0,0,1.256955862045288,0,0,0.6879600286483765
0.173422223,0,0,1.256955862045288,0,0,0.7644000053405762
0.173753203,0,0,1.3455413579940796,0,0,0.7644000053405762
0.174085886,0,0,1.3455413579940796,0,0,0.9937199950218201
0.174422162,0,0,1.3455413579940796,0,0,0.6879600286483765
0.17475166,0,0,1.3455413579940796,0,0,0.305759996175766
0.175085362,0,0,1.3455413579940796,0,0,0.5350799560546875
0.17542236,0,0,1.3455413579940796,0,0,1.2994799613952637
0.175772099,0,0,1.3455413579940796,0,0,1.223039984703064
0.176166541,0,0,1.4413094520568848,0,0,0.4586400091648102
0.176437799,0,0,1.4413094520568848,0,0,0
0.176753741,0,0,1.4413094520568848,0,0,0.305759996175766
0.177092184,0,0,1.4413094520568848,0,0,0.5350799560546875
0.177420237,0,0,1.4413094520568848,0,0,0.305759996175766
0.177753661,0,0,1.4413094520568848,0,0,0.305759996175766
0.178091345,0,0,1.4413094520568848,0,0,0.8408399820327759
0.17842475,0,0,1.558625340461731,0,0,1.1466000080108643
0.178753971,0,0,1.558625340461731,0,0,0.305759996175766
0.179092246,0,0,1.558625340461731,0,0,0.4586400091648102
0.17942417,0,0,1.558625340461731,0,0,0.7644000053405762
0.179769854,0,0,1.558625340461731,0,0,0.9937199950218201
0.180092037,0,0,1.558625340461731,0,0,1.2994799613952637
0.180419998,0,0,1.558625340461731,0,0,1.452359914779663
0.180753459,0,0,1.6160861253738403,0,0,1.6816799640655518
0.18109142,0,0,1.6160861253738403,0,0,0.152879998087883
0.181419992,0,0,1.6160861253738403,0,0,1.6816799640655518
0.181753824,0,0,1.6160861253738403,0,0,1.452359914779663
0.182091525,0,0,1.6160861253738403,0,0,1.2994799613952637
0.182419505,0,0,1.6160861253738403,0,0,0.305759996175766
0.182753707,0,0,1.6160861253738403,0,0,0.5350799560546875
0.18309126,0,0,1.5490485429763794,0,0,0.8408399820327759
0.183419518,0,0,1.5490485429763794,0,0,0.9172800183296204
0.183761219,0,0,1.5490485429763794,0,0,0.9172800183296204
0.184087884,0,0,1.5490485429763794,0,0,0.9937199950218201
0.184418271,0,0,1.5490485429763794,0,0,0.5350799560546875
0.184753621,0,0,1.5490485429763794,0,0,0.152879998087883
0.185090897,0,0,1.5490485429763794,0,0,0.6879600286483765
0.185419025,0,0,1.5490485429763794,0,0,0.6879600286483765
0.185753615,0,0,1.525106430053711,0,0,0.7644000053405762
0.186093984,0,0,1.525106430053711,0,0,0.9172800183296204
0.186423741,0,0,1.525106430053711,0,0,0.9172800183296204
0.186753758,0,0,1.525106430053711,0,0,1.223039984703064
0.187092108,0,0,1.525106430053711,0,0,0.3822000026702881
0.187419032,0,0,1.525106430053711,0,0,0.305759996175766
0.187764215,0,0,1.525106430053711,0,0,0.611519992351532
0.188091935,0,0,1.4724340438842773,0,0,0.8408399820327759
0.188420211,0,0,1.4724340438842773,0,0,0.9172800183296204
0.188753931,0,0,1.4724340438842773,0,0,1.223039984703064
0.189091393,0,0,1.4724340438842773,0,0,1.070159912109375
0.189419354,0,0,1.4724340438842773,0,0,0.9937199950218201
0.189753574,0,0,1.4724340438842773,0,0,0.4586400091648102
0.190130849,0,0,1.4724340438842773,0,0,0.6879600286483765
0.190431033,0,0,1.3838485479354858,0,0,1.2994799613952637
0.190766605,0,0,1.3838485479354858,0,0,0.8408399820327759
0.191095029,0,0,1.3838485479354858,0,0,0.9937199950218201
0.191429823,0,0,1.3838485479354858,0,0,0
0.191788895,0,0,1.3838485479354858,0,0,0
0.192091134,0,0,1.3838485479354858,0,0,0
0.192423984,0,0,1.3838485479354858,0,0,0.6879600286483765
0.192756353,0,0,1.3766659498214722,0,0,-0.2293200045824051
0.193095462,0,0,1.3766659498214722,0,0,2.14031982421875
0.19342996,0,0,1.3766659498214722,0,0,2.446079969406128
0.193756069,0,0,1.3766659498214722,0,0,0.6879600286483765
0.194096197,0,0,1.3766659498214722,0,0,0.611519992351532
0.194430788,0,0,1.3766659498214722,0,0,0.8408399820327759
0.194756138,0,0,1.3766659498214722,0,0,0.6879600286483765
0.195089117,0,0,1.2880805730819702,0,0,0.9172800183296204
0.195420634,0,0,1.2880805730819702,0,0,0.9172800183296204
0.19578265,0,0,1.2880805730819702,0,0,0.8408399820327759
0.196095723,0,0,1.2880805730819702,0,0,0.6879600286483765
0.196436739,0,0,1.2880805730819702,0,0,0.5350799560546875
0.196756571,0,0,1.2880805730819702,0,0,0.7644000053405762
0.197093809,0,0,1.2880805730819702,0,0,1.070159912109375
0.197428678,0,0,1.292868971824646,0,0,1.1466000080108643
0.197755898,0,0,1.292868971824646,0,0,0.5350799560546875
0.198092952,0,0,1.292868971824646,0,0,0.4586400091648102
0.19842545,0,0,1.292868971824646,0,0,0.4586400091648102
0.198763281,0,0,1.292868971824646,0,0,0.7644000053405762
0.199095742,0,0,1.292868971824646,0,0,0.8408399820327759
0.199436592,0,0,1.292868971824646,0,0,0.6879600286483765
0.199784738,0,0,1.292868971824646,0,0,1.070159912109375
0.200093477,0,0,1.292868971824646,0,0,0.611519992351532
0.200428031,0,0,1.292868971824646,0,0,0.3822000026702881
0.200757066,0,0,1.292868971824646,0,0,0.2293200045824051
0.201094157,0,0,1.292868971824646,0,0,0.7644000053405762
0.201459284,0,0,1.292868971824646,0,0,0.5350799560546875
0.201755486,0,0,1.292868971824646,0,0,0.7644000053405762
0.202089077,0,0,1.4077905416488647,0,0,1.2994799613952637
0.202440019,0,0,1.4077905416488647,0,0,0.5350799560546875
0.202756499,0,0,1.4077905416488647,0,0,1.9109998941421509
0.20309683,0,0,1.4077905416488647,0,0,0.9937199950218201
0.203433088,0,0,1.4077905416488647,0,0,1.758120059967041
0.203786623,0,0,1.4077905416488647,0,0,1.1466000080108643
0.204091899,0,0,1.4077905416488647,0,0,0.4586400091648102
0.204426638,0,0,1.4077905416488647,0,0,1.1466000080108643
0.204756099,0,0,1.5466543436050415,0,0,0.5350799560546875
0.205093504,0,0,1.5466543436050415,0,0,0.6879600286483765
0.205424743,0,0,1.5466543436050415,0,0,0.9172800183296204
0.205756445,0,0,1.5466543436050415,0,0,0.6879600286483765
0.206309534,0,0,1.5466543436050415,0,0,1.2994799613952637
0.206426552,0,0,1.5466543436050415,0,0,0.4586400091648102
0.206770698,0,0,1.5466543436050415,0,0,0.9172800183296204
0.207103141,0,0,1.482010841369629,0,0,0.611519992351532
0.207581212,0,0,1.482010841369629,0,0,1.223039984703064
0.207784544,0,0,1.482010841369629,0,0,1.1466000080108643
0.208094357,0,0,1.482010841369629,0,0,1.1466000080108643
0.208450022,0,0,1.482010841369629,0,0,0.8408399820327759
0.208764057,0,0,1.482010841369629,0,0,0.152879998087883
0.20909924,0,0,1.482010841369629,0,0,0.5350799560546875
0.209439109,0,0,1.4269442558288574,0,0,0.4586400091648102
0.209757033,0,0,1.4269442558288574,0,0,1.1466000080108643
0.210087179,0,0,1.4269442558288574,0,0,0.611519992351532
0.21042864,0,0,1.4269442558288574,0,0,0.4586400091648102
0.210753879,0,0,1.4269442558288574,0,0,1.070159912109375
0.211092192,0,0,1.4269442558288574,0,0,0.8408399820327759
0.211419282,0,0,1.4269442558288574,0,0,0.3822000026702881
0.211777114,0,0,1.6184803247451782,0,0,0.3822000026702881
0.212091445,0,0,1.6184803247451782,0,0,1.375920057296753
0.212420258,0,0,1.6184803247451782,0,0,0.2293200045824051
0.212753664,0,0,1.6184803247451782,0,0,0.305759996175766
0.213091421,0,0,1.6184803247451782,0,0,0.9937199950218201
0.21341966,0,0,1.6184803247451782,0,0,1.2994799613952637
0.213753584,0,0,1.6184803247451782,0,0,1.605239987373352
0.214091656,0,0,1.4173674583435059,0,0,0.9172800183296204
0.214420006,0,0,1.4173674583435059,0,0,1.1466000080108643
0.21475343,0,0,1.4173674583435059,0,0,2.14031982421875
0.215091391,0,0,1.4173674583435059,0,0,0.3822000026702881
0.215421315,0,0,1.4173674583435059,0,0,2.3696401119232178
0.21576385,0,0,1.4173674583435059,0,0,0.7644000053405762
0.216090404,0,0,1.4173674583435059,0,0,0
0.216418939,0,0,1.3407529592514038,0,0,0.7644000053405762
0.216751992,0,0,1.3407529592514038,0,0,0.611519992351532
0.217094713,0,0,1.3407529592514038,0,0,0.8408399820327759
0.217421118,0,0,1.3407529592514038,0,0,0.8408399820327759
0.217752098,0,0,1.3407529592514038,0,0,0.611519992351532
0.2180893,0,0,1.3407529592514038,0,0,0.5350799560546875
0.218418742,0,0,1.3407529592514038,0,0,0.9172800183296204
0.218751999,0,0,1.3766659498214722,0,0,0.9172800183296204
0.219088812,0,0,1.3766659498214722,0,0,1.070159912109375
0.219418459,0,0,1.3766659498214722,0,0,0.8408399820327759
0.21979266,0,0,1.3766659498214722,0,0,0.3822000026702881
0.220090788,0,0,1.3766659498214722,0,0,0.5350799560546875
0.220419601,0,0,1.3766659498214722,0,0,0.9172800183296204
0.220753729,0,0,1.3766659498214722,0,0,0.9937199950218201
0.221091171,0,0,1.3766659498214722,0,0,0.6879600286483765
0.221419743,0,0,1.2449848651885986,0,0,1.070159912109375
0.221753538,0,0,1.2449848651885986,0,0,0.9172800183296204
0.22209098,0,0,1.2449848651885986,0,0,0.611519992351532
0.222419571,0,0,1.2449848651885986,0,0,0.8408399820327759
0.222753551,0,0,1.2449848651885986,0,0,1.223039984703064
0.223091289,0,0,1.2449848651885986,0,0,0.611519992351532
0.223419936,0,0,1.2449848651885986,0,0,1.070159912109375
0.223764119,0,0,1.2545616626739502,0,0,0.5350799560546875
0.224088302,0,0,1.2545616626739502,0,0,1.1466000080108643
0.224419504,0,0,1.2545616626739502,0,0,0.6879600286483765
0.224753595,0,0,1.2545616626739502,0,0,0.6879600286483765
0.225090556,0,0,1.2545616626739502,0,0,1.605239987373352
0.225419109,0,0,1.2545616626739502,0,0,-0.2293200045824051
0.225753626,0,0,1.2545616626739502,0,0,0.2293200045824051
0.226091142,0,0,1.3431471586227417,0,0,1.5288000106811523
0.226419455,0,0,1.3431471586227417,0,0,0
0.226753731,0,0,1.3431471586227417,0,0,-0.611519992351532
0.22709134,0,0,1.3431471586227417,0,0,0.5350799560546875
0.227422135,0,0,1.3431471586227417,0,0,0.6879600286483765
0.227764633,0,0,1.3431471586227417,0,0,0.7644000053405762
0.228089927,0,0,1.3431471586227417,0,0,0.8408399820327759
0.228420333,0,0,1.4867992401123047,0,0,0.7644000053405762
0.228752109,0,0,1.4867992401123047,0,0,0.8408399820327759
0.229089496,0,0,1.4867992401123047,0,0,0.6879600286483765
0.229418031,0,0,1.4867992401123047,0,0,0.9172800183296204
0.229751918,0,0,1.4867992401123047,0,0,1.070159912109375
0.230088749,0,0,1.4867992401123047,0,0,1.1466000080108643
0.230419358,0,0,1.4867992401123047,0,0,0.6879600286483765
0.230752227,0,0,1.5945383310317993,0,0,0.305759996175766
0.231088632,0,0,1.5945383310317993,0,0,0.6879600286483765
0.231419297,0,0,1.5945383310317993,0,0,0.8408399820327759
0.231765091,0,0,1.5945383310317993,0,0,0.8408399820327759
0.232088978,0,0,1.5945383310317993,0,0,1.070159912109375
0.232420106,0,0,1.5945383310317993,0,0,0.9937199950218201
0.232751863,0,0,1.5945383310317993,0,0,0.611519992351532
0.233088935,0,0,1.623268723487854,0,0,0.5350799560546875
0.233419415,0,0,1.623268723487854,0,0,0.4586400091648102
0.233751932,0,0,1.623268723487854,0,0,0.8408399820327759
0.234088856,0,0,1.623268723487854,0,0,0.8408399820327759
0.234420076,0,0,1.623268723487854,0,0,0.4586400091648102
0.234752074,0,0,1.623268723487854,0,0,0.7644000053405762
0.23508948,0,0,1.623268723487854,0,0,0.5350799560546875
0.235420366,0,0,1.6136919260025024,0,0,1.070159912109375
0.235833327,0,0,1.6136919260025024,0,0,1.5288000106811523
0.23609214,0,0,1.6136919260025024,0,0,1.070159912109375
0.23641999,0,0,1.6136919260025024,0,0,1.8345600366592407
0.236753563,0,0,1.6136919260025024,0,0,1.605239987373352
0.237091375,0,0,1.6136919260025024,0,0,-0.2293200045824051
0.237421596,0,0,1.6136919260025024,0,0,0.611519992351532
0.23775589,0,0,1.5514427423477173,0,0,21.173879623413086
0.238089684,0,0,1.5514427423477173,0,0,1.2994799613952637
0.238420146,0,0,1.5514427423477173,0,0,0.4586400091648102
0.238753662,0,0,1.5514427423477173,0,0,0.611519992351532
0.239091179,0,0,1.5514427423477173,0,0,0.5350799560546875
0.239418955,0,0,1.5514427423477173,0,0,0.6879600286483765
0.239765693,0,0,1.5514427423477173,0,0,0.4586400091648102
0.240091506,0,0,1.3096283674240112,0,0,0.4586400091648102
0.240420227,0,0,1.3096283674240112,0,0,1.1466000080108643
0.240753651,0,0,1.3096283674240112,0,0,1.2994799613952637
0.24109163,0,0,1.3096283674240112,0,0,0.3822000026702881
0.241420147,0,0,1.3096283674240112,0,0,0.0764399990439415
0.241753867,0,0,1.3096283674240112,0,0,0.4586400091648102
0.242088124,0,0,1.3096283674240112,0,0,0.611519992351532
0.24241866,0,0,1.3000515699386597,0,0,0.9172800183296204
0.242846268,0,0,1.3000515699386597,0,0,0.7644000053405762
0.243087656,0,0,1.3000515699386597,0,0,1.223039984703064
0.243422932,0,0,1.3000515699386597,0,0,0.7644000053405762
0.243761578,0,0,1.3000515699386597,0,0,0.6879600286483765
0.244086928,0,0,1.3000515699386597,0,0,0.9937199950218201
0.244424315,0,0,1.3000515699386597,0,0,0.9172800183296204
0.24475235,0,0,1.4101848602294922,0,0,0.9172800183296204
0.24508694,0,0,1.4101848602294922,0,0,1.070159912109375
0.245424679,0,0,1.4101848602294922,0,0,0.305759996175766
0.245752863,0,0,1.4101848602294922,0,0,0.8408399820327759
0.246086842,0,0,1.4101848602294922,0,0,0.6879600286483765
0.246425507,0,0,1.4101848602294922,0,0,1.2994799613952637
0.246753912,0,0,1.4101848602294922,0,0,0.6879600286483765
0.24708691,0,0,1.4101848602294922,0,0,0.3822000026702881
0.247424649,0,0,1.2665326595306396,0,0,0.9172800183296204
0.247763277,0,0,1.2665326595306396,0,0,0.9937199950218201
0.248089516,0,0,1.2665326595306396,0,0,0
0.248424569,0,0,1.2665326595306396,0,0,1.605239987373352
0.24875329,0,0,1.2665326595306396,0,0,0
0.249087029,0,0,1.2665326595306396,0,0,-0.4586400091648102
0.24944073,0,0,1.2665326595306396,0,0,0.611519992351532
0.249769173,0,0,1.3551181554794312,0,0,0.8408399820327759
0.250087097,0,0,1.3551181554794312,0,0,0.3822000026702881
0.250425076,0,0,1.3551181554794312,0,0,0.7644000053405762
0.250754482,0,0,1.3551181554794312,0,0,0.9172800183296204
0.251086869,0,0,1.3551181554794312,0,0,1.452359914779663
0.251424756,0,0,1.3551181554794312,0,0,0.9937199950218201
0.251763569,0,0,1.3551181554794312,0,0,1.070159912109375
0.252085382,0,0,1.3503297567367554,0,0,0.611519992351532
0.252422695,0,0,1.3503297567367554,0,0,0.2293200045824051
0.252751322,0,0,1.3503297567367554,0,0,0.4586400091648102
0.25308532,0,0,1.3503297567367554,0,0,0.4586400091648102
0.253422244,0,0,1.3503297567367554,0,0,0.9937199950218201
0.253752335,0,0,1.3503297567367554,0,0,0.9937199950218201
0.254085315,0,0,1.3503297567367554,0,0,1.070159912109375
0.254422257,0,0,1.4508862495422363,0,0,0.8408399820327759
0.254752477,0,0,1.4508862495422363,0,0,0.4586400091648102
0.255085327,0,0,1.4508862495422363,0,0,0.5350799560546875
0.255422251,0,0,1.4508862495422363,0,0,0.8408399820327759
0.255774675,0,0,1.4508862495422363,0,0,0.611519992351532
0.25608734,0,0,1.4508862495422363,0,0,0.611519992351532
0.25642419,0,0,1.4508862495422363,0,0,0.9937199950218201
0.25675241,0,0,1.5466543436050415,0,0,1.070159912109375
0.257086723,0,0,1.5466543436050415,0,0,0.611519992351532
0.257424388,0,0,1.5466543436050415,0,0,0.611519992351532
0.25775209,0,0,1.5466543436050415,0,0,0.8408399820327759
0.25808694,0,0,1.5466543436050415,0,0,1.223039984703064
0.258426882,0,0,1.5466543436050415,0,0,0.611519992351532
0.258756473,0,0,1.5466543436050415,0,0,0
0.259086989,0,0,1.4700398445129395,0,0,0.8408399820327759
0.25942521,0,0,1.4700398445129395,0,0,0.7644000053405762
0.25976443,0,0,1.4700398445129395,0,0,1.1466000080108643
0.260087299,0,0,1.4700398445129395,0,0,1.758120059967041
0.260420685,0,0,1.4700398445129395,0,0,1.6816799640655518
0.260752443,0,0,1.4700398445129395,0,0,0.0764399990439415
0.261086867,0,0,1.4700398445129395,0,0,0.7644000053405762
0.261424254,0,0,1.4700398445129395,0,0,0.7644000053405762
0.261752215,0,0,1.501164436340332,0,0,0.9172800183296204
0.262087306,0,0,1.501164436340332,0,0,1.1466000080108643
0.262428933,0,0,1.501164436340332,0,0,1.223039984703064
0.262764394,0,0,1.501164436340332,0,0,0.5350799560546875
0.263870499,0,0,1.501164436340332,0,0,0.5350799560546875
0.263893851,0,0,1.501164436340332,0,0,0.5350799560546875
0.263916239,0,0,1.501164436340332,0,0,0.7644000053405762
0.264095942,0,0,1.534683346748352,0,0,0.9172800183296204
0.264422996,0,0,1.534683346748352,0,0,0.611519992351532
0.26475292,0,0,1.534683346748352,0,0,0.9937199950218201
0.265086177,0,0,1.534683346748352,0,0,1.223039984703064
0.265426675,0,0,1.534683346748352,0,0,1.1466000080108643
0.265753803,0,0,1.534683346748352,0,0,0.9172800183296204
0.266085764,0,0,1.534683346748352,0,0,1.452359914779663
0.266419003,0,0,1.3551181554794312,0,0,0.9937199950218201
0.26675289,0,0,1.3551181554794312,0,0,0.9172800183296204
0.267085555,0,0,1.3551181554794312,0,0,0.611519992351532
0.267419145,0,0,1.3551181554794312,0,0,0.611519992351532
0.267776458,0,0,1.3551181554794312,0,0,0.8408399820327759
0.268086845,0,0,1.3551181554794312,0,0,0.6879600286483765
0.268419325,0,0,1.3551181554794312,0,0,0.611519992351532
0.268757804,0,0,1.3646949529647827,0,0,0.7644000053405762
0.269085987,0,0,1.3646949529647827,0,0,0.0764399990439415
0.269455745,0,0,1.3646949529647827,0,0,1.1466000080108643
0.269756058,0,0,1.3646949529647827,0,0,0.5350799560546875
0.270085926,0,0,1.3646949529647827,0,0,0
0.270419109,0,0,1.3646949529647827,0,0,0.0764399990439415
0.270762385,0,0,1.3646949529647827,0,0,0.2293200045824051
0.27108605,0,0,1.381454348564148,0,0,1.452359914779663
0.271418937,0,0,1.381454348564148,0,0,1.5288000106811523
0.271766731,0,0,1.381454348564148,0,0,0.9937199950218201
0.272086655,0,0,1.381454348564148,0,0,0
0.272419153,0,0,1.381454348564148,0,0,0.7644000053405762
0.272752337,0,0,1.381454348564148,0,0,0.8408399820327759
0.273085557,0,0,1.381454348564148,0,0,1.223039984703064
0.273418925,0,0,1.2761094570159912,0,0,1.1466000080108643
0.27375222,0,0,1.2761094570159912,0,0,0.7644000053405762
0.27408607,0,0,1.2761094570159912,0,0,0.0764399990439415
0.274418827,0,0,1.2761094570159912,0,0,0.8408399820327759
0.274752307,0,0,1.2761094570159912,0,0,0.9172800183296204
0.275085768,0,0,1.2761094570159912,0,0,0.6879600286483765
0.275418858,0,0,1.2761094570159912,0,0,0.8408399820327759
0.275763042,0,0,1.3742717504501343,0,0,0.9937199950218201
0.276086392,0,0,1.3742717504501343,0,0,0.7644000053405762
0.276418908,0,0,1.3742717504501343,0,0,0.5350799560546875
0.276752258,0,0,1.3742717504501343,0,0,0.6879600286483765
0.27708583,0,0,1.3742717504501343,0,0,0.611519992351532
0.277418995,0,0,1.3742717504501343,0,0,0.9937199950218201
0.277752215,0,0,1.3742717504501343,0,0,0.9172800183296204
0.278086028,0,0,1.3742717504501343,0,0,1.2994799613952637
0.278418749,0,0,1.4652514457702637,0,0,1.2994799613952637
0.278752302,0,0,1.4652514457702637,0,0,0.9937199950218201
0.279089115,0,0,1.4652514457702637,0,0,0.9937199950218201
0.279419095,0,0,1.4652514457702637,0,0,0.9172800183296204
0.279762944,0,0,1.4652514457702637,0,0,1.758120059967041
0.280086017,0,0,1.4652514457702637,0,0,1.6816799640655518
0.280418978,0,0,1.4652514457702637,0,0,1.223039984703064
0.280752198,0,0,1.5298948287963867,0,0,1.375920057296753
0.281085567,0,0,1.5298948287963867,0,0,0.5350799560546875
0.281419491,0,0,1.5298948287963867,0,0,0.611519992351532
0.281752081,0,0,1.5298948287963867,0,0,0.5350799560546875
0.282085524,0,0,1.5298948287963867,0,0,0.4586400091648102
0.282419207,0,0,1.5298948287963867,0,0,0.2293200045824051
0.282752131,0,0,1.5298948287963867,0,0,0.5350799560546875
0.283085592,0,0,1.53707754611969,0,0,9.019920349121094
0.283419257,0,0,1.53707754611969,0,0,0.5350799560546875
0.283762403,0,0,1.53707754611969,0,0,0.9172800183296204
0.284085975,0,0,1.53707754611969,0,0,0.9172800183296204
0.284419325,0,0,1.53707754611969,0,0,0.4586400091648102
0.284752249,0,0,1.53707754611969,0,0,0.305759996175766
0.285085469,0,0,1.53707754611969,0,0,0.6879600286483765
0.285419097,0,0,1.4484920501708984,0,0,0.9172800183296204
0.285752595,0,0,1.4484920501708984,0,0,0.9937199950218201
0.286085445,0,0,1.4484920501708984,0,0,1.070159912109375
0.286419202,0,0,1.4484920501708984,0,0,0.8408399820327759
0.286752126,0,0,1.4484920501708984,0,0,1.070159912109375
0.287085588,0,0,1.4484920501708984,0,0,0.7644000053405762
0.287418919,0,0,1.558625340461731,0,0,0.8408399820327759
0.287762454,0,0,1.558625340461731,0,0,1.070159912109375
0.288086174,0,0,1.558625340461731,0,0,0.611519992351532
0.28841908,0,0,1.558625340461731,0,0,0.5350799560546875
0.288752633,0,0,1.558625340461731,0,0,0.8408399820327759
0.289085483,0,0,1.436521053314209,0,0,1.070159912109375
0.289421019,0,0,1.436521053314209,0,0,0.8408399820327759
0.289752739,0,0,1.436521053314209,0,0,0.7644000053405762
0.290085829,0,0,1.436521053314209,0,0,0.6879600286483765
0.29041892,0,0,1.436521053314209,0,0,0.152879998087883
0.290752363,0,0,1.3742717504501343,0,0,0.4586400091648102
0.291085398,0,0,1.3742717504501343,0,0,0
0.291418766,0,0,1.3742717504501343,0,0,0.9172800183296204
0.291761838,0,0,1.3742717504501343,0,0,0.8408399820327759
0.292092207,0,0,1.3742717504501343,0,0,1.452359914779663
0.292419149,0,0,1.3742717504501343,0,0,1.452359914779663
0.292752388,0,0,1.3742717504501343,0,0,0.9937199950218201
0.293085386,0,0,1.335964560508728,0,0,1.758120059967041
0.293418866,0,0,1.335964560508728,0,0,1.2994799613952637
0.293752364,0,0,1.335964560508728,0,0,2.2167599201202393
0.294085455,0,0,1.335964560508728,0,0,2.2167599201202393
0.29441899,0,0,1.335964560508728,0,0,1.6816799640655518
0.294752099,0,0,1.335964560508728,0,0,1.070159912109375
0.295085541,0,0,1.335964560508728,0,0,0.6879600286483765
0.295418762,0,0,1.2306196689605713,0,0,0.2293200045824051
0.295762075,0,0,1.2306196689605713,0,0,0.4586400091648102
0.296086258,0,0,1.2306196689605713,0,0,0.8408399820327759
0.296418849,0,0,1.2306196689605713,0,0,0.6879600286483765
0.29675218,0,0,1.2306196689605713,0,0,0.6879600286483765
0.297085715,0,0,1.2306196689605713,0,0,0.7644000053405762
0.297418695,0,0,1.2306196689605713,0,0,0.611519992351532
0.297752137,0,0,1.2330138683319092,0,0,0.6879600286483765
0.29808582,0,0,1.2330138683319092,0,0,0.6879600286483765
0.298418782,0,0,1.2330138683319092,0,0,0.8408399820327759
0.298752094,0,0,1.2330138683319092,0,0,0.6879600286483765
0.299085889,0,0,1.2330138683319092,0,0,0.9937199950218201
0.299496646,0,0,1.2330138683319092,0,0,0.5350799560546875
0.299856144,0,0,1.2330138683319092,0,0,1.605239987373352
0.300087994,0,0,1.3838485479354858,0,0,0.6879600286483765
0.300419381,0,0,1.3838485479354858,0,0,0.7644000053405762
0.300752342,0,0,1.3838485479354858,0,0,0.9937199950218201
0.30108597,0,0,1.3838485479354858,0,0,1.375920057296753
0.301418894,0,0,1.3838485479354858,0,0,1.223039984703064
0.301752429,0,0,1.3838485479354858,0,0,1.1466000080108643
0.302085612,0,0,1.3838485479354858,0,0,0.2293200045824051
0.302419055,0,0,1.4748282432556152,0,0,0.305759996175766
0.302752182,0,0,1.4748282432556152,0,0,0.6879600286483765
0.303085532,0,0,1.4748282432556152,0,0,0.5350799560546875
0.303419216,0,0,1.4748282432556152,0,0,0.4586400091648102
0.303763269,0,0,1.4748282432556152,0,0,0.611519992351532
0.304086082,0,0,1.4748282432556152,0,0,0
0.304419506,0,0,1.4748282432556152,0,0,-0.152879998087883
0.304752189,0,0,1.5610195398330688,0,0,-0.305759996175766
0.305085576,0,0,1.5610195398330688,0,0,-0.3822000026702881
0.305419315,0,0,1.5610195398330688,0,0,0
0.305752128,0,0,1.5610195398330688,0,0,0.9172800183296204
0.306085719,0,0,1.5610195398330688,0,0,0.4586400091648102
0.306419198,0,0,1.5610195398330688,0,0,0.305759996175766
0.306751993,0,0,1.5610195398330688,0,0,0.5350799560546875
0.307085528,0,0,1.5610195398330688,0,0,1.1466000080108643
0.307419285,0,0,1.6208745241165161,0,0,0.8408399820327759
0.307762524,0,0,1.6208745241165161,0,0,0.9937199950218201
0.308085967,0,0,1.6208745241165161,0,0,1.223039984703064
0.308419261,0,0,1.6208745241165161,0,0,1.070159912109375
0.308752389,0,0,1.6208745241165161,0,0,0.6879600286483765
0.309085516,0,0,1.6208745241165161,0,0,0.7644000053405762
0.309418866,0,0,1.6208745241165161,0,0,0.7644000053405762
0.309752568,0,0,1.4772224426269531,0,0,0.611519992351532
0.310087529,0,0,1.4772224426269531,0,0,0.8408399820327759
0.310419064,0,0,1.4772224426269531,0,0,0.9937199950218201
0.310752822,0,0,1.4772224426269531,0,0,1.1466000080108643
0.311085486,0,0,1.4772224426269531,0,0,0.7644000053405762
0.311418966,0,0,1.4772224426269531,0,0,0.5350799560546875
0.311762723,0,0,1.6400281190872192,0,0,0.152879998087883
0.312085907,0,0,1.6400281190872192,0,0,0.611519992351532
0.312418886,0,0,1.6400281190872192,0,0,0.9937199950218201
0.312752495,0,0,1.6400281190872192,0,0,0.9172800183296204
0.313085771,0,0,1.6400281190872192,0,0,0.8408399820327759
0.313427973,0,0,1.6400281190872192,0,0,1.223039984703064
0.313753101,0,0,1.4891934394836426,0,0,1.1466000080108643
0.31408558,0,0,1.4891934394836426,0,0,1.5288000106811523
0.314418856,0,0,1.4891934394836426,0,0,1.605239987373352
0.314752539,0,0,1.4891934394836426,0,0,1.5288000106811523
0.315085426,0,0,1.4891934394836426,0,0,1.452359914779663
0.315418813,0,0,1.4891934394836426,0,0,0.6879600286483765
0.315762441,0,0,1.4891934394836426,0,0,0.4586400091648102
0.316085846,0,0,1.3982137441635132,0,0,0
0.31641903,0,0,1.3982137441635132,0,0,0.305759996175766
0.316752287,0,0,1.3982137441635132,0,0,0.9937199950218201
0.317085804,0,0,1.3982137441635132,0,0,0.4586400091648102
0.317418894,0,0,1.3982137441635132,0,0,0.611519992351532
0.317751966,0,0,1.3982137441635132,0,0,0.5350799560546875
0.318085705,0,0,1.3982137441635132,0,0,0.7644000053405762
0.318418944,0,0,1.4724340438842773,0,0,0.5350799560546875
0.318752183,0,0,1.4724340438842773,0,0,0.7644000053405762
0.3190857,0,0,1.4724340438842773,0,0,0.9937199950218201
0.319418809,0,0,1.4724340438842773,0,0,0.6879600286483765
0.319762418,0,0,1.4724340438842773,0,0,0.6879600286483765
0.320086249,0,0,1.4724340438842773,0,0,1.070159912109375
0.320421451,0,0,1.4724340438842773,0,0,0.9172800183296204
0.320752394,0,0,1.338358759880066,0,0,0.5350799560546875
0.321086003,0,0,1.338358759880066,0,0,0.9937199950218201
0.32141876,0,0,1.338358759880066,0,0,0.9172800183296204
0.32175198,0,0,1.338358759880066,0,0,1.223039984703064
0.322085664,0,0,1.338358759880066,0,0,0.9937199950218201
0.322418847,0,0,1.338358759880066,0,0,0.611519992351532
0.322752382,0,0,1.338358759880066,0,0,1.223039984703064
0.323085769,0,0,1.338358759880066,0,0,0.6879600286483765
0.323419638,0,0,1.338358759880066,0,0,0.3822000026702881
0.323765969,0,0,1.338358759880066,0,0,1.1466000080108643
0.324085986,0,0,1.338358759880066,0,0,0.611519992351532
0.324419243,0,0,1.338358759880066,0,0,0.7644000053405762
0.324752222,0,0,1.338358759880066,0,0,0.3822000026702881
0.325085646,0,0,1.338358759880066,0,0,0.305759996175766
0.325419256,0,0,1.338358759880066,0,0,0
0.325752235,0,0,1.4293384552001953,0,0,0.2293200045824051
0.32608553,0,0,1.4293384552001953,0,0,0
0.326419231,0,0,1.4293384552001953,0,0,0.9172800183296204
0.326752174,0,0,1.4293384552001953,0,0,1.223039984703064
0.327085487,0,0,1.4293384552001953,0,0,1.070159912109375
0.327419189,0,0,1.4293384552001953,0,0,1.605239987373352
0.327761576,0,0,1.4293384552001953,0,0,1.5288000106811523
0.328085907,0,0,1.5634137392044067,0,0,2.2932000160217285
0.328419312,0,0,1.5634137392044067,0,0,0.6879600286483765
0.328752144,0,0,1.5634137392044067,0,0,0.9937199950218201
0.329085549,0,0,1.5634137392044067,0,0,0.9937199950218201
0.329419029,0,0,1.5634137392044067,0,0,0.8408399820327759
0.329752157,0,0,1.5634137392044067,0,0,0.8408399820327759
0.330085395,0,0,1.5634137392044067,0,0,0.9172800183296204
0.330418875,0,0,1.50355863571167,0,0,0.6879600286483765
0.330755132,0,0,1.50355863571167,0,0,0.611519992351532
0.331085612,0,0,1.50355863571167,0,0,0.7644000053405762
0.331418906,0,0,1.50355863571167,0,0,0.611519992351532
0.331765275,0,0,1.50355863571167,0,0,0.7644000053405762
0.332085995,0,0,1.50355863571167,0,0,0.8408399820327759
0.332418919,0,0,1.50355863571167,0,0,0.611519992351532
0.33275275,0,0,1.5658079385757446,0,0,0.7644000053405762
0.333085637,0,0,1.5658079385757446,0,0,0.7644000053405762
0.333418876,0,0,1.5658079385757446,0,0,0.9937199950218201
0.333752541,0,0,1.5658079385757446,0,0,0.9172800183296204
0.334085706,0,0,1.5658079385757446,0,0,1.070159912109375
0.334419241,0,0,1.5658079385757446,0,0,0.8408399820327759
0.334764776,0,0,1.5442601442337036,0,0,0.9172800183296204
0.335086089,0,0,1.5442601442337036,0,0,0.8408399820327759
0.335418846,0,0,1.5442601442337036,0,0,1.223039984703064
0.335762696,0,0,1.5442601442337036,0,0,1.605239987373352
0.336085898,0,0,1.5442601442337036,0,0,1.452359914779663
0.336419026,0,0,1.5442601442337036,0,0,0.6879600286483765
0.336752727,0,0,1.5442601442337036,0,0,1.223039984703064
0.337085466,0,0,1.6041151285171509,0,0,0.305759996175766
0.337418761,0,0,1.6041151285171509,0,0,0.152879998087883
0.337752111,0,0,1.6041151285171509,0,0,0.305759996175766
0.33808559,0,0,1.6041151285171509,0,0,0.9172800183296204
0.338418903,0,0,1.6041151285171509,0,0,0.0764399990439415
0.338752105,0,0,1.6041151285171509,0,0,-0.9172800183296204
0.339085844,0,0,1.6041151285171509,0,0,8.867039680480957
0.33941886,0,0,1.4269442558288574,0,0,0.6879600286483765
0.339763377,0,0,1.4269442558288574,0,0,0.6879600286483765
0.340086412,0,0,1.4269442558288574,0,0,0.9172800183296204
0.34041891,0,0,1.4269442558288574,0,0,1.070159912109375
0.34075226,0,0,1.4269442558288574,0,0,0.9937199950218201
0.341088221,0,0,1.4269442558288574,0,0,0.9937199950218201
0.341419052,0,0,1.4269442558288574,0,0,1.070159912109375
0.341821958,0,0,1.3958195447921753,0,0,0.8408399820327759
0.342088734,0,0,1.3958195447921753,0,0,0.5350799560546875
0.342419139,0,0,1.3958195447921753,0,0,0.8408399820327759
0.342752174,0,0,1.3958195447921753,0,0,1.070159912109375
0.343085932,0,0,1.3958195447921753,0,0,1.223039984703064
0.343418689,0,0,1.3958195447921753,0,0,0.9937199950218201
0.343762669,0,0,1.3958195447921753,0,0,0.6879600286483765
0.344086037,0,0,1.403002142906189,0,0,0.611519992351532
0.34441872,0,0,1.403002142906189,0,0,0.8408399820327759
0.344752181,0,0,1.403002142906189,0,0,0.9172800183296204
0.345085717,0,0,1.403002142906189,0,0,0.9172800183296204
0.34541877,0,0,1.403002142906189,0,0,0.5350799560546875
0.345751953,0,0,1.403002142906189,0,0,0.2293200045824051
0.346085322,0,0,1.403002142906189,0,0,0.6879600286483765
0.346419153,0,0,1.3120225667953491,0,0,0.5350799560546875
0.346751985,0,0,1.3120225667953491,0,0,0.4586400091648102
0.347085372,0,0,1.3120225667953491,0,0,0.6879600286483765
0.347419036,0,0,1.3120225667953491,0,0,0.9937199950218201
0.347762164,0,0,1.3120225667953491,0,0,0.7644000053405762
0.348086051,0,0,1.3120225667953491,0,0,1.070159912109375
0.348419105,0,0,1.3120225667953491,0,0,1.070159912109375
0.348752177,0,0,1.314416766166687,0,0,0.9937199950218201
0.349085471,0,0,1.314416766166687,0,0,1.9109998941421509
0.349429006,0,0,1.314416766166687,0,0,0.6879600286483765
0.349754264,0,0,1.314416766166687,0,0,1.070159912109375
0.350085817,0,0,1.314416766166687,0,0,1.6816799640655518
0.35041939,0,0,1.314416766166687,0,0,1.8345600366592407
0.350752314,0,0,1.314416766166687,0,0,0.7644000053405762
0.351085534,0,0,1.4101848602294922,0,0,0.6879600286483765
0.351422995,0,0,1.4101848602294922,0,0,0.9172800183296204
0.351765511,0,0,1.4101848602294922,0,0,1.1466000080108643
0.352085806,0,0,1.4101848602294922,0,0,0.8408399820327759
0.352418878,0,0,1.4101848602294922,0,0,0.6879600286483765
0.352752487,0,0,1.4101848602294922,0,0,0.9172800183296204
0.353085319,0,0,1.4101848602294922,0,0,0.611519992351532
0.353418891,0,0,1.4101848602294922,0,0,0.7644000053405762
0.353752537,0,0,1.5322890281677246,0,0,0.9172800183296204
0.354085498,0,0,1.5322890281677246,0,0,0.7644000053405762
0.354418644,0,0,1.5322890281677246,0,0,0.9172800183296204
0.354752383,0,0,1.5322890281677246,0,0,1.1466000080108643
0.355085363,0,0,1.5322890281677246,0,0,0.6879600286483765
0.355418694,0,0,1.5322890281677246,0,0,1.1466000080108643
0.355762322,0,0,1.5322890281677246,0,0,0.9937199950218201
0.356086135,0,0,1.5873557329177856,0,0,0.9937199950218201
0.356418707,0,0,1.5873557329177856,0,0,1.223039984703064
0.356752316,0,0,1.5873557329177856,0,0,1.1466000080108643
0.357085425,0,0,1.5873557329177856,0,0,1.223039984703064
0.35741872,0,0,1.5873557329177856,0,0,0.9172800183296204
0.357752588,0,0,1.5873557329177856,0,0,0.9937199950218201
0.358085456,0,0,1.5873557329177856,0,0,0.2293200045824051
0.358418806,0,0,1.558625340461731,0,0,0.3822000026702881
0.358752249,0,0,1.558625340461731,0,0,0.611519992351532
0.359085321,0,0,1.558625340461731,0,0,0.6879600286483765
0.359418745,0,0,1.558625340461731,0,0,0.305759996175766
0.359762188,0,0,1.558625340461731,0,0,0.9937199950218201
0.360085797,0,0,1.558625340461731,0,0,0
0.360418906,0,0,1.558625340461731,0,0,0
0.360752126,0,0,1.4963760375976563,0,0,-0.305759996175766
0.361085773,0,0,1.4963760375976563,0,0,-0.4586400091648102
0.361418604,0,0,1.4963760375976563,0,0,1.375920057296753
0.361754195,0,0,1.4963760375976563,0,0,0.8408399820327759
0.362086193,0,0,1.4963760375976563,0,0,1.1466000080108643
0.36241858,0,0,1.4963760375976563,0,0,0.8408399820327759
0.362752133,0,0,1.4963760375976563,0,0,0.8408399820327759
0.363085724,0,0,1.558625340461731,0,0,0.6879600286483765
0.363418685,0,0,1.558625340461731,0,0,0.8408399820327759
0.363762053,0,0,1.558625340461731,0,0,1.070159912109375
0.364086126,0,0,1.558625340461731,0,0,0.9937199950218201
0.364418513,0,0,1.558625340461731,0,0,0.9172800183296204
0.364752177,0,0,1.558625340461731,0,0,0.9172800183296204
0.365085787,0,0,1.558625340461731,0,0,1.1466000080108643
0.365418674,0,0,1.414973258972168,0,0,0.6879600286483765
0.365751931,0,0,1.414973258972168,0,0,0.9172800183296204
0.366085336,0,0,1.414973258972168,0,0,0.9172800183296204
0.366418723,0,0,1.414973258972168,0,0,1.1466000080108643
0.366751962,0,0,1.414973258972168,0,0,1.070159912109375
0.367085405,0,0,1.414973258972168,0,0,0.3822000026702881
0.367419125,0,0,1.414973258972168,0,0,0.3822000026702881
0.367761642,0,0,1.2330138683319092,0,0,0.152879998087883
0.368085991,0,0,1.2330138683319092,0,0,0.5350799560546875
0.368419193,0,0,1.2330138683319092,0,0,0.5350799560546875
0.368752099,0,0,1.2330138683319092,0,0,0.305759996175766
0.369085319,0,0,1.2330138683319092,0,0,0.8408399820327759
0.369418947,0,0,1.2330138683319092,0,0,1.070159912109375
0.369752074,0,0,1.2330138683319092,0,0,0.9937199950218201
0.370085332,0,0,1.3431471586227417,0,0,0.9937199950218201
0.370419126,0,0,1.3431471586227417,0,0,0.9937199950218201
0.370752013,0,0,1.3431471586227417,0,0,1.8345600366592407
0.371085456,0,0,1.3431471586227417,0,0,1.758120059967041
0.371419009,0,0,1.3431471586227417,0,0,1.375920057296753
0.371762248,0,0,1.3431471586227417,0,0,0.305759996175766
0.372087876,0,0,1.3431471586227417,0,0,0.9937199950218201
0.372419244,0,0,1.3431471586227417,0,0,1.452359914779663
0.372752168,0,0,1.3072341680526733,0,0,0.611519992351532
0.37308537,0,0,1.3072341680526733,0,0,0.8408399820327759
0.373418776,0,0,1.3072341680526733,0,0,0.9172800183296204
0.373752088,0,0,1.3072341680526733,0,0,0.8408399820327759
0.374085272,0,0,1.3072341680526733,0,0,0.611519992351532
0.374418881,0,0,1.3072341680526733,0,0,0.9937199950218201
0.374752175,0,0,1.3072341680526733,0,0,0.6879600286483765
0.375085359,0,0,1.2856862545013428,0,0,0.7644000053405762
0.375418653,0,0,1.2856862545013428,0,0,0.7644000053405762
0.375762244,0,0,1.2856862545013428,0,0,0.9172800183296204
0.37608576,0,0,1.2856862545013428,0,0,0.9937199950218201
0.376418703,0,0,1.2856862545013428,0,0,0.7644000053405762
0.376752275,0,0,1.2856862545013428,0,0,0.9172800183296204
0.377085329,0,0,1.2856862545013428,0,0,0.8408399820327759
0.377418567,0,0,1.482010841369629,0,0,1.070159912109375
0.377752343,0,0,1.482010841369629,0,0,0.9937199950218201
0.378085434,0,0,1.482010841369629,0,0,0.8408399820327759
0.378418747,0,0,1.5322890281677246,0,0,1.223039984703064
0.37875256,0,0,1.5322890281677246,0,0,0.9937199950218201
0.379094354,0,0,1.5322890281677246,0,0,0.3822000026702881
0.379419445,0,0,1.5322890281677246,0,0,1.1466000080108643
0.379762313,0,0,1.5322890281677246,0,0,0.5350799560546875
0.380085496,0,0,1.5322890281677246,0,0,0.305759996175766
0.380418495,0,0,1.5322890281677246,0,0,0.611519992351532
0.380752048,0,0,1.5873557329177856,0,0,0.611519992351532
0.38108525,0,0,1.5873557329177856,0,0,0
0.381418489,0,0,1.5873557329177856,0,0,0.2293200045824051
0.381751894,0,0,1.5873557329177856,0,0,0.4586400091648102
0.382085448,0,0,1.5873557329177856,0,0,0
0.382420853,0,0,1.5873557329177856,0,0,-0.152879998087883
0.382752129,0,0,1.5873557329177856,0,0,0.7644000053405762
0.383332663,0,0,1.601720929145813,0,0,0.7644000053405762
0.383438459,0,0,1.601720929145813,0,0,0.2293200045824051
0.383774642,0,0,1.601720929145813,0,0,1.5288000106811523
0.38408664,0,0,1.601720929145813,0,0,0.9172800183296204
0.384423546,0,0,1.601720929145813,0,0,0.8408399820327759
0.38475234,0,0,1.601720929145813,0,0,0.8408399820327759
0.385085894,0,0,1.522712230682373,0,0,0.9172800183296204
0.385420873,0,0,1.522712230682373,0,0,0.8408399820327759
0.38575226,0,0,1.522712230682373,0,0,0.7644000053405762
0.386085943,0,0,1.522712230682373,0,0,0.7644000053405762
0.386419497,0,0,1.522712230682373,0,0,1.070159912109375
0.386752162,0,0,1.522712230682373,0,0,0.7644000053405762
0.38709203,0,0,1.522712230682373,0,0,0.611519992351532
0.387421602,0,0,1.5059528350830078,0,0,0.9172800183296204
0.387770063,0,0,1.5059528350830078,0,0,0.9172800183296204
0.388092173,0,0,1.5059528350830078,0,0,1.1466000080108643
0.388418893,0,0,1.5059528350830078,0,0,0.7644000053405762
0.388752132,0,0,1.5059528350830078,0,0,0.4586400091648102
0.389087556,0,0,1.5059528350830078,0,0,0.8408399820327759
0.38941885,0,0,1.5059528350830078,0,0,0.4586400091648102
0.389755793,0,0,1.381454348564148,0,0,0.9172800183296204
0.390086106,0,0,1.381454348564148,0,0,0.7644000053405762
0.390418752,0,0,1.381454348564148,0,0,0.8408399820327759
0.390756639,0,0,1.381454348564148,0,0,0.5350799560546875
0.391085526,0,0,1.381454348564148,0,0,0.9172800183296204
0.391418931,0,0,1.381454348564148,0,0,0.9937199950218201
0.391766763,0,0,1.381454348564148,0,0,0.611519992351532
0.392085613,0,0,1.3503297567367554,0,0,1.452359914779663
0.392419425,0,0,1.3503297567367554,0,0,1.5288000106811523
0.39275622,0,0,1.3503297567367554,0,0,1.758120059967041
0.393085996,0,0,1.3503297567367554,0,0,1.1466000080108643
0.393424401,0,0,1.3503297567367554,0,0,0.5350799560546875
0.393751899,0,0,1.3503297567367554,0,0,0.3822000026702881
0.394085323,0,0,1.3503297567367554,0,0,0.4586400091648102
0.394421025,0,0,1.3742717504501343,0,0,1.605239987373352
0.39475219,0,0,1.3742717504501343,0,0,0.611519992351532
0.395088873,0,0,1.3742717504501343,0,0,0.7644000053405762
0.395419204,0,0,1.3742717504501343,0,0,0.3822000026702881
0.395762814,0,0,1.3742717504501343,0,0,0.5350799560546875
0.396089756,0,0,1.3742717504501343,0,0,1.1466000080108643
0.396417791,0,0,1.3551181554794312,0,0,0.611519992351532
0.396750678,0,0,1.3551181554794312,0,0,1.070159912109375
0.397085917,0,0,1.3551181554794312,0,0,0.9937199950218201
0.3974176,0,0,1.3551181554794312,0,0,0.9937199950218201
0.397754321,0,0,1.3551181554794312,0,0,1.070159912109375
0.398084097,0,0,1.3551181554794312,0,0,0.8408399820327759
0.398417428,0,0,1.3551181554794312,0,0,0.9172800183296204
0.398755333,0,0,1.3551181554794312,0,0,0.611519992351532
0.399084054,0,0,1.3694833517074585,0,0,0.9172800183296204
0.399417237,0,0,1.3694833517074585,0,0,0.8408399820327759
0.399766513,0,0,1.3694833517074585,0,0,0.305759996175766
0.400085604,0,0,1.3694833517074585,0,0,0.9172800183296204
0.40042249,0,0,1.3694833517074585,0,0,0.9172800183296204
0.40075447,0,0,1.3694833517074585,0,0,1.070159912109375
0.401085413,0,0,1.3694833517074585,0,0,0.611519992351532
0.401423374,0,0,1.4891934394836426,0,0,1.2994799613952637
0.401752427,0,0,1.4891934394836426,0,0,0.3822000026702881
0.402085333,0,0,1.4891934394836426,0,0,0.4586400091648102
0.402420701,0,0,1.4891934394836426,0,0,0.4586400091648102
0.402752292,0,0,1.4891934394836426,0,0,0.152879998087883
0.403093901,0,0,1.4891934394836426,0,0,0.7644000053405762
0.403419177,0,0,1.4891934394836426,0,0,0.8408399820327759
0.403762712,0,0,1.4532804489135742,0,0,0.9937199950218201
0.404089895,0,0,1.4532804489135742,0,0,0.152879998087883
0.404418764,0,0,1.4532804489135742,0,0,0.3822000026702881
0.404752243,0,0,1.4532804489135742,0,0,1.452359914779663
0.405087278,0,0,1.4532804489135742,0,0,0.305759996175766
0.405418721,0,0,1.4532804489135742,0,0,1.2994799613952637
0.405755867,0,0,1.4532804489135742,0,0,0.2293200045824051
0.406087939,0,0,1.4724340438842773,0,0,2.06387996673584
0.406418715,0,0,1.4724340438842773,0,0,0.611519992351532
0.406755343,0,0,1.4724340438842773,0,0,0.9172800183296204
0.407085822,0,0,1.4724340438842773,0,0,0.9172800183296204
0.407418821,0,0,1.4724340438842773,0,0,0.7644000053405762
0.407763411,0,0,1.4724340438842773,0,0,0.9937199950218201
0.408085798,0,0,1.436521053314209,0,0,1.1466000080108643
0.408422204,0,0,1.436521053314209,0,0,0.7644000053405762
0.408752202,0,0,1.436521053314209,0,0,0.9172800183296204
0.409085681,0,0,1.436521053314209,0,0,0.9937199950218201
0.409422716,0,0,1.436521053314209,0,0,0.9172800183296204
0.409752029,0,0,1.436521053314209,0,0,0.4586400091648102
0.410085768,0,0,1.436521053314209,0,0,0.4586400091648102
0.410419451,0,0,1.556231141090393,0,0,0.3822000026702881
0.410752135,0,0,1.556231141090393,0,0,0.611519992351532
0.41109154,0,0,1.556231141090393,0,0,0.5350799560546875
0.411418816,0,0,1.556231141090393,0,0,1.070159912109375
0.411762277,0,0,1.556231141090393,0,0,1.1466000080108643
0.412087812,0,0,1.556231141090393,0,0,0.305759996175766
0.412418736,0,0,1.556231141090393,0,0,0.7644000053405762
0.412751919,0,0,1.455674648284912,0,0,1.1466000080108643
0.413086362,0,0,1.455674648284912,0,0,0.7644000053405762
0.413421342,0,0,1.455674648284912,0,0,0.9937199950218201
0.413758284,0,0,1.455674648284912,0,0,0.6879600286483765
0.414085393,0,0,1.455674648284912,0,0,1.2994799613952637
0.414419206,0,0,1.455674648284912,0,0,1.5288000106811523
0.414754001,0,0,1.455674648284912,0,0,0.9172800183296204
0.415085388,0,0,1.2689268589019775,0,0,0.0764399990439415
0.415418904,0,0,1.2689268589019775,0,0,0.305759996175766
0.415763606,0,0,1.2689268589019775,0,0,0.9172800183296204
0.416085678,0,0,1.2689268589019775,0,0,0.4586400091648102
0.416423917,0,0,1.2689268589019775,0,0,1.605239987373352
0.416752026,0,0,1.2689268589019775,0,0,0
0.417085357,0,0,1.2689268589019775,0,0,-0.5350799560546875
0.417421115,0,0,1.41257905960083,0,0,1.223039984703064
0.41775215,0,0,1.41257905960083,0,0,0.6879600286483765
0.418085296,0,0,1.41257905960083,0,0,0.6879600286483765
0.418419942,0,0,1.41257905960083,0,0,0.6879600286483765
0.41875207,0,0,1.41257905960083,0,0,0.9937199950218201
0.419089216,0,0,1.41257905960083,0,0,0.9172800183296204
0.419421122,0,0,1.41257905960083,0,0,1.2994799613952637
0.419762175,0,0,1.37906014919281,0,0,0.9937199950218201
0.420087655,0,0,1.37906014919281,0,0,0.6879600286483765
0.420418875,0,0,1.37906014919281,0,0,0.8408399820327759
0.420752633,0,0,1.37906014919281,0,0,0.9937199950218201
0.421086168,0,0,1.37906014919281,0,0,0.8408399820327759
0.421418777,0,0,1.37906014919281,0,0,0.7644000053405762
0.421758331,0,0,1.37906014919281,0,0,0.611519992351532
0.422085477,0,0,1.2952631711959839,0,0,0.9172800183296204
0.422418549,0,0,1.2952631711959839,0,0,0.611519992351532
0.422754603,0,0,1.2952631711959839,0,0,0.9172800183296204
0.423085397,0,0,1.2952631711959839,0,0,0.3822000026702881
0.42341884,0,0,1.2952631711959839,0,0,0.6879600286483765
0.423765301,0,0,1.2952631711959839,0,0,0.611519992351532
0.424085725,0,0,1.2952631711959839,0,0,0.2293200045824051
0.42442363,0,0,1.381454348564148,0,0,0.6879600286483765
0.424752443,0,0,1.381454348564148,0,0,0.5350799560546875
0.425085441,0,0,1.381454348564148,0,0,0.7644000053405762
0.425420772,0,0,1.381454348564148,0,0,0
0.425752437,0,0,1.381454348564148,0,0,0.5350799560546875
0.42608538,0,0,1.381454348564148,0,0,0.9937199950218201
0.4264196,0,0,1.381454348564148,0,0,1.223039984703064
0.426751876,0,0,1.4963760375976563,0,0,1.5288000106811523
0.427089355,0,0,1.4963760375976563,0,0,1.452359914779663
0.427421002,0,0,1.4963760375976563,0,0,1.6816799640655518
0.427762203,0,0,1.4963760375976563,0,0,-37.837799072265625
0.428087942,0,0,1.4963760375976563,0,0,1.5288000106811523
0.428418737,0,0,1.4963760375976563,0,0,1.8345600366592407
0.428752087,0,0,1.4963760375976563,0,0,0.4586400091648102
0.429086659,0,0,1.4389152526855469,0,0,0.6879600286483765
0.429418638,0,0,1.4389152526855469,0,0,0.9172800183296204
0.429757285,0,0,1.4389152526855469,0,0,1.2994799613952637
0.430085672,0,0,1.4389152526855469,0,0,0.9172800183296204
0.430418744,0,0,1.4389152526855469,0,0,0.7644000053405762
0.430754038,0,0,1.4389152526855469,0,0,0.3822000026702881
0.43108574,0,0,1.4389152526855469,0,0,0.8408399820327759
0.431418627,0,0,1.5131354331970215,0,0,0.8408399820327759
0.431763032,0,0,1.5131354331970215,0,0,0.9172800183296204
0.432086067,0,0,1.5131354331970215,0,0,0.4586400091648102
0.432423251,0,0,1.5131354331970215,0,0,0.4586400091648102
0.432752249,0,0,1.5131354331970215,0,0,1.070159912109375
0.433085914,0,0,1.5131354331970215,0,0,0.9172800183296204
0.433420134,0,0,1.5131354331970215,0,0,0.9937199950218201
0.433752095,0,0,1.501164436340332,0,0,0.6879600286483765
0.434087648,0,0,1.501164436340332,0,0,0.611519992351532
0.434423313,0,0,1.501164436340332,0,0,0.4586400091648102
0.434751941,0,0,1.501164436340332,0,0,0.9937199950218201
0.435091013,0,0,1.501164436340332,0,0,1.223039984703064
0.435419011,0,0,1.501164436340332,0,0,1.070159912109375
0.435782842,0,0,1.501164436340332,0,0,0.5350799560546875
0.436088285,0,0,1.5753847360610962,0,0,1.1466000080108643
0.436419135,0,0,1.5753847360610962,0,0,0.152879998087883
0.436751985,0,0,1.5753847360610962,0,0,0
0.437086261,0,0,1.5753847360610962,0,0,0.4586400091648102
0.437418907,0,0,1.5753847360610962,0,0,0.611519992351532
0.437757961,0,0,1.5753847360610962,0,0,0.305759996175766
0.438085588,0,0,1.5753847360610962,0,0,0.152879998087883
0.43841892,0,0,1.4460978507995605,0,0,0
0.438755214,0,0,1.4460978507995605,0,0,0.2293200045824051
0.439085231,0,0,1.4460978507995605,0,0,0.2293200045824051
0.439419062,0,0,1.4460978507995605,0,0,-0.5350799560546875
0.439766653,0,0,1.4460978507995605,0,0,9.631440162658691
0.440085669,0,0,1.4460978507995605,0,0,0.8408399820327759
0.440424834,0,0,1.278503656387329,0,0,0.7644000053405762
0.440751999,0,0,1.278503656387329,0,0,1.1466000080108643
0.441085312,0,0,1.278503656387329,0,0,1.1466000080108643
0.441420606,0,0,1.278503656387329,0,0,0.8408399820327759
0.441752049,0,0,1.278503656387329,0,0,1.070159912109375
0.442085306,0,0,1.278503656387329,0,0,0.9937199950218201
0.442419656,0,0,1.278503656387329,0,0,0.7644000053405762
0.44275245,0,0,1.256955862045288,0,0,0.7644000053405762
0.443088708,0,0,1.256955862045288,0,0,0.7644000053405762
0.443418706,0,0,1.256955862045288,0,0,0.7644000053405762
0.443762167,0,0,1.256955862045288,0,0,0.7644000053405762
0.444089035,0,0,1.256955862045288,0,0,0.9172800183296204
0.444420885,0,0,1.256955862045288,0,0,0.6879600286483765
0.444752476,0,0,1.256955862045288,0,0,0.4586400091648102
0.445087011,0,0,1.2497732639312744,0,0,0.611519992351532
0.445418583,0,0,1.2497732639312744,0,0,0.5350799560546875
0.445755081,0,0,1.2497732639312744,0,0,0.611519992351532
0.446085505,0,0,1.2497732639312744,0,0,0.3822000026702881
0.446418689,0,0,1.2497732639312744,0,0,0.7644000053405762
0.446757335,0,0,1.2497732639312744,0,0,1.1466000080108643
0.447085574,0,0,1.2497732639312744,0,0,0.5350799560546875
0.447418794,0,0,1.2976573705673218,0,0,0.5350799560546875
0.447764181,0,0,1.2976573705673218,0,0,0.4586400091648102
0.448085494,0,0,1.2976573705673218,0,0,0.9172800183296204
0.448421733,0,0,1.2976573705673218,0,0,0.3822000026702881
0.448752249,0,0,1.2976573705673218,0,0,0.8408399820327759
0.449085247,0,0,1.2976573705673218,0,0,1.758120059967041
0.449423653,0,0,1.2976573705673218,0,0,1.6816799640655518
0.449752095,0,0,1.2856862545013428,0,0,1.6816799640655518
0.450085853,0,0,1.2856862545013428,0,0,1.452359914779663
0.450420962,0,0,1.2856862545013428,0,0,2.14031982421875
0.450752053,0,0,1.2856862545013428,0,0,0.6879600286483765
0.451086551,0,0,1.2856862545013428,0,0,0.3822000026702881
0.451418697,0,0,1.2856862545013428,0,0,0.9937199950218201
0.451762139,0,0,1.2856862545013428,0,0,0.9172800183296204
0.452091137,0,0,1.41257905960083,0,0,0.6879600286483765
0.452418765,0,0,1.41257905960083,0,0,0.611519992351532
0.452752078,0,0,1.41257905960083,0,0,0.6879600286483765
0.45308765,0,0,1.41257905960083,0,0,0.7644000053405762
0.453418648,0,0,1.41257905960083,0,0,0.7644000053405762
0.453752832,0,0,1.41257905960083,0,0,0.5350799560546875
0.4540857,0,0,1.41257905960083,0,0,0.611519992351532
0.454418513,0,0,1.5155296325683594,0,0,0.9937199950218201
0.454759641,0,0,1.5155296325683594,0,0,0.9937199950218201
0.455085787,0,0,1.5155296325683594,0,0,0.8408399820327759
0.455418822,0,0,1.5155296325683594,0,0,0.8408399820327759
0.455764431,0,0,1.5155296325683594,0,0,1.070159912109375
0.456085485,0,0,1.5155296325683594,0,0,0.9937199950218201
0.45641915,0,0,1.5155296325683594,0,0,0.9172800183296204
0.456752055,0,0,1.5753847360610962,0,0,1.223039984703064
0.457085461,0,0,1.5753847360610962,0,0,1.1466000080108643
0.457424422,0,0,1.5753847360610962,0,0,0.6879600286483765
0.457751975,0,0,1.5753847360610962,0,0,0.9937199950218201
0.458085436,0,0,1.5753847360610962,0,0,0.2293200045824051
0.458420786,0,0,1.5753847360610962,0,0,0.9937199950218201
0.458752358,0,0,1.5753847360610962,0,0,0.5350799560546875
0.459099708,0,0,1.4317326545715332,0,0,1.070159912109375
0.459427003,0,0,1.4317326545715332,0,0,1.758120059967041
0.459777593,0,0,1.4317326545715332,0,0,1.452359914779663
0.460091795,0,0,1.4317326545715332,0,0,1.8345600366592407
0.460423645,0,0,1.4317326545715332,0,0,1.5288000106811523
0.460752199,0,0,1.4317326545715332,0,0,0.3822000026702881
0.461085326,0,0,1.4317326545715332,0,0,0
0.461420732,0,0,1.601720929145813,0,0,-0.2293200045824051
0.461751989,0,0,1.601720929145813,0,0,1.605239987373352
0.462085895,0,0,1.601720929145813,0,0,1.5288000106811523
0.462419059,0,0,1.601720929145813,0,0,0.9172800183296204
0.46275202,0,0,1.601720929145813,0,0,1.223039984703064
0.463091056,0,0,1.601720929145813,0,0,0.8408399820327759
0.463418813,0,0,1.601720929145813,0,0,0.8408399820327759
0.4637677,0,0,1.4460978507995605,0,0,0.9937199950218201
0.464087476,0,0,1.4460978507995605,0,0,0.9172800183296204
0.464418715,0,0,1.4460978507995605,0,0,0.8408399820327759
0.464755824,0,0,1.4460978507995605,0,0,0.7644000053405762
0.465089655,0,0,1.4460978507995605,0,0,0.7644000053405762
0.465419005,0,0,1.4460978507995605,0,0,0.6879600286483765
0.465757818,0,0,1.4460978507995605,0,0,1.070159912109375
0.466085316,0,0,1.292868971824646,0,0,0.4586400091648102
0.466418629,0,0,1.292868971824646,0,0,0.611519992351532
0.466754146,0,0,1.292868971824646,0,0,0.7644000053405762
0.467085366,0,0,1.292868971824646,0,0,0.2293200045824051
0.467422031,0,0,1.292868971824646,0,0,0.7644000053405762
0.467762621,0,0,1.292868971824646,0,0,0
0.468084175,0,0,1.292868971824646,0,0,0.9937199950218201
0.468422099,0,0,1.3000515699386597,0,0,0.6879600286483765
0.468750838,0,0,1.3000515699386597,0,0,0.9172800183296204
0.469084021,0,0,1.3000515699386597,0,0,0.3822000026702881
0.469418908,0,0,1.3000515699386597,0,0,0.7644000053405762
0.469751147,0,0,1.3000515699386597,0,0,1.223039984703064
0.470087793,0,0,1.3000515699386597,0,0,0.9937199950218201
0.470417291,0,0,1.3000515699386597,0,0,1.2994799613952637
0.47075066,0,0,1.2880805730819702,0,0,1.1466000080108643
0.471089417,0,0,1.2880805730819702,0,0,0.6879600286483765
0.471417378,0,0,1.2880805730819702,0,0,0.5350799560546875
0.471765561,0,0,1.2880805730819702,0,0,1.375920057296753
0.472087596,0,0,1.2880805730819702,0,0,1.8345600366592407
0.47241828,0,0,1.2880805730819702,0,0,0.305759996175766
0.472756204,0,0,1.2880805730819702,0,0,0.9172800183296204
0.473087868,0,0,1.2856862545013428,0,0,2.446079969406128
0.473418626,0,0,1.2856862545013428,0,0,0.5350799560546875
0.473755939,0,0,1.2856862545013428,0,0,1.070159912109375
0.47408564,0,0,1.2856862545013428,0,0,0.6879600286483765
0.474418676,0,0,1.2856862545013428,0,0,0.5350799560546875
0.47475284,0,0,1.2856862545013428,0,0,0.8408399820327759
0.475085672,0,0,1.2856862545013428,0,0,0.305759996175766
0.475427022,0,0,1.4317326545715332,0,0,0.7644000053405762
0.475762075,0,0,1.4317326545715332,0,0,0.6879600286483765
0.476086073,0,0,1.4317326545715332,0,0,0.611519992351532
0.476420738,0,0,1.4317326545715332,0,0,0.5350799560546875
0.476751884,0,0,1.4317326545715332,0,0,0.6879600286483765
0.47708516,0,0,1.50355863571167,0,0,1.1466000080108643
0.477419584,0,0,1.50355863571167,0,0,0.9937199950218201
0.477752045,0,0,1.50355863571167,0,0,0.6879600286483765
0.478090988,0,0,1.50355863571167,0,0,0.4586400091648102
0.47841906,0,0,1.50355863571167,0,0,1.2994799613952637
0.478751762,0,0,1.50355863571167,0,0,0.9937199950218201
0.479087334,0,0,1.5203180313110352,0,0,1.452359914779663
0.479418739,0,0,1.5203180313110352,0,0,1.375920057296753
0.479763071,0,0,1.5203180313110352,0,0,0.305759996175766
0.48008655,0,0,1.5203180313110352,0,0,0.6879600286483765
0.480419085,0,0,1.5203180313110352,0,0,0.9172800183296204
0.480757139,0,0,1.5203180313110352,0,0,1.375920057296753
0.481085285,0,0,1.5203180313110352,0,0,0.611519992351532
0.481418635,0,0,1.5897499322891235,0,0,0.611519992351532
0.481753856,0,0,1.5897499322891235,0,0,0.8408399820327759
0.482085076,0,0,1.5897499322891235,0,0,0
0.482418852,0,0,1.5897499322891235,0,0,0
0.482752831,0,0,1.5897499322891235,0,0,0
0.483085181,0,0,1.5897499322891235,0,0,0.2293200045824051
0.483424809,0,0,1.5897499322891235,0,0,0
0.483770307,0,0,1.4724340438842773,0,0,1.9874399900436401
0.484086083,0,0,1.4724340438842773,0,0,0.305759996175766
0.484420692,0,0,1.4724340438842773,0,0,0
0.484751746,0,0,1.4724340438842773,0,0,0.9937199950218201
0.48508517,0,0,1.4724340438842773,0,0,0.8408399820327759
0.485419334,0,0,1.4724340438842773,0,0,0.6879600286483765
0.485759777,0,0,1.4724340438842773,0,0,0.7644000053405762
0.486092256,0,0,1.556231141090393,0,0,0.5350799560546875
0.486423903,0,0,1.556231141090393,0,0,0.8408399820327759
0.48676553,0,0,1.556231141090393,0,0,1.070159912109375
0.487090621,0,0,1.556231141090393,0,0,1.1466000080108643
0.487418878,0,0,1.556231141090393,0,0,0.7644000053405762
0.487783765,0,0,1.556231141090393,0,0,0.5350799560546875
0.488087819,0,0,1.556231141090393,0,0,0.7644000053405762
0.488425558,0,0,1.4197616577148438,0,0,0.7644000053405762
0.488757111,0,0,1.4197616577148438,0,0,0.6879600286483765
0.489089591,0,0,1.4197616577148438,0,0,0.8408399820327759
0.489421015,0,0,1.4197616577148438,0,0,0.5350799560546875
0.489752198,0,0,1.4197616577148438,0,0,0.5350799560546875
0.490089363,0,0,1.4197616577148438,0,0,1.070159912109375
0.490418861,0,0,1.4197616577148438,0,0,0.7644000053405762
0.490752267,0,0,1.3718775510787964,0,0,0
0.491086357,0,0,1.3718775510787964,0,0,0.2293200045824051
0.491419318,0,0,1.3718775510787964,0,0,1.070159912109375
0.491778613,0,0,1.3718775510787964,0,0,0.3822000026702881
0.492086833,0,0,1.3718775510787964,0,0,1.452359914779663
0.492418702,0,0,1.3718775510787964,0,0,1.070159912109375
0.492777829,0,0,1.3718775510787964,0,0,0.6879600286483765
0.493087142,0,0,1.3958195447921753,0,0,1.070159912109375
0.493418807,0,0,1.3958195447921753,0,0,1.6816799640655518
0.493754379,0,0,1.3958195447921753,0,0,1.5288000106811523
0.494085673,0,0,1.3958195447921753,0,0,1.223039984703064
0.494418801,0,0,1.3958195447921753,0,0,0.5350799560546875
0.494752373,0,0,1.3958195447921753,0,0,0.6879600286483765
0.49508576,0,0,1.3958195447921753,0,0,0.305759996175766
0.495426184,0,0,1.3982137441635132,0,0,1.1466000080108643
0.495785238,0,0,1.3982137441635132,0,0,1.1466000080108643
0.496096736,0,0,1.3982137441635132,0,0,0.9937199950218201
0.496423864,0,0,1.3982137441635132,0,0,0.9172800183296204
0.496754973,0,0,1.3982137441635132,0,0,0.9937199950218201
0.49708573,0,0,1.3982137441635132,0,0,0.611519992351532
0.497419821,0,0,1.3982137441635132,0,0,0.2293200045824051
0.497762652,0,0,1.3192051649093628,0,0,0.7644000053405762
0.498090076,0,0,1.3192051649093628,0,0,0.5350799560546875
0.498418667,0,0,1.3192051649093628,0,0,0.9172800183296204
0.498757461,0,0,1.3192051649093628,0,0,0.7644000053405762
0.499085182,0,0,1.3192051649093628,0,0,0.611519992351532
0.499418754,0,0,1.3192051649093628,0,0,0.8408399820327759
0.499771326,0,0,1.3192051649093628,0,0,0.8408399820327759
0.500085861,0,0,1.3742717504501343,0,0,0.611519992351532
0.500422452,0,0,1.3742717504501343,0,0,1.2994799613952637
0.500751931,0,0,1.3742717504501343,0,0,1.223039984703064
0.501085207,0,0,1.3742717504501343,0,0,1.223039984703064
0.501422187,0,0,1.3742717504501343,0,0,0.3822000026702881
0.50175187,0,0,1.3742717504501343,0,0,0.305759996175766
0.50208535,0,0,1.3742717504501343,0,0,0.7644000053405762
0.502420625,0,0,1.5275006294250488,0,0,1.070159912109375
0.502751883,0,0,1.5275006294250488,0,0,0.8408399820327759
0.50308801,0,0,1.5275006294250488,0,0,0.9172800183296204
0.503419212,0,0,1.5275006294250488,0,0,0.7644000053405762
0.503762562,0,0,1.5275006294250488,0,0,0.611519992351532
0.504090671,0,0,1.5275006294250488,0,0,0.611519992351532
0.504419058,0,0,1.5275006294250488,0,0,0
0.504751871,0,0,1.4891934394836426,0,0,0.4586400091648102
0.505097147,0,0,1.4891934394836426,0,0,1.1466000080108643
0.505419423,0,0,1.4891934394836426,0,0,0.152879998087883
0.505751903,0,0,1.4891934394836426,0,0,1.1466000080108643
0.506086864,0,0,1.4891934394836426,0,0,0.0764399990439415
0.506422991,0,0,1.4891934394836426,0,0,1.452359914779663
0.506755767,0,0,1.4891934394836426,0,0,1.5288000106811523
0.507085284,0,0,1.525106430053711,0,0,1.452359914779663
0.507418578,0,0,1.525106430053711,0,0,0.7644000053405762
0.507770613,0,0,1.525106430053711,0,0,0.3822000026702881
0.508092945,0,0,1.525106430053711,0,0,0.611519992351532
0.508425276,0,0,1.525106430053711,0,0,0.9172800183296204
0.508771274,0,0,1.525106430053711,0,0,0.6879600286483765
0.50909492,0,0,1.525106430053711,0,0,0.8408399820327759
0.509432048,0,0,1.5394717454910278,0,0,0.5350799560546875
0.509793231,0,0,1.5394717454910278,0,0,0.3822000026702881
0.510101896,0,0,1.5394717454910278,0,0,0.5350799560546875
0.510435783,0,0,1.5394717454910278,0,0,0.9172800183296204
0.510753503,0,0,1.5394717454910278,0,0,0.4586400091648102
0.511091372,0,0,1.5394717454910278,0,0,0.8408399820327759
0.511421222,0,0,1.5394717454910278,0,0,0.7644000053405762
0.51178472,0,0,1.5442601442337036,0,0,0.611519992351532
0.512087144,0,0,1.5442601442337036,0,0,0.4586400091648102
0.51242416,0,0,1.5442601442337036,0,0,0.4586400091648102
0.512752955,0,0,1.5442601442337036,0,0,0.3822000026702881
0.513085934,0,0,1.5442601442337036,0,0,1.2994799613952637
0.51342571,0,0,1.5442601442337036,0,0,0.8408399820327759
0.513759634,0,0,1.5442601442337036,0,0,0.7644000053405762
0.515243866,0,0,1.3192051649093628,0,0,0.7644000053405762
0.515266866,0,0,1.3192051649093628,0,0,0.7644000053405762
0.515288959,0,0,1.3192051649093628,0,0,0.7644000053405762
0.515317218,0,0,1.3192051649093628,0,0,0.7644000053405762
0.51542731,0,0,1.3192051649093628,0,0,0.8408399820327759
0.515776456,0,0,1.3192051649093628,0,0,0.6879600286483765
0.516089713,0,0,1.3192051649093628,0,0,0.8408399820327759
0.516421434,0,0,1.357512354850769,0,0,1.070159912109375
0.516758876,0,0,1.357512354850769,0,0,1.758120059967041
0.517089985,0,0,1.357512354850769,0,0,1.1466000080108643
0.517420558,0,0,1.357512354850769,0,0,0.5350799560546875
0.517753074,0,0,1.357512354850769,0,0,0.305759996175766
0.518262627,0,0,1.357512354850769,0,0,0.8408399820327759
0.518437922,0,0,1.357512354850769,0,0,0.6879600286483765
0.518760124,0,0,1.3886369466781616,0,0,0.9937199950218201
0.519092937,0,0,1.3886369466781616,0,0,0.9937199950218201
0.51943375,0,0,1.3886369466781616,0,0,0.8408399820327759
0.519779303,0,0,1.3886369466781616,0,0,0.611519992351532
0.520086876,0,0,1.3886369466781616,0,0,0.305759996175766
0.520427096,0,0,1.3886369466781616,0,0,0.8408399820327759
0.52077452,0,0,1.3886369466781616,0,0,0.7644000053405762
0.521086666,0,0,1.3215993642807007,0,0,0.7644000053405762
0.521419664,0,0,1.3215993642807007,0,0,0.9172800183296204
0.521755125,0,0,1.3215993642807007,0,0,0.611519992351532
0.522086975,0,0,1.3215993642807007,0,0,0.8408399820327759
0.522532047,0,0,1.3215993642807007,0,0,1.6816799640655518
0.522754064,0,0,1.3215993642807007,0,0,0.9937199950218201
0.523088969,0,0,1.3215993642807007,0,0,0.5350799560546875
0.523650022,0,0,1.3646949529647827,0,0,0.5350799560546875
0.523784317,0,0,1.3646949529647827,0,0,1.5288000106811523
0.524089001,0,0,1.3646949529647827,0,0,0.9172800183296204
0.524418091,0,0,1.3646949529647827,0,0,0.5350799560546875
0.524751923,0,0,1.3646949529647827,0,0,0.9937199950218201
0.525088384,0,0,1.3646949529647827,0,0,0.7644000053405762
0.525418326,0,0,1.3646949529647827,0,0,0.4586400091648102
0.525751806,0,0,1.4389152526855469,0,0,0.305759996175766
0.526088267,0,0,1.4389152526855469,0,0,0.611519992351532
0.52643195,0,0,1.4389152526855469,0,0,0.4586400091648102
0.526752022,0,0,1.4389152526855469,0,0,0.152879998087883
0.527093039,0,0,1.4389152526855469,0,0,0.611519992351532
0.527420963,0,0,1.4389152526855469,0,0,-0.2293200045824051
0.527764628,0,0,1.4389152526855469,0,0,0.611519992351532
0.528088607,0,0,1.522712230682373,0,0,0
0.528419513,0,0,1.522712230682373,0,0,1.375920057296753
0.528751715,0,0,1.522712230682373,0,0,2.2932000160217285
0.529086046,0,0,1.522712230682373,0,0,1.8345600366592407
0.529418525,0,0,1.522712230682373,0,0,2.14031982421875
0.529751709,0,0,1.522712230682373,0,0,0.8408399820327759
0.530088059,0,0,1.522712230682373,0,0,0.4586400091648102
0.530419057,0,0,1.577778935432434,0,0,1.070159912109375
0.530751703,0,0,1.577778935432434,0,0,0.5350799560546875
0.531088405,0,0,1.577778935432434,0,0,0.6879600286483765
0.531418199,0,0,1.577778935432434,0,0,0.6879600286483765
0.531763234,0,0,1.577778935432434,0,0,0.4586400091648102
0.532085973,0,0,1.577778935432434,0,0,0.611519992351532
0.53241873,0,0,1.577778935432434,0,0,0.5350799560546875
0.532751654,0,0,1.53707754611969,0,0,0.5350799560546875
0.533088245,0,0,1.53707754611969,0,0,0.9937199950218201
0.533418614,0,0,1.53707754611969,0,0,0.7644000053405762
0.533751686,0,0,1.53707754611969,0,0,0.4586400091648102
0.534085499,0,0,1.53707754611969,0,0,0.4586400091648102
0.53441883,0,0,1.53707754611969,0,0,0.6879600286483765
0.534751569,0,0,1.53707754611969,0,0,0.9937199950218201
0.53524914,0,0,1.5203180313110352,0,0,0.8408399820327759
0.535422917,0,0,1.5203180313110352,0,0,0.305759996175766
0.535856544,0,0,1.5203180313110352,0,0,0.5350799560546875
0.536092691,0,0,1.5203180313110352,0,0,0.4586400091648102
0.536430337,0,0,1.5203180313110352,0,0,0.9937199950218201
0.536753354,0,0,1.5203180313110352,0,0,0.9172800183296204
0.537086259,0,0,1.5203180313110352,0,0,0.8408399820327759
0.537542905,0,0,1.5442601442337036,0,0,0.8408399820327759
0.537755015,0,0,1.5442601442337036,0,0,1.2994799613952637
0.538101753,0,0,1.5442601442337036,0,0,0.4586400091648102
0.538419974,0,0,1.5442601442337036,0,0,0.5350799560546875
0.538752972,0,0,1.5442601442337036,0,0,0.5350799560546875
0.539091711,0,0,1.5442601442337036,0,0,1.5288000106811523
0.53941982,0,0,1.5442601442337036,0,0,0.6879600286483765
0.539776595,0,0,1.3886369466781616,0,0,0.7644000053405762
0.540089575,0,0,1.3886369466781616,0,0,1.9109998941421509
0.540419907,0,0,1.3886369466781616,0,0,9.019920349121094
0.540753516,0,0,1.3886369466781616,0,0,0.6879600286483765
0.541090032,0,0,1.3886369466781616,0,0,0.9172800183296204
0.541419975,0,0,1.3886369466781616,0,0,0.9172800183296204
0.541753103,0,0,1.3886369466781616,0,0,1.1466000080108643
0.542090156,0,0,1.2952631711959839,0,0,0.9937199950218201
0.542420784,0,0,1.2952631711959839,0,0,0.5350799560546875
0.542753115,0,0,1.2952631711959839,0,0,0.5350799560546875
0.543089817,0,0,1.2952631711959839,0,0,0.611519992351532
0.543419445,0,0,1.2952631711959839,0,0,0.9172800183296204
0.543764091,0,0,1.2952631711959839,0,0,0.9937199950218201
0.544090163,0,0,1.2952631711959839,0,0,0.9172800183296204
0.544419791,0,0,1.2737152576446533,0,0,0.9172800183296204
0.544753345,0,0,1.2737152576446533,0,0,0.5350799560546875
0.545089861,0,0,1.2737152576446533,0,0,0.611519992351532
0.545419378,0,0,1.2737152576446533,0,0,0.8408399820327759
0.545753191,0,0,1.2737152576446533,0,0,0.7644000053405762
0.546090374,0,0,1.2737152576446533,0,0,0.7644000053405762
0.546420261,0,0,1.2737152576446533,0,0,0.9172800183296204
0.546753278,0,0,1.2449848651885986,0,0,0.7644000053405762
0.547090183,0,0,1.2449848651885986,0,0,1.1466000080108643
0.547419589,0,0,1.2449848651885986,0,0,0.8408399820327759
0.547774401,0,0,1.2449848651885986,0,0,0.5350799560546875
0.548090196,0,0,1.2449848651885986,0,0,0.152879998087883
0.548419916,0,0,1.2449848651885986,0,0,0.152879998087883
0.548753673,0,0,1.2449848651885986,0,0,0.305759996175766
0.549089783,0,0,1.3239935636520386,0,0,0.611519992351532
0.549419077,0,0,1.3239935636520386,0,0,1.758120059967041
0.549759316,0,0,1.3239935636520386,0,0,1.375920057296753
0.550090295,0,0,1.3239935636520386,0,0,1.375920057296753
0.550419886,0,0,1.3239935636520386,0,0,1.375920057296753
0.550753162,0,0,1.3239935636520386,0,0,1.070159912109375
0.551090401,0,0,1.3239935636520386,0,0,0.8408399820327759
0.55145338,0,0,1.4173674583435059,0,0,0.8408399820327759
0.551784415,0,0,1.4173674583435059,0,0,1.1466000080108643
0.552092043,0,0,1.4173674583435059,0,0,1.070159912109375
0.552432819,0,0,1.4173674583435059,0,0,0.9172800183296204
0.552753391,0,0,1.4173674583435059,0,0,0.611519992351532
0.553086389,0,0,1.4173674583435059,0,0,0.3822000026702881
0.553425424,0,0,1.4173674583435059,0,0,0.6879600286483765
0.553763033,0,0,1.4197616577148438,0,0,0.611519992351532
0.554090846,0,0,1.4197616577148438,0,0,0.8408399820327759
0.554420844,0,0,1.4197616577148438,0,0,0.6879600286483765
0.554752991,0,0,1.4197616577148438,0,0,0.8408399820327759
0.555090896,0,0,1.4197616577148438,0,0,0.8408399820327759
0.555861318,0,0,1.4197616577148438,0,0,0.8408399820327759
0.555884021,0,0,1.4197616577148438,0,0,-0.305759996175766
0.556097927,0,0,1.5083470344543457,0,0,0.5350799560546875
0.556428314,0,0,1.5083470344543457,0,0,0.7644000053405762
0.556753424,0,0,1.5083470344543457,0,0,1.070159912109375
0.557085774,0,0,1.5083470344543457,0,0,0.8408399820327759
0.557418624,0,0,1.5083470344543457,0,0,1.223039984703064
0.557754307,0,0,1.5083470344543457,0,0,1.1466000080108643
0.558107008,0,0,1.5083470344543457,0,0,0.8408399820327759
0.558421358,0,0,1.4891934394836426,0,0,0.8408399820327759
0.558756375,0,0,1.4891934394836426,0,0,0.8408399820327759
0.559100206,0,0,1.4891934394836426,0,0,0.5350799560546875
0.559428093,0,0,1.4891934394836426,0,0,0
0.559791628,0,0,1.4891934394836426,0,0,1.605239987373352
0.560096627,0,0,1.5298948287963867,0,0,0.152879998087883
0.560418551,0,0,1.5298948287963867,0,0,0.8408399820327759
0.560751752,0,0,1.5298948287963867,0,0,0.152879998087883
0.561093528,0,0,1.5298948287963867,0,0,0.9937199950218201
0.561428619,0,0,1.5298948287963867,0,0,1.452359914779663
0.561753599,0,0,1.5298948287963867,0,0,0.7644000053405762
0.562088541,0,0,1.5298948287963867,0,0,0.152879998087883
0.562418539,0,0,1.5298948287963867,0,0,0
0.562753204,0,0,1.5514427423477173,0,0,1.605239987373352
0.563085758,0,0,1.5514427423477173,0,0,0.7644000053405762
0.56341857,0,0,1.5514427423477173,0,0,0.8408399820327759
0.563771976,0,0,1.5514427423477173,0,0,0.7644000053405762
0.564085604,0,0,1.5514427423477173,0,0,0.611519992351532
0.564418917,0,0,1.5514427423477173,0,0,0.7644000053405762
0.564753637,0,0,1.5514427423477173,0,0,0.7644000053405762
0.565085079,0,0,1.3263877630233765,0,0,0.6879600286483765
0.565422337,0,0,1.3263877630233765,0,0,0.8408399820327759
0.565751983,0,0,1.3263877630233765,0,0,0.9937199950218201
0.566085074,0,0,1.3263877630233765,0,0,0.9937199950218201
0.566423572,0,0,1.3263877630233765,0,0,0.9937199950218201
0.56675194,0,0,1.3263877630233765,0,0,0.5350799560546875
0.567084957,0,0,1.3263877630233765,0,0,0.4586400091648102
0.56741964,0,0,1.357512354850769,0,0,0.7644000053405762
0.56776236,0,0,1.357512354850769,0,0,0.611519992351532
0.568091025,0,0,1.357512354850769,0,0,0.9937199950218201
0.568423542,0,0,1.357512354850769,0,0,0.6879600286483765
0.568752095,0,0,1.357512354850769,0,0,0.611519992351532
0.569097112,0,0,1.357512354850769,0,0,0.9172800183296204
0.569604683,0,0,1.357512354850769,0,0,0.9172800183296204
0.569753664,0,0,1.3718775510787964,0,0,0.3822000026702881
0.570091199,0,0,1.3718775510787964,0,0,0.611519992351532
0.570418549,0,0,1.3718775510787964,0,0,0.9937199950218201
0.570751899,0,0,1.3718775510787964,0,0,0.9937199950218201
0.571087063,0,0,1.3718775510787964,0,0,1.605239987373352
0.57141845,0,0,1.3718775510787964,0,0,1.8345600366592407
0.571771022,0,0,1.3718775510787964,0,0,1.5288000106811523
0.572090946,0,0,1.3503297567367554,0,0,0
0.572418648,0,0,1.3503297567367554,0,0,1.452359914779663
0.572755813,0,0,1.3503297567367554,0,0,1.375920057296753
0.573085126,0,0,1.3503297567367554,0,0,0.9937199950218201
0.573418309,0,0,1.3503297567367554,0,0,0.152879998087883
0.573753715,0,0,1.3503297567367554,0,0,1.9874399900436401
0.574084953,0,0,1.3503297567367554,0,0,0.8408399820327759
0.574418433,0,0,1.3096283674240112,0,0,0.6879600286483765
0.574753968,0,0,1.3096283674240112,0,0,0.3822000026702881
0.575085114,0,0,1.3096283674240112,0,0,0.8408399820327759
0.575421909,0,0,1.3096283674240112,0,0,0.6879600286483765
0.575763888,0,0,1.3096283674240112,0,0,0.611519992351532
0.576085442,0,0,1.3096283674240112,0,0,0.9172800183296204
0.576420347,0,0,1.403002142906189,0,0,0.9172800183296204
0.576751975,0,0,1.403002142906189,0,0,0.7644000053405762
0.57708527,0,0,1.403002142906189,0,0,0.611519992351532
0.577421786,0,0,1.403002142906189,0,0,0.5350799560546875
0.57775171,0,0,1.403002142906189,0,0,0.8408399820327759
0.578088727,0,0,1.403002142906189,0,0,0.7644000053405762
0.578418466,0,0,1.403002142906189,0,0,0.9937199950218201
0.578755445,0,0,1.403002142906189,0,0,0.9172800183296204
0.579088277,0,0,1.4532804489135742,0,0,0.9937199950218201
0.579418367,0,0,1.4532804489135742,0,0,0.9937199950218201
0.579766958,0,0,1.4532804489135742,0,0,1.223039984703064
0.580085919,0,0,1.4532804489135742,0,0,1.1466000080108643
0.580418306,0,0,1.4532804489135742,0,0,0.6879600286483765
0.580756841,0,0,1.4532804489135742,0,0,0.7644000053405762
0.581085506,0,0,1.4532804489135742,0,0,0.7644000053405762
0.581418282,0,0,1.525106430053711,0,0,0.8408399820327759
0.581753391,0,0,1.525106430053711,0,0,0.611519992351532
0.582085574,0,0,1.525106430053711,0,0,0.9937199950218201
0.582421683,0,0,1.525106430053711,0,0,0.5350799560546875
0.582751848,0,0,1.525106430053711,0,0,0.152879998087883
0.583085457,0,0,1.525106430053711,0,0,0.305759996175766
0.583422789,0,0,1.525106430053711,0,0,0.611519992351532
0.583762046,0,0,1.4628572463989258,0,0,2.06387996673584
0.584085896,0,0,1.4628572463989258,0,0,0.9172800183296204
0.584419264,0,0,1.4628572463989258,0,0,1.605239987373352
0.584754281,0,0,1.4628572463989258,0,0,0
0.585097631,0,0,1.4628572463989258,0,0,0.5350799560546875
0.585425462,0,0,1.4628572463989258,0,0,0.8408399820327759
0.585759423,0,0,1.4628572463989258,0,0,0.6879600286483765
0.586093218,0,0,1.5298948287963867,0,0,0.7644000053405762
0.586419253,0,0,1.5298948287963867,0,0,0.7644000053405762
0.586751677,0,0,1.5298948287963867,0,0,0.4586400091648102
0.587088749,0,0,1.5298948287963867,0,0,0.7644000053405762
0.587431599,0,0,1.5298948287963867,0,0,0.9937199950218201
0.587785226,0,0,1.5298948287963867,0,0,0.8408399820327759
0.588087762,0,0,1.5298948287963867,0,0,0.3822000026702881
0.588418889,0,0,1.4221558570861816,0,0,0.4586400091648102
0.588756184,0,0,1.4221558570861816,0,0,0.6879600286483765
0.589089312,0,0,1.4221558570861816,0,0,0.8408399820327759
0.589417865,0,0,1.4221558570861816,0,0,0.4586400091648102
0.589754345,0,0,1.4221558570861816,0,0,0.8408399820327759
0.590084047,0,0,1.4221558570861816,0,0,0.8408399820327759
0.5904311,0,0,1.4221558570861816,0,0,1.070159912109375
0.590751728,0,0,1.359906554222107,0,0,0.9937199950218201
0.591083911,0,0,1.359906554222107,0,0,0.8408399820327759
0.591419502,0,0,1.359906554222107,0,0,0.9172800183296204
0.591768815,0,0,1.359906554222107,0,0,0.611519992351532
0.592085572,0,0,1.359906554222107,0,0,1.070159912109375
0.592420385,0,0,1.359906554222107,0,0,1.2994799613952637
0.592751809,0,0,1.359906554222107,0,0,1.605239987373352
0.593085363,0,0,1.3862427473068237,0,0,1.070159912109375
0.593418009,0,0,1.3862427473068237,0,0,0.7644000053405762
0.593752211,0,0,1.3862427473068237,0,0,0.5350799560546875
0.594088449,0,0,1.3862427473068237,0,0,0.4586400091648102
0.594418392,0,0,1.3862427473068237,0,0,0.6879600286483765
0.594752038,0,0,1.3862427473068237,0,0,0.305759996175766
0.595087129,0,0,1.3862427473068237,0,0,0.3822000026702881
0.595418386,0,0,1.2713210582733154,0,0,0.4586400091648102
0.595764718,0,0,1.2713210582733154,0,0,-0.6879600286483765
0.596087827,0,0,1.2713210582733154,0,0,0.2293200045824051
0.596418584,0,0,1.2713210582733154,0,0,9.631440162658691
0.596757101,0,0,1.2713210582733154,0,0,0.9172800183296204
0.597084932,0,0,1.2713210582733154,0,0,0.6879600286483765
0.597418338,0,0,1.2713210582733154,0,0,0.7644000053405762
0.597753854,0,0,1.3000515699386597,0,0,0.9172800183296204
0.598084945,0,0,1.3000515699386597,0,0,0.6879600286483765
0.59842185,0,0,1.3000515699386597,0,0,0.9172800183296204
0.598752052,0,0,1.3000515699386597,0,0,0.7644000053405762
0.599085032,0,0,1.3000515699386597,0,0,0.6879600286483765
0.599424641,0,0,1.3000515699386597,0,0,0.6879600286483765
0.599762046,0,0,1.3000515699386597,0,0,0.9937199950218201
0.600085748,0,0,1.338358759880066,0,0,0.9172800183296204
0.600420617,0,0,1.338358759880066,0,0,1.070159912109375
0.600751485,0,0,1.338358759880066,0,0,0.8408399820327759
0.601091724,0,0,1.338358759880066,0,0,0.9172800183296204
0.601418666,0,0,1.338358759880066,0,0,0.7644000053405762
0.601751683,0,0,1.338358759880066,0,0,0.9172800183296204
0.602087459,0,0,1.338358759880066,0,0,0.6879600286483765
0.602418364,0,0,1.3958195447921753,0,0,0.6879600286483765
0.60275177,0,0,1.3958195447921753,0,0,0.4586400091648102
0.60308549,0,0,1.3958195447921753,0,0,0.4586400091648102
0.60341847,0,0,1.3958195447921753,0,0,0.8408399820327759
0.603765542,0,0,1.3958195447921753,0,0,1.223039984703064
0.604085596,0,0,1.3958195447921753,0,0,1.1466000080108643
0.604418168,0,0,1.3958195447921753,0,0,1.070159912109375
0.604756758,0,0,1.5131354331970215,0,0,0.4586400091648102
0.605085201,0,0,1.5131354331970215,0,0,0.9172800183296204
0.60563655,0,0,1.5131354331970215,0,0,0.9172800183296204
0.60576803,0,0,1.5131354331970215,0,0,0.3822000026702881
0.606087084,0,0,1.5131354331970215,0,0,0.9937199950218201
0.606432952,0,0,1.5131354331970215,0,0,1.8345600366592407
0.606763339,0,0,1.5131354331970215,0,0,1.758120059967041
0.607086838,0,0,1.5203180313110352,0,0,1.8345600366592407
0.607419613,0,0,1.5203180313110352,0,0,1.605239987373352
0.607767334,0,0,1.455674648284912,0,0,0.152879998087883
0.608086961,0,0,1.455674648284912,0,0,0.9937199950218201
0.608424015,0,0,1.455674648284912,0,0,0.8408399820327759
0.608754272,0,0,1.455674648284912,0,0,0.9937199950218201
0.609087085,0,0,1.455674648284912,0,0,0.8408399820327759
0.609421102,0,0,1.455674648284912,0,0,0.8408399820327759
0.609755859,0,0,1.455674648284912,0,0,0.6879600286483765
0.610087191,0,0,1.556231141090393,0,0,0.6879600286483765
0.610423096,0,0,1.556231141090393,0,0,0.6879600286483765
0.610752687,0,0,1.556231141090393,0,0,0.5350799560546875
0.611086592,0,0,1.556231141090393,0,0,0.7644000053405762
0.611423461,0,0,1.556231141090393,0,0,1.070159912109375
0.61176957,0,0,1.556231141090393,0,0,1.2994799613952637
0.612086698,0,0,1.556231141090393,0,0,1.452359914779663
0.612423418,0,0,1.4293384552001953,0,0,0.9172800183296204
0.612753323,0,0,1.4293384552001953,0,0,0.7644000053405762
0.613086636,0,0,1.4293384552001953,0,0,0.7644000053405762
0.613423671,0,0,1.4293384552001953,0,0,0.6879600286483765
0.613753299,0,0,1.4293384552001953,0,0,1.223039984703064
0.614086279,0,0,1.4293384552001953,0,0,1.2994799613952637
0.614423369,0,0,1.4293384552001953,0,0,1.2994799613952637
0.614752701,0,0,1.4173674583435059,0,0,0.6879600286483765
0.615086662,0,0,1.4173674583435059,0,0,0.4586400091648102
0.615421808,0,0,1.4173674583435059,0,0,0.611519992351532
0.615838583,0,0,1.4173674583435059,0,0,0
0.616090249,0,0,1.4173674583435059,0,0,0.9172800183296204
0.616423469,0,0,1.4173674583435059,0,0,1.223039984703064
0.616753912,0,0,1.4173674583435059,0,0,0.0764399990439415
0.617089336,0,0,1.4389152526855469,0,0,0.7644000053405762
0.617420685,0,0,1.4389152526855469,0,0,0
0.617753702,0,0,1.4389152526855469,0,0,-0.305759996175766
0.618086848,0,0,1.4389152526855469,0,0,1.070159912109375
0.618418735,0,0,1.4389152526855469,0,0,1.223039984703064
0.618753789,0,0,1.4389152526855469,0,0,1.375920057296753
0.619088768,0,0,1.4389152526855469,0,0,0
0.61941997,0,0,1.3527239561080933,0,0,0.6879600286483765
0.619772746,0,0,1.3527239561080933,0,0,0.9937199950218201
0.62009417,0,0,1.3527239561080933,0,0,1.070159912109375
0.620421909,0,0,1.3527239561080933,0,0,0.5350799560546875
0.620752222,0,0,1.3527239561080933,0,0,0.2293200045824051
0.621085424,0,0,1.3527239561080933,0,0,0.8408399820327759
0.621418699,0,0,1.3527239561080933,0,0,0.9172800183296204
0.621751883,0,0,1.3072341680526733,0,0,0.6879600286483765
0.622087955,0,0,1.3072341680526733,0,0,1.223039984703064
0.622419323,0,0,1.3072341680526733,0,0,0.8408399820327759
0.62286695,0,0,1.3072341680526733,0,0,0.4586400091648102
0.623086005,0,0,1.3072341680526733,0,0,0.9172800183296204
0.623428058,0,0,1.3072341680526733,0,0,0.7644000053405762
0.623792408,0,0,1.3072341680526733,0,0,0.8408399820327759
0.624090999,0,0,1.3862427473068237,0,0,0.305759996175766
0.624420812,0,0,1.3862427473068237,0,0,0.6879600286483765
0.624753773,0,0,1.3862427473068237,0,0,0.6879600286483765
0.625090178,0,0,1.3862427473068237,0,0,1.070159912109375
0.62541988,0,0,1.3862427473068237,0,0,1.223039984703064
0.625753249,0,0,1.3862427473068237,0,0,0.9172800183296204
0.626090469,0,0,1.3862427473068237,0,0,0.305759996175766
0.626420097,0,0,1.3862427473068237,0,0,0.8408399820327759
0.626753743,0,0,1.4748282432556152,0,0,1.070159912109375
0.627089982,0,0,1.4748282432556152,0,0,0.9937199950218201
0.627419424,0,0,1.4748282432556152,0,0,1.2994799613952637
0.6277652,0,0,1.4748282432556152,0,0,1.1466000080108643
0.628091087,0,0,1.4748282432556152,0,0,1.223039984703064
0.62841877,0,0,1.4748282432556152,0,0,0.305759996175766
0.628752046,0,0,1.4748282432556152,0,0,0.611519992351532
0.629087452,0,0,1.558625340461731,0,0,0.611519992351532
0.62941945,0,0,1.558625340461731,0,0,0.4586400091648102
0.6297518,0,0,1.558625340461731,0,0,-0.9937199950218201
0.630088483,0,0,1.558625340461731,0,0,0.3822000026702881
0.630422111,0,0,1.558625340461731,0,0,0.9172800183296204
0.630751775,0,0,1.558625340461731,0,0,1.1466000080108643
0.631092107,0,0,1.558625340461731,0,0,0.611519992351532
0.631439142,0,0,1.5107412338256836,0,0,0.5350799560546875
0.631801954,0,0,1.5107412338256836,0,0,0.3822000026702881
0.632101194,0,0,1.5107412338256836,0,0,0.8408399820327759
0.632452154,0,0,1.5107412338256836,0,0,1.223039984703064
0.633390908,0,0,1.5107412338256836,0,0,1.223039984703064
0.633424593,0,0,1.5107412338256836,0,0,1.223039984703064
0.633447556,0,0,1.5107412338256836,0,0,1.223039984703064
0.633764684,0,0,1.5107412338256836,0,0,0.8408399820327759
0.634094775,0,0,1.5107412338256836,0,0,0.6879600286483765
0.634456032,0,0,1.5107412338256836,0,0,1.070159912109375
0.634800919,0,0,1.5107412338256836,0,0,0.5350799560546875
0.635111621,0,0,1.5107412338256836,0,0,0.8408399820327759
0.63542586,0,0,1.5107412338256836,0,0,1.1466000080108643
0.635786709,0,0,1.5107412338256836,0,0,1.452359914779663
0.636097522,0,0,1.5705963373184204,0,0,0.8408399820327759
0.636433261,0,0,1.5705963373184204,0,0,0.9172800183296204
0.636757093,0,0,1.5705963373184204,0,0,0.7644000053405762
0.637089128,0,0,1.5705963373184204,0,0,0.5350799560546875
0.637423867,0,0,1.5705963373184204,0,0,0.9937199950218201
0.637755568,0,0,1.5705963373184204,0,0,0.8408399820327759
0.638086881,0,0,1.5705963373184204,0,0,0.0764399990439415
0.638423768,0,0,1.436521053314209,0,0,0.3822000026702881
0.638783507,0,0,1.436521053314209,0,0,0.8408399820327759
0.639123894,0,0,1.436521053314209,0,0,0.8408399820327759
0.639446762,0,0,1.436521053314209,0,0,0.6879600286483765
0.63980939,0,0,1.436521053314209,0,0,-0.305759996175766
0.640105018,0,0,1.436521053314209,0,0,-0.3822000026702881
0.640440775,0,0,1.436521053314209,0,0,0.4586400091648102
0.640767107,0,0,1.3024457693099976,0,0,0
0.641108031,0,0,1.3024457693099976,0,0,0.6879600286483765
0.641424492,0,0,1.3024457693099976,0,0,0.8408399820327759
0.641780064,0,0,1.3024457693099976,0,0,1.223039984703064
0.642119617,0,0,1.3024457693099976,0,0,0.8408399820327759
0.642425301,0,0,1.3024457693099976,0,0,0.0764399990439415
0.642761799,0,0,1.3024457693099976,0,0,0.6879600286483765
0.643102334,0,0,1.3024457693099976,0,0,1.070159912109375
0.643423721,0,0,1.37906014919281,0,0,0.8408399820327759
0.643792145,0,0,1.37906014919281,0,0,0.611519992351532
0.644100976,0,0,1.37906014919281,0,0,0.9172800183296204
0.64444353,0,0,1.37906014919281,0,0,1.070159912109375
0.644755435,0,0,1.37906014919281,0,0,0.3822000026702881
0.645089174,0,0,1.37906014919281,0,0,0.611519992351532
0.645427432,0,0,1.37906014919281,0,0,1.223039984703064
0.645755393,0,0,1.2210428714752197,0,0,0.5350799560546875
0.646093483,0,0,1.2210428714752197,0,0,0.9172800183296204
0.64643737,0,0,1.2210428714752197,0,0,0.6879600286483765
0.646756609,0,0,1.2210428714752197,0,0,1.223039984703064
0.647087866,0,0,1.2210428714752197,0,0,1.5288000106811523
0.647427068,0,0,1.2210428714752197,0,0,1.1466000080108643
0.647775881,0,0,1.2210428714752197,0,0,1.223039984703064
0.648088416,0,0,1.381454348564148,0,0,1.2994799613952637
0.648430562,0,0,1.381454348564148,0,0,1.1466000080108643
0.648753079,0,0,1.381454348564148,0,0,0.5350799560546875
0.649086596,0,0,1.381454348564148,0,0,0.7644000053405762
0.649428409,0,0,1.381454348564148,0,0,1.070159912109375
0.649756962,0,0,1.381454348564148,0,0,0.6879600286483765
0.650086608,0,0,1.381454348564148,0,0,0.3822000026702881
0.650419977,0,0,1.4293384552001953,0,0,0.0764399990439415
0.650756938,0,0,1.4293384552001953,0,0,0.0764399990439415
0.651096158,0,0,1.4293384552001953,0,0,0.305759996175766
0.651420156,0,0,1.4293384552001953,0,0,0
0.651771488,0,0,1.4293384552001953,0,0,2.751840114593506
0.652099078,0,0,1.4293384552001953,0,0,-0.0764399990439415
0.652419836,0,0,1.4293384552001953,0,0,1.223039984703064
0.652752963,0,0,1.4867992401123047,0,0,1.452359914779663
0.653085869,0,0,1.4867992401123047,0,0,0.611519992351532
0.653420108,0,0,1.4867992401123047,0,0,0.7644000053405762
0.653756958,0,0,1.4867992401123047,0,0,0.9172800183296204
0.654086197,0,0,1.4867992401123047,0,0,0.8408399820327759
0.654438472,0,0,1.4867992401123047,0,0,0.9172800183296204
0.654757082,0,0,1.4867992401123047,0,0,0.7644000053405762
0.655086357,0,0,1.5849615335464478,0,0,0.611519992351532
0.655419985,0,0,1.5849615335464478,0,0,0.6879600286483765
0.65576652,0,0,1.5849615335464478,0,0,0.6879600286483765
0.656096074,0,0,1.5849615335464478,0,0,0.8408399820327759
0.656419924,0,0,1.5849615335464478,0,0,0.8408399820327759
0.656753089,0,0,1.5849615335464478,0,0,0.5350799560546875
0.657086531,0,0,1.5849615335464478,0,0,0.7644000053405762
0.657419714,0,0,1.4867992401123047,0,0,0.5350799560546875
0.657756712,0,0,1.4867992401123047,0,0,0.611519992351532
0.65808584,0,0,1.4867992401123047,0,0,0.9937199950218201
0.65841982,0,0,1.4867992401123047,0,0,0.9172800183296204
0.658756633,0,0,1.4867992401123047,0,0,0.7644000053405762
0.65908576,0,0,1.4867992401123047,0,0,1.2994799613952637
0.659419851,0,0,1.4867992401123047,0,0,0.9937199950218201
0.659767571,0,0,1.4867992401123047,0,0,0.8408399820327759
0.660096236,0,0,1.41257905960083,0,0,1.223039984703064
0.660419753,0,0,1.41257905960083,0,0,1.1466000080108643
0.660753343,0,0,1.41257905960083,0,0,1.452359914779663
0.661091786,0,0,1.41257905960083,0,0,0.2293200045824051
0.661421839,0,0,1.41257905960083,0,0,0.4586400091648102
0.661756708,0,0,1.41257905960083,0,0,0.7644000053405762
0.662086502,0,0,1.41257905960083,0,0,0.3822000026702881
0.662419778,0,0,1.5275006294250488,0,0,0.2293200045824051
0.662756943,0,0,1.5275006294250488,0,0,1.758120059967041
0.66308646,0,0,1.5275006294250488,0,0,0
0.663419995,0,0,1.5275006294250488,0,0,-0.8408399820327759
0.66376577,0,0,1.5275006294250488,0,0,0.8408399820327759
0.664097491,0,0,1.5275006294250488,0,0,0.305759996175766
0.664419785,0,0,1.5275006294250488,0,0,0.6879600286483765
0.664753117,0,0,1.400607943534851,0,0,0.6879600286483765
0.6650853,0,0,1.400607943534851,0,0,0.9172800183296204
0.665419928,0,0,1.400607943534851,0,0,1.070159912109375
0.665756444,0,0,1.400607943534851,0,0,1.223039984703064
0.666086257,0,0,1.400607943534851,0,0,0.9937199950218201
0.666419755,0,0,1.400607943534851,0,0,0.7644000053405762
0.666757105,0,0,1.400607943534851,0,0,1.1466000080108643
0.667086307,0,0,1.3527239561080933,0,0,0.9937199950218201
0.667420027,0,0,1.3527239561080933,0,0,0.9937199950218201
0.667765933,0,0,1.3527239561080933,0,0,0.9937199950218201
0.668086338,0,0,1.3527239561080933,0,0,0.6879600286483765
0.668418855,0,0,1.3527239561080933,0,0,0.7644000053405762
0.668752316,0,0,1.3527239561080933,0,0,0.9172800183296204
0.669085444,0,0,1.3527239561080933,0,0,0.7644000053405762
0.669419127,0,0,1.37906014919281,0,0,0.305759996175766
0.669752236,0,0,1.37906014919281,0,0,0.2293200045824051
0.670086345,0,0,1.37906014919281,0,0,0.4586400091648102
0.670419936,0,0,1.37906014919281,0,0,0.5350799560546875
0.670752434,0,0,1.37906014919281,0,0,1.1466000080108643
0.671085525,0,0,1.37906014919281,0,0,1.1466000080108643
0.671419134,0,0,1.37906014919281,0,0,0.9937199950218201
0.671767761,0,0,1.2737152576446533,0,0,0.7644000053405762
0.6720865,0,0,1.2737152576446533,0,0,1.1466000080108643
0.672419202,0,0,1.2737152576446533,0,0,1.5288000106811523
0.672752071,0,0,1.2737152576446533,0,0,1.452359914779663
0.673085439,0,0,1.2737152576446533,0,0,1.452359914779663
0.67341927,0,0,1.2737152576446533,0,0,1.5288000106811523
0.673752194,0,0,1.2737152576446533,0,0,0.9172800183296204
0.674085507,0,0,1.4484920501708984,0,0,0.6879600286483765
0.674419098,0,0,1.4484920501708984,0,0,0.2293200045824051
0.674751966,0,0,1.4484920501708984,0,0,0.4586400091648102
0.675085576,0,0,1.4484920501708984,0,0,0.305759996175766
0.675419203,0,0,1.4484920501708984,0,0,0.7644000053405762
0.675773331,0,0,1.4484920501708984,0,0,0.6879600286483765
0.676085459,0,0,1.4484920501708984,0,0,0.8408399820327759
0.676417735,0,0,1.4484920501708984,0,0,0.8408399820327759
0.67675114,0,0,1.4245500564575195,0,0,0.6879600286483765
0.677083972,0,0,1.4245500564575195,0,0,0.8408399820327759
0.67741721,0,0,1.4245500564575195,0,0,0.9172800183296204
0.677751301,0,0,1.4245500564575195,0,0,0.8408399820327759
0.67808404,0,0,1.4245500564575195,0,0,1.070159912109375
0.678417501,0,0,1.4245500564575195,0,0,1.070159912109375
0.678750943,0,0,1.4245500564575195,0,0,1.1466000080108643
0.679084034,0,0,1.4772224426269531,0,0,1.223039984703064
0.679417384,0,0,1.4772224426269531,0,0,1.070159912109375
0.679765808,0,0,1.4772224426269531,0,0,1.070159912109375
0.680085732,0,0,1.4772224426269531,0,0,0.9937199950218201
0.680418804,0,0,1.4772224426269531,0,0,1.1466000080108643
0.680752247,0,0,1.4772224426269531,0,0,0.611519992351532
0.681085337,0,0,1.4772224426269531,0,0,0.611519992351532
0.681418539,0,0,1.558625340461731,0,0,0.5350799560546875
0.681752074,0,0,1.558625340461731,0,0,0.611519992351532
0.682087183,0,0,1.558625340461731,0,0,0.3822000026702881
0.6824187,0,0,1.558625340461731,0,0,0.9172800183296204
0.682751754,0,0,1.558625340461731,0,0,0.3822000026702881
0.683201121,0,0,1.558625340461731,0,0,0
0.683421417,0,0,1.558625340461731,0,0,0.0764399990439415
0.683765044,0,0,1.501164436340332,0,0,0.6879600286483765
0.684086024,0,0,1.501164436340332,0,0,0.2293200045824051
0.684418466,0,0,1.501164436340332,0,0,0.9172800183296204
0.684751705,0,0,1.501164436340332,0,0,0.8408399820327759
0.68508524,0,0,1.501164436340332,0,0,1.375920057296753
0.685418516,0,0,1.501164436340332,0,0,1.758120059967041
0.685751811,0,0,1.501164436340332,0,0,1.9874399900436401
0.686085512,0,0,1.6065093278884888,0,0,1.9874399900436401
0.686418362,0,0,1.6065093278884888,0,0,1.758120059967041
0.686751749,0,0,1.6065093278884888,0,0,0.9172800183296204
0.687085377,0,0,1.6065093278884888,0,0,0.8408399820327759
0.687418449,0,0,1.6065093278884888,0,0,0.9172800183296204
0.687761577,0,0,1.6065093278884888,0,0,0.8408399820327759
0.688086056,0,0,1.6065093278884888,0,0,0.8408399820327759
0.688418443,0,0,1.5873557329177856,0,0,0.6879600286483765
0.688751904,0,0,1.5873557329177856,0,0,1.1466000080108643
0.689085328,0,0,1.5873557329177856,0,0,0.611519992351532
0.689418382,0,0,1.5873557329177856,0,0,0.4586400091648102
0.689751917,0,0,1.5873557329177856,0,0,0.6879600286483765
0.690085193,0,0,1.5873557329177856,0,0,0.6879600286483765
0.690418413,0,0,1.5873557329177856,0,0,1.223039984703064
0.690751893,0,0,1.3120225667953491,0,0,0.9937199950218201
0.691084928,0,0,1.3120225667953491,0,0,0.7644000053405762
0.691418852,0,0,1.3120225667953491,0,0,0.9172800183296204
0.691763924,0,0,1.3120225667953491,0,0,1.223039984703064
0.692085756,0,0,1.3120225667953491,0,0,0.8408399820327759
0.692421031,0,0,1.3120225667953491,0,0,0.9937199950218201
0.692752048,0,0,1.3120225667953491,0,0,0.8408399820327759
0.693085139,0,0,1.3718775510787964,0,0,1.2994799613952637
0.693418674,0,0,1.3718775510787964,0,0,0.7644000053405762
0.693751727,0,0,1.3718775510787964,0,0,0.611519992351532
0.694085151,0,0,1.3718775510787964,0,0,0.5350799560546875
0.694418464,0,0,1.3718775510787964,0,0,0.3822000026702881
0.694751666,0,0,1.3718775510787964,0,0,0.4586400091648102
0.695085109,0,0,1.3718775510787964,0,0,0.611519992351532
0.695418792,0,0,1.335964560508728,0,0,0.3822000026702881
0.695759068,0,0,1.335964560508728,0,0,1.070159912109375
0.696085603,0,0,1.335964560508728,0,0,0
0.69641886,0,0,1.335964560508728,0,0,0
0.696751914,0,0,1.335964560508728,0,0,-0.3822000026702881
0.697084986,0,0,1.335964560508728,0,0,0.7644000053405762
0.697418317,0,0,1.335964560508728,0,0,1.375920057296753
0.69775189,0,0,1.335964560508728,0,0,0.6879600286483765
0.69808511,0,0,1.2689268589019775,0,0,0.6879600286483765
0.698418478,0,0,1.2689268589019775,0,0,0.9937199950218201
0.698752106,0,0,1.2689268589019775,0,0,0.3822000026702881
0.699084937,0,0,1.2689268589019775,0,0,0.611519992351532
0.699418454,0,0,1.2689268589019775,0,0,0.9172800183296204
0.699852174,0,0,1.2689268589019775,0,0,1.070159912109375
0.700087376,0,0,1.2689268589019775,0,0,0.8408399820327759
0.700418652,0,0,1.37906014919281,0,0,0.611519992351532
0.700752169,0,0,1.37906014919281,0,0,1.1466000080108643
0.701084981,0,0,1.37906014919281,0,0,1.070159912109375
0.701418146,0,0,1.37906014919281,0,0,0.6879600286483765
0.701752163,0,0,1.37906014919281,0,0,0.9172800183296204
0.702085087,0,0,1.37906014919281,0,0,0.4586400091648102
0.7024184,0,0,1.37906014919281,0,0,0.4586400091648102
0.70275449,0,0,1.3934253454208374,0,0,0.3822000026702881
0.703085322,0,0,1.3934253454208374,0,0,0.4586400091648102
