Time,AccelX1,AccelY1,AccelZ1,AccelX2,AccelY2,AccelZ2
0.000335904,0,0,1.5083470344543457,0,0,0.7644000053405762
0.001084767,0,0,1.5083470344543457,0,0,1.223039984703064
0.001408282,0,0,1.558625340461731,0,0,1.223039984703064
0.001734557,0,0,1.558625340461731,0,0,0.0764399990439415
0.002063109,0,0,1.558625340461731,0,0,0
0.002407013,0,0,1.3958195447921753,0,0,0.9172800183296204
0.002740491,0,0,1.3958195447921753,0,0,0.9172800183296204
0.003076488,0,0,1.3958195447921753,0,0,0.611519992351532
0.003405966,0,0,1.625662922859192,0,0,0.8408399820327759
0.003743703,0,0,1.625662922859192,0,0,1.223039984703064
0.004081811,0,0,1.625662922859192,0,0,0.7644000053405762
0.004410196,0,0,1.5849615335464478,0,0,1.070159912109375
0.004734971,0,0,1.5849615335464478,0,0,0.5350799560546875
0.00507743,0,0,1.5849615335464478,0,0,0.5350799560546875
0.005403593,0,0,1.3886369466781616,0,0,1.1466000080108643
0.005726386,0,0,1.3886369466781616,0,0,0.9937199950218201
0.006053365,0,0,1.3886369466781616,0,0,0.305759996175766
0.006386287,0,0,1.3958195447921753,0,0,1.070159912109375
0.006776894,0,0,1.3958195447921753,0,0,0.4586400091648102
0.007116576,0,0,1.3958195447921753,0,0,0.8408399820327759
0.007448739,0,0,1.3096283674240112,0,0,1.1466000080108643
0.007773032,0,0,1.3096283674240112,0,0,2.06387996673584
0.008098677,0,0,1.3096283674240112,0,0,0.9937199950218201
0.008422766,0,0,1.4053963422775269,0,0,2.14031982421875
0.008746967,0,0,1.4053963422775269,0,0,1.8345600366592407
0.009071815,0,0,1.4053963422775269,0,0,0.5350799560546875
0.009413719,0,0,1.3742717504501343,0,0,-0.2293200045824051
0.009772715,0,0,1.3742717504501343,0,0,9.631440162658691
0.010110786,0,0,1.3742717504501343,0,0,2.2932000160217285
0.010313543,0,0,1.4915876388549805,0,0,0.9172800183296204
0.010522912,0,0,1.4915876388549805,0,0,0.9172800183296204
0.010752613,0,0,1.4915876388549805,0,0,0.9172800183296204
0.010955907,0,0,1.4915876388549805,0,0,1.9109998941421509
0.011233571,0,0,1.625662922859192,0,0,1.223039984703064
0.011399662,0,0,1.625662922859192,0,0,1.9874399900436401
0.011730992,0,0,1.625662922859192,0,0,2.2167599201202393
0.012077933,0,0,1.625662922859192,0,0,-0.3822000026702881
0.012401355,0,0,1.625662922859192,0,0,-1.1466000080108643
0.0127205,0,0,1.4844050407409668,0,0,1.2994799613952637
0.013051312,0,0,1.4844050407409668,0,0,0.5350799560546875
0.013384382,0,0,1.4844050407409668,0,0,0.4586400091648102
0.013727583,0,0,1.4844050407409668,0,0,1.1466000080108643
0.01406869,0,0,1.4844050407409668,0,0,1.070159912109375
0.014397094,0,0,1.4628572463989258,0,0,0.6879600286483765
0.014720202,0,0,1.4628572463989258,0,0,0.4586400091648102
0.015051402,0,0,1.4628572463989258,0,0,0.6879600286483765
0.015385566,0,0,1.4628572463989258,0,0,0.9937199950218201
0.015717488,0,0,1.4628572463989258,0,0,1.223039984703064
0.016050744,0,0,1.7094600200653076,0,0,0.9937199950218201
0.016383833,0,0,1.7094600200653076,0,0,0.6879600286483765
0.016717182,0,0,1.7094600200653076,0,0,0.7644000053405762
0.017062011,0,0,1.7094600200653076,0,0,1.223039984703064
0.01738936,0,0,1.7094600200653076,0,0,1.2994799613952637
0.017719523,0,0,1.3431471586227417,0,0,0.9937199950218201
0.018051057,0,0,1.3431471586227417,0,0,1.2994799613952637
0.018384109,0,0,1.3431471586227417,0,0,0.8408399820327759
0.018717198,0,0,1.3431471586227417,0,0,0.5350799560546875
0.019050454,0,0,1.3431471586227417,0,0,0.4586400091648102
0.019384673,0,0,1.400607943534851,0,0,0.7644000053405762
0.019717058,0,0,1.400607943534851,0,0,0.6879600286483765
0.020050499,0,0,1.400607943534851,0,0,0.611519992351532
0.020384348,0,0,1.400607943534851,0,0,0.6879600286483765
0.020722659,0,0,1.400607943534851,0,0,0.9172800183296204
0.021050971,0,0,1.3024457693099976,0,0,0.2293200045824051
0.021383819,0,0,1.3024457693099976,0,0,0.7644000053405762
0.021741334,0,0,1.3024457693099976,0,0,1.6816799640655518
0.022052646,0,0,1.3024457693099976,0,0,2.14031982421875
0.02238392,0,0,1.3024457693099976,0,0,1.6816799640655518
0.02271712,0,0,1.3838485479354858,0,0,0.4586400091648102
0.023050487,0,0,1.3838485479354858,0,0,0.611519992351532
0.023386891,0,0,1.3838485479354858,0,0,0.611519992351532
0.02371674,0,0,1.3838485479354858,0,0,0.7644000053405762
0.024050514,0,0,1.3838485479354858,0,0,0.0764399990439415
0.024383455,0,0,1.3479355573654175,0,0,1.070159912109375
0.024716693,0,0,1.3479355573654175,0,0,0.8408399820327759
0.025049726,0,0,1.3479355573654175,0,0,0.611519992351532
0.025384019,0,0,1.3479355573654175,0,0,0.305759996175766
0.025718627,0,0,1.3479355573654175,0,0,1.070159912109375
0.026050716,0,0,1.3479355573654175,0,0,0.611519992351532
0.026383972,0,0,1.4676456451416016,0,0,0.8408399820327759
0.026717246,0,0,1.4676456451416016,0,0,0.305759996175766
0.027050909,0,0,1.4676456451416016,0,0,0.6879600286483765
0.027384462,0,0,1.4676456451416016,0,0,0.8408399820327759
0.027717384,0,0,1.4676456451416016,0,0,1.1466000080108643
0.028050547,0,0,1.5969325304031372,0,0,1.070159912109375
0.028383766,0,0,1.5969325304031372,0,0,1.5288000106811523
0.028716818,0,0,1.5969325304031372,0,0,0.9937199950218201
0.029050519,0,0,1.5969325304031372,0,0,1.070159912109375
0.029383867,0,0,1.5969325304031372,0,0,0.8408399820327759
0.029717178,0,0,1.5897499322891235,0,0,0.9172800183296204
0.030050916,0,0,1.5897499322891235,0,0,0.7644000053405762
0.030383764,0,0,1.5897499322891235,0,0,1.070159912109375
0.030717113,0,0,1.5897499322891235,0,0,0.9172800183296204
0.031054369,0,0,1.5897499322891235,0,0,0.611519992351532
0.031386254,0,0,1.4532804489135742,0,0,1.1466000080108643
0.031717603,0,0,1.4532804489135742,0,0,0
0.032050099,0,0,1.4532804489135742,0,0,0.2293200045824051
0.032396096,0,0,1.4532804489135742,0,0,1.452359914779663
0.032719648,0,0,1.4532804489135742,0,0,1.2994799613952637
0.033050774,0,0,1.745373010635376,0,0,-0.4586400091648102
0.033383974,0,0,1.745373010635376,0,0,0
0.033717212,0,0,1.745373010635376,0,0,1.223039984703064
0.034050338,0,0,1.745373010635376,0,0,0.8408399820327759
0.034384038,0,0,1.745373010635376,0,0,1.375920057296753
0.034716942,0,0,1.5442601442337036,0,0,1.5288000106811523
0.035050605,0,0,1.5442601442337036,0,0,2.6754000186920166
0.035384269,0,0,1.5442601442337036,0,0,0.6879600286483765
0.035717321,0,0,1.5442601442337036,0,0,0.6879600286483765
0.036050743,0,0,1.5442601442337036,0,0,0.9172800183296204
0.036383796,0,0,1.3982137441635132,0,0,1.1466000080108643
0.03671707,0,0,1.3982137441635132,0,0,0.9172800183296204
0.037050715,0,0,1.3982137441635132,0,0,0.611519992351532
0.03738373,0,0,1.3982137441635132,0,0,0.9172800183296204
0.03771693,0,0,1.3982137441635132,0,0,0.611519992351532
0.038050001,0,0,1.357512354850769,0,0,0.9937199950218201
0.038384016,0,0,1.357512354850769,0,0,0.9172800183296204
0.038717253,0,0,1.357512354850769,0,0,1.070159912109375
0.039050565,0,0,1.357512354850769,0,0,0.611519992351532
0.039388209,0,0,1.357512354850769,0,0,0.7644000053405762
0.039719799,0,0,1.3862427473068237,0,0,0.8408399820327759
0.040052703,0,0,1.3862427473068237,0,0,0.9937199950218201
0.040386347,0,0,1.3862427473068237,0,0,0.6879600286483765
0.040719437,0,0,1.3862427473068237,0,0,0.9172800183296204
0.04105297,0,0,1.3862427473068237,0,0,0.6879600286483765
0.041389541,0,0,1.3886369466781616,0,0,1.1466000080108643
0.04172013,0,0,1.3886369466781616,0,0,0.3822000026702881
0.04205296,0,0,1.3886369466781616,0,0,0.2293200045824051
0.042386086,0,0,1.3886369466781616,0,0,0
0.042719842,0,0,1.3886369466781616,0,0,1.9874399900436401
0.043077801,0,0,1.4077905416488647,0,0,0.2293200045824051
0.043388113,0,0,1.4077905416488647,0,0,0
0.043719721,0,0,1.4077905416488647,0,0,-0.3822000026702881
0.04405268,0,0,1.4077905416488647,0,0,1.223039984703064
0.044385973,0,0,1.4077905416488647,0,0,0.2293200045824051
0.044719414,0,0,1.53707754611969,0,0,0.9172800183296204
0.045052596,0,0,1.53707754611969,0,0,1.5288000106811523
0.045385907,0,0,1.53707754611969,0,0,2.751840114593506
0.045719552,0,0,1.53707754611969,0,0,0.8408399820327759
0.046052549,0,0,1.53707754611969,0,0,0.7644000053405762
0.046387193,0,0,1.5897499322891235,0,0,0.9937199950218201
0.046746319,0,0,1.5897499322891235,0,0,1.070159912109375
0.047076038,0,0,1.5897499322891235,0,0,0.6879600286483765
0.047406035,0,0,1.5897499322891235,0,0,0.611519992351532
0.047750846,0,0,1.5897499322891235,0,0,0.7644000053405762
0.048064473,0,0,1.4652514457702637,0,0,0.9172800183296204
0.048388377,0,0,1.4652514457702637,0,0,1.070159912109375
0.04871917,0,0,1.4652514457702637,0,0,0.8408399820327759
0.04906824,0,0,1.4652514457702637,0,0,1.223039984703064
0.049390589,0,0,1.4652514457702637,0,0,0.7644000053405762
0.049719585,0,0,1.5969325304031372,0,0,0.5350799560546875
0.050052767,0,0,1.5969325304031372,0,0,0.6879600286483765
0.050386134,0,0,1.5969325304031372,0,0,0.9172800183296204
0.050719464,0,0,1.5969325304031372,0,0,0.9937199950218201
0.051052572,0,0,1.5969325304031372,0,0,0.4586400091648102
0.051385642,0,0,1.6711528301239014,0,0,0.6879600286483765
0.05172275,0,0,1.6711528301239014,0,0,0.9172800183296204
0.052050913,0,0,1.6711528301239014,0,0,0.7644000053405762
0.052383854,0,0,1.6711528301239014,0,0,0.5350799560546875
0.052717184,0,0,1.6711528301239014,0,0,0
0.053050551,0,0,1.3431471586227417,0,0,1.758120059967041
0.0533839,0,0,1.3431471586227417,0,0,0.152879998087883
0.053717026,0,0,1.3431471586227417,0,0,0
0.054050523,0,0,1.3431471586227417,0,0,-0.5350799560546875
0.054384278,0,0,1.3431471586227417,0,0,1.223039984703064
0.054717145,0,0,1.4891934394836426,0,0,0.0764399990439415
0.055050568,0,0,1.4891934394836426,0,0,0.6879600286483765
0.055392953,0,0,1.4891934394836426,0,0,1.5288000106811523
0.055733135,0,0,1.4891934394836426,0,0,1.1466000080108643
0.056055317,0,0,1.4891934394836426,0,0,2.14031982421875
0.056385851,0,0,1.338358759880066,0,0,0.8408399820327759
0.056719199,0,0,1.338358759880066,0,0,0.305759996175766
0.05705201,0,0,1.338358759880066,0,0,1.223039984703064
0.057385914,0,0,1.338358759880066,0,0,0.8408399820327759
0.057718985,0,0,1.338358759880066,0,0,0.4586400091648102
0.058052315,0,0,1.3479355573654175,0,0,0.6879600286483765
0.05838583,0,0,1.3479355573654175,0,0,1.1466000080108643
0.058718919,0,0,1.3479355573654175,0,0,1.1466000080108643
0.05905349,0,0,1.3479355573654175,0,0,0.8408399820327759
0.059386024,0,0,1.3479355573654175,0,0,1.070159912109375
0.059718965,0,0,1.314416766166687,0,0,1.070159912109375
0.060052184,0,0,1.314416766166687,0,0,0.9172800183296204
0.060385384,0,0,1.314416766166687,0,0,0.9172800183296204
0.060718917,0,0,1.314416766166687,0,0,0.8408399820327759
0.061052266,0,0,1.314416766166687,0,0,0.611519992351532
0.06138567,0,0,1.53707754611969,0,0,0.5350799560546875
0.061718815,0,0,1.53707754611969,0,0,0.3822000026702881
0.062056348,0,0,1.53707754611969,0,0,0.4586400091648102
0.062385863,0,0,1.53707754611969,0,0,0.611519992351532
0.062719304,0,0,1.53707754611969,0,0,0.152879998087883
0.063052301,0,0,1.5753847360610962,0,0,0.3822000026702881
0.063385779,0,0,1.5753847360610962,0,0,1.452359914779663
0.063731313,0,0,1.5753847360610962,0,0,1.8345600366592407
0.06407092,0,0,1.5753847360610962,0,0,0
0.06441488,0,0,1.5753847360610962,0,0,0.8408399820327759
0.06473471,0,0,1.4532804489135742,0,0,1.452359914779663
0.065073836,0,0,1.4532804489135742,0,0,0.2293200045824051
0.065395314,0,0,1.4532804489135742,0,0,0
0.065734588,0,0,1.4532804489135742,0,0,0
0.066055437,0,0,1.4532804489135742,0,0,0.4586400091648102
0.066386063,0,0,1.4245500564575195,0,0,1.8345600366592407
0.066719171,0,0,1.4245500564575195,0,0,1.1466000080108643
0.067052112,0,0,1.4245500564575195,0,0,1.070159912109375
0.067385646,0,0,1.4245500564575195,0,0,0.9172800183296204
0.067718994,0,0,1.4245500564575195,0,0,0.305759996175766
0.068052009,0,0,1.742978811264038,0,0,0.305759996175766
0.068385395,0,0,1.742978811264038,0,0,0.305759996175766
0.068718891,0,0,1.742978811264038,0,0,1.070159912109375
0.069052018,0,0,1.742978811264038,0,0,0.9172800183296204
0.069385551,0,0,1.742978811264038,0,0,1.375920057296753
0.069729992,0,0,1.434126853942871,0,0,0.6879600286483765
0.070052896,0,0,1.434126853942871,0,0,1.070159912109375
0.070385504,0,0,1.434126853942871,0,0,0.4586400091648102
0.070718797,0,0,1.434126853942871,0,0,0.611519992351532
0.071052423,0,0,1.434126853942871,0,0,0.6879600286483765
0.071385309,0,0,1.3694833517074585,0,0,1.1466000080108643
0.07171899,0,0,1.3694833517074585,0,0,0.9937199950218201
0.072052431,0,0,1.3694833517074585,0,0,0.9937199950218201
0.072390835,0,0,1.3694833517074585,0,0,1.070159912109375
0.072719073,0,0,1.3694833517074585,0,0,0.9172800183296204
0.07305244,0,0,1.3766659498214722,0,0,0.7644000053405762
0.073385418,0,0,1.3766659498214722,0,0,0.5350799560546875
0.073718729,0,0,1.3766659498214722,0,0,1.1466000080108643
0.074052541,0,0,1.3766659498214722,0,0,2.14031982421875
0.074385426,0,0,1.3766659498214722,0,0,0.2293200045824051
0.074718571,0,0,1.3503297567367554,0,0,-0.6879600286483765
0.075052123,0,0,1.3503297567367554,0,0,0.4586400091648102
0.075385694,0,0,1.3503297567367554,0,0,0.8408399820327759
0.075719227,0,0,1.3503297567367554,0,0,0
0.076052242,0,0,1.3503297567367554,0,0,0.3822000026702881
0.076385702,0,0,1.3263877630233765,0,0,0.3822000026702881
0.076718513,0,0,1.3263877630233765,0,0,0.7644000053405762
0.077051899,0,0,1.3263877630233765,0,0,0.152879998087883
0.077385562,0,0,1.3263877630233765,0,0,0.7644000053405762
0.077718948,0,0,1.3263877630233765,0,0,0.9172800183296204
0.078052315,0,0,1.400607943534851,0,0,2.3696401119232178
0.078385515,0,0,1.400607943534851,0,0,1.9874399900436401
0.078718863,0,0,1.400607943534851,0,0,2.14031982421875
0.079052267,0,0,1.400607943534851,0,0,0.8408399820327759
0.079385542,0,0,1.400607943534851,0,0,1.070159912109375
0.079718649,0,0,1.5610195398330688,0,0,0.8408399820327759
0.080051924,0,0,1.5610195398330688,0,0,1.1466000080108643
0.080385494,0,0,1.5610195398330688,0,0,0.8408399820327759
0.080718713,0,0,1.5610195398330688,0,0,0.4586400091648102
0.081052099,0,0,1.5610195398330688,0,0,0.7644000053405762
0.081400595,0,0,1.5610195398330688,0,0,0.8408399820327759
0.081736073,0,0,1.5945383310317993,0,0,0.8408399820327759
0.082064588,0,0,1.5945383310317993,0,0,0.9937199950218201
0.0824004,0,0,1.5945383310317993,0,0,0.9172800183296204
0.082739711,0,0,1.5945383310317993,0,0,1.070159912109375
0.083076152,0,0,1.5945383310317993,0,0,0.9172800183296204
0.083395056,0,0,1.479616641998291,0,0,0.6879600286483765
0.083726108,0,0,1.479616641998291,0,0,0.3822000026702881
0.08405979,0,0,1.479616641998291,0,0,1.5288000106811523
0.084413213,0,0,1.479616641998291,0,0,1.2994799613952637
0.084722765,0,0,1.479616641998291,0,0,0.2293200045824051
0.085052891,0,0,1.6136919260025024,0,0,0.0764399990439415
0.085386277,0,0,1.6136919260025024,0,0,1.223039984703064
0.08577205,0,0,1.6136919260025024,0,0,1.375920057296753
0.086055233,0,0,1.6136919260025024,0,0,0.3822000026702881
0.086386507,0,0,1.6136919260025024,0,0,1.2994799613952637
0.086719559,0,0,1.3958195447921753,0,0,1.2994799613952637
0.087052445,0,0,1.3958195447921753,0,0,1.375920057296753
0.08738609,0,0,1.3958195447921753,0,0,0.9937199950218201
0.087719345,0,0,1.3958195447921753,0,0,1.1466000080108643
0.088052805,0,0,1.3958195447921753,0,0,0.4586400091648102
0.088385598,0,0,1.335964560508728,0,0,0.5350799560546875
0.088719465,0,0,1.335964560508728,0,0,0.2293200045824051
0.089052573,0,0,1.335964560508728,0,0,0.0764399990439415
0.08938594,0,0,1.335964560508728,0,0,9.096360206604004
0.089719381,0,0,1.335964560508728,0,0,0.8408399820327759
0.090052285,0,0,1.4245500564575195,0,0,0.9937199950218201
0.09038604,0,0,1.4245500564575195,0,0,0.9172800183296204
0.090719148,0,0,1.4245500564575195,0,0,0.9937199950218201
0.09105296,0,0,1.4245500564575195,0,0,0.7644000053405762
0.091386086,0,0,1.4245500564575195,0,0,0.611519992351532
0.091719138,0,0,1.359906554222107,0,0,0.9937199950218201
0.092052672,0,0,1.359906554222107,0,0,0.611519992351532
0.092385446,0,0,1.359906554222107,0,0,0.9172800183296204
0.092719091,0,0,1.359906554222107,0,0,0.8408399820327759
0.093057791,0,0,1.359906554222107,0,0,0.611519992351532
0.093386102,0,0,1.3982137441635132,0,0,0.9937199950218201
0.093719043,0,0,1.3982137441635132,0,0,0.611519992351532
0.094052762,0,0,1.3982137441635132,0,0,0.305759996175766
0.094385814,0,0,1.3982137441635132,0,0,0.7644000053405762
0.094719404,0,0,1.3982137441635132,0,0,1.758120059967041
0.095052585,0,0,1.3766659498214722,0,0,0.152879998087883
0.09538586,0,0,1.3766659498214722,0,0,0
0.09571919,0,0,1.3766659498214722,0,0,0.3822000026702881
0.096052649,0,0,1.3766659498214722,0,0,1.452359914779663
0.096385961,0,0,1.3766659498214722,0,0,0.2293200045824051
0.096733087,0,0,1.4963760375976563,0,0,0
0.09707288,0,0,1.4963760375976563,0,0,1.452359914779663
0.097435283,0,0,1.4963760375976563,0,0,1.6816799640655518
0.097734428,0,0,1.4963760375976563,0,0,0.9937199950218201
0.098058925,0,0,1.4963760375976563,0,0,0.9172800183296204
0.098397644,0,0,1.6089035272598267,0,0,0.9937199950218201
0.098742955,0,0,1.6089035272598267,0,0,1.223039984703064
0.099069841,0,0,1.6089035272598267,0,0,1.2994799613952637
0.099398485,0,0,1.6089035272598267,0,0,0.4586400091648102
0.099757334,0,0,1.6089035272598267,0,0,0.8408399820327759
0.100076164,0,0,1.5466543436050415,0,0,2.06387996673584
0.100401271,0,0,1.5466543436050415,0,0,1.070159912109375
0.10073399,0,0,1.5466543436050415,0,0,0.9937199950218201
0.101064931,0,0,1.5466543436050415,0,0,0.7644000053405762
0.101397002,0,0,1.5466543436050415,0,0,0.7644000053405762
0.101732795,0,0,1.5658079385757446,0,0,0.7644000053405762
0.102070588,0,0,1.5658079385757446,0,0,0.7644000053405762
0.102401603,0,0,1.5658079385757446,0,0,0.9937199950218201
0.102725637,0,0,1.5658079385757446,0,0,0.8408399820327759
0.103055152,0,0,1.5658079385757446,0,0,0.6879600286483765
0.103404685,0,0,1.7357962131500244,0,0,0.9172800183296204
0.103726293,0,0,1.7357962131500244,0,0,0.6879600286483765
0.10405203,0,0,1.7357962131500244,0,0,0.8408399820327759
0.104384175,0,0,1.7357962131500244,0,0,0.611519992351532
0.104717264,0,0,1.7357962131500244,0,0,1.223039984703064
0.105050224,0,0,1.3287819623947144,0,0,1.9109998941421509
0.105383776,0,0,1.3287819623947144,0,0,0.5350799560546875
0.105717032,0,0,1.3287819623947144,0,0,-0.152879998087883
0.106050714,0,0,1.3287819623947144,0,0,0.611519992351532
0.106384118,0,0,1.3287819623947144,0,0,1.223039984703064
0.106717466,0,0,1.4700398445129395,0,0,0.0764399990439415
0.107050741,0,0,1.4700398445129395,0,0,0.611519992351532
0.107404904,0,0,1.4700398445129395,0,0,0.6879600286483765
0.107722604,0,0,1.4700398445129395,0,0,0.611519992351532
0.10805173,0,0,1.4700398445129395,0,0,0.0764399990439415
0.108384357,0,0,1.3120225667953491,0,0,0.6879600286483765
0.108717038,0,0,1.3120225667953491,0,0,0.0764399990439415
0.109050572,0,0,1.3120225667953491,0,0,1.1466000080108643
0.109392754,0,0,1.3120225667953491,0,0,1.375920057296753
0.109729232,0,0,1.3120225667953491,0,0,-0.6879600286483765
0.110060025,0,0,1.3838485479354858,0,0,0.4586400091648102
0.110393429,0,0,1.3838485479354858,0,0,0.5350799560546875
0.110727129,0,0,1.3838485479354858,0,0,1.2994799613952637
0.111060126,0,0,1.3838485479354858,0,0,1.9874399900436401
0.111394067,0,0,1.3838485479354858,0,0,1.9874399900436401
0.111726674,0,0,1.3646949529647827,0,0,0.7644000053405762
0.112060282,0,0,1.3646949529647827,0,0,0.611519992351532
0.112393501,0,0,1.3646949529647827,0,0,0.8408399820327759
0.112726849,0,0,1.3646949529647827,0,0,0.7644000053405762
0.113059827,0,0,1.3646949529647827,0,0,0.7644000053405762
0.113393917,0,0,1.460463047027588,0,0,0.7644000053405762
0.113733172,0,0,1.460463047027588,0,0,0.8408399820327759
0.114060613,0,0,1.460463047027588,0,0,0.8408399820327759
0.114393554,0,0,1.460463047027588,0,0,0.5350799560546875
0.114727199,0,0,1.460463047027588,0,0,0.4586400091648102
0.115060307,0,0,1.5490485429763794,0,0,1.070159912109375
0.115398896,0,0,1.5490485429763794,0,0,1.9109998941421509
0.115729837,0,0,1.5490485429763794,0,0,0.611519992351532
0.116063019,0,0,1.5490485429763794,0,0,-0.305759996175766
0.116396238,0,0,1.5490485429763794,0,0,0.8408399820327759
0.116729401,0,0,1.5897499322891235,0,0,0.9937199950218201
0.117062268,0,0,1.5897499322891235,0,0,0.6879600286483765
0.117396024,0,0,1.5897499322891235,0,0,0.5350799560546875
0.117730076,0,0,1.5897499322891235,0,0,1.070159912109375
0.118063536,0,0,1.5897499322891235,0,0,0.9937199950218201
0.118396143,0,0,1.482010841369629,0,0,0.9172800183296204
0.118729603,0,0,1.482010841369629,0,0,0.305759996175766
0.11906247,0,0,1.482010841369629,0,0,0.8408399820327759
0.119396003,0,0,1.482010841369629,0,0,0.9172800183296204
0.11972937,0,0,1.482010841369629,0,0,1.070159912109375
0.120062663,0,0,1.7812861204147339,0,0,0.4586400091648102
0.120396493,0,0,1.7812861204147339,0,0,0.611519992351532
0.120729601,0,0,1.7812861204147339,0,0,0
0.121062801,0,0,1.7812861204147339,0,0,0.9172800183296204
0.121396131,0,0,1.7812861204147339,0,0,-0.3822000026702881
0.121729868,0,0,1.4628572463989258,0,0,1.2994799613952637
0.12206281,0,0,1.4628572463989258,0,0,0.9937199950218201
0.122395917,0,0,1.4628572463989258,0,0,0.8408399820327759
0.122729543,0,0,1.4628572463989258,0,0,0.9172800183296204
0.123085706,0,0,1.4628572463989258,0,0,0.9172800183296204
0.123397685,0,0,1.4173674583435059,0,0,0.4586400091648102
0.123729367,0,0,1.4173674583435059,0,0,0.7644000053405762
0.124067233,0,0,1.4173674583435059,0,0,0.6879600286483765
0.124396545,0,0,1.4173674583435059,0,0,0.9172800183296204
0.124729356,0,0,1.4173674583435059,0,0,0.611519992351532
0.12506289,0,0,1.4724340438842773,0,0,0.6879600286483765
0.125395627,0,0,1.4724340438842773,0,0,0.611519992351532
0.125729161,0,0,1.4724340438842773,0,0,1.9874399900436401
0.126062621,0,0,1.4724340438842773,0,0,0.7644000053405762
0.126396154,0,0,1.4724340438842773,0,0,-0.152879998087883
0.126729466,0,0,1.4245500564575195,0,0,0.6879600286483765
0.127062647,0,0,1.4245500564575195,0,0,1.1466000080108643
0.127398125,0,0,1.4245500564575195,0,0,0.8408399820327759
0.127729733,0,0,1.4245500564575195,0,0,0.5350799560546875
0.128062563,0,0,1.4245500564575195,0,0,1.070159912109375
0.12839593,0,0,1.3623007535934448,0,0,0.5350799560546875
0.128729482,0,0,1.3623007535934448,0,0,1.070159912109375
0.129062553,0,0,1.3623007535934448,0,0,0.305759996175766
0.12939579,0,0,1.3623007535934448,0,0,0.5350799560546875
0.129729342,0,0,1.3623007535934448,0,0,0.611519992351532
0.130062376,0,0,1.359906554222107,0,0,1.1466000080108643
0.130396039,0,0,1.359906554222107,0,0,0.7644000053405762
0.130729777,0,0,1.359906554222107,0,0,0.7644000053405762
0.131062477,0,0,1.359906554222107,0,0,0.6879600286483765
0.131396103,0,0,1.359906554222107,0,0,0.9937199950218201
0.131729359,0,0,1.5466543436050415,0,0,0.6879600286483765
0.132062856,0,0,1.5466543436050415,0,0,1.070159912109375
0.132396241,0,0,1.5466543436050415,0,0,0.611519992351532
0.132729219,0,0,1.5466543436050415,0,0,0.611519992351532
0.133062771,0,0,1.5466543436050415,0,0,0.4586400091648102
0.133395953,0,0,1.623268723487854,0,0,0.7644000053405762
0.133729524,0,0,1.623268723487854,0,0,0.7644000053405762
0.13406228,0,0,1.623268723487854,0,0,0.6879600286483765
0.13439985,0,0,1.623268723487854,0,0,0.611519992351532
0.134729551,0,0,1.623268723487854,0,0,0.611519992351532
0.135062917,0,0,1.482010841369629,0,0,0.4586400091648102
0.135396099,0,0,1.482010841369629,0,0,0.611519992351532
0.135729559,0,0,1.482010841369629,0,0,0.611519992351532
0.136062685,0,0,1.482010841369629,0,0,1.9874399900436401
0.136395737,0,0,1.482010841369629,0,0,0.6879600286483765
0.136729604,0,0,1.5753847360610962,0,0,-0.152879998087883
0.137062638,0,0,1.5753847360610962,0,0,0.7644000053405762
0.137395783,0,0,1.5753847360610962,0,0,1.375920057296753
0.137729594,0,0,1.5753847360610962,0,0,0.8408399820327759
0.138062424,0,0,1.5753847360610962,0,0,0.4586400091648102
0.138395902,0,0,1.5945383310317993,0,0,0.8408399820327759
0.138729417,0,0,1.5945383310317993,0,0,1.1466000080108643
0.139062951,0,0,1.5945383310317993,0,0,1.223039984703064
0.139396077,0,0,1.5945383310317993,0,0,0.6879600286483765
0.139729259,0,0,1.5945383310317993,0,0,1.1466000080108643
0.140063015,0,0,1.434126853942871,0,0,0.5350799560546875
0.140396159,0,0,1.434126853942871,0,0,1.452359914779663
0.140729267,0,0,1.434126853942871,0,0,0.4586400091648102
0.141062597,0,0,1.434126853942871,0,0,0.7644000053405762
0.14139589,0,0,1.434126853942871,0,0,0.4586400091648102
0.141729183,0,0,1.4460978507995605,0,0,1.223039984703064
0.142062809,0,0,1.4460978507995605,0,0,0.7644000053405762
0.142395898,0,0,1.4460978507995605,0,0,1.1466000080108643
0.142728969,0,0,1.4460978507995605,0,0,0.611519992351532
0.143062262,0,0,1.4460978507995605,0,0,0.8408399820327759
0.143396092,0,0,1.4197616577148438,0,0,0.6879600286483765
0.143729514,0,0,1.4197616577148438,0,0,0.9172800183296204
0.144062677,0,0,1.4197616577148438,0,0,1.070159912109375
0.14440597,0,0,1.4197616577148438,0,0,0.7644000053405762
0.144734485,0,0,1.4197616577148438,0,0,0.8408399820327759
0.145063167,0,0,1.381454348564148,0,0,0.9937199950218201
0.14539633,0,0,1.381454348564148,0,0,0.6879600286483765
0.14572916,0,0,1.381454348564148,0,0,0.305759996175766
0.146062601,0,0,1.381454348564148,0,0,0.7644000053405762
0.146395876,0,0,1.381454348564148,0,0,1.8345600366592407
0.146729261,0,0,1.381454348564148,0,0,0.9172800183296204
0.147062869,0,0,1.3527239561080933,0,0,-0.152879998087883
0.147396921,0,0,1.3527239561080933,0,0,0
0.147729603,0,0,1.3527239561080933,0,0,1.1466000080108643
0.148062803,0,0,1.3527239561080933,0,0,0.6879600286483765
0.148395948,0,0,1.3527239561080933,0,0,0.6879600286483765
0.148729093,0,0,1.5203180313110352,0,0,0.9172800183296204
0.14906246,0,0,1.5203180313110352,0,0,1.375920057296753
0.149396086,0,0,1.5203180313110352,0,0,0.9172800183296204
0.149729416,0,0,1.5203180313110352,0,0,0.8408399820327759
0.150063024,0,0,1.5203180313110352,0,0,0.4586400091648102
0.150395854,0,0,1.534683346748352,0,0,0.9172800183296204
0.150729332,0,0,1.534683346748352,0,0,1.1466000080108643
0.151062402,0,0,1.534683346748352,0,0,0.8408399820327759
0.151396103,0,0,1.534683346748352,0,0,1.070159912109375
0.151729377,0,0,1.534683346748352,0,0,0.9172800183296204
0.15206254,0,0,1.599326729774475,0,0,1.5288000106811523
0.152395815,0,0,1.599326729774475,0,0,0.3822000026702881
0.15272983,0,0,1.599326729774475,0,0,1.1466000080108643
0.153062511,0,0,1.599326729774475,0,0,0.3822000026702881
0.153395471,0,0,1.599326729774475,0,0,1.223039984703064
0.153729153,0,0,1.479616641998291,0,0,0.0764399990439415
0.154062798,0,0,1.479616641998291,0,0,0.7644000053405762
0.154396165,0,0,1.479616641998291,0,0,0.305759996175766
0.154728994,0,0,1.479616641998291,0,0,0.9937199950218201
0.155066454,0,0,1.479616641998291,0,0,0.6879600286483765
0.155396728,0,0,1.7070658206939697,0,0,0.8408399820327759
0.155729558,0,0,1.7070658206939697,0,0,0.8408399820327759
0.156062925,0,0,1.7070658206939697,0,0,0.611519992351532
0.156396144,0,0,1.7070658206939697,0,0,0.6879600286483765
0.156729159,0,0,1.7070658206939697,0,0,1.8345600366592407
0.157062748,0,0,1.4460978507995605,0,0,1.2994799613952637
0.157395801,0,0,1.4460978507995605,0,0,0
0.15772926,0,0,1.4460978507995605,0,0,0.152879998087883
0.158062886,0,0,1.4460978507995605,0,0,0.9172800183296204
0.158396068,0,0,1.4460978507995605,0,0,0.5350799560546875
0.158729176,0,0,1.5083470344543457,0,0,0.5350799560546875
0.159062709,0,0,1.5083470344543457,0,0,0.7644000053405762
0.159395873,0,0,1.5083470344543457,0,0,1.070159912109375
0.159729517,0,0,1.5083470344543457,0,0,0.8408399820327759
0.160062736,0,0,1.5083470344543457,0,0,0.8408399820327759
0.160396214,0,0,1.41257905960083,0,0,0.2293200045824051
0.160729081,0,0,1.41257905960083,0,0,1.2994799613952637
0.161063059,0,0,1.41257905960083,0,0,0.9937199950218201
0.161395797,0,0,1.41257905960083,0,0,1.1466000080108643
0.161729423,0,0,1.41257905960083,0,0,0.305759996175766
0.162062827,0,0,1.403002142906189,0,0,1.223039984703064
0.162395657,0,0,1.403002142906189,0,0,0.9172800183296204
0.162729228,0,0,1.403002142906189,0,0,1.605239987373352
0.163062595,0,0,1.403002142906189,0,0,0.9172800183296204
0.163396017,0,0,1.403002142906189,0,0,0.8408399820327759
0.163729699,0,0,1.3646949529647827,0,0,0.9937199950218201
0.164062288,0,0,1.3646949529647827,0,0,0.7644000053405762
0.164395951,0,0,1.3646949529647827,0,0,0.9937199950218201
0.164729003,0,0,1.3646949529647827,0,0,0.9172800183296204
0.165062185,0,0,1.3646949529647827,0,0,1.223039984703064
0.165400145,0,0,1.4628572463989258,0,0,0.4586400091648102
0.165739863,0,0,1.4628572463989258,0,0,1.2994799613952637
0.166063675,0,0,1.4628572463989258,0,0,1.5288000106811523
0.166396079,0,0,1.4628572463989258,0,0,0.3822000026702881
0.166729724,0,0,1.4628572463989258,0,0,0.4586400091648102
0.167062683,0,0,1.53707754611969,0,0,1.5288000106811523
0.167396161,0,0,1.53707754611969,0,0,1.605239987373352
0.167729121,0,0,1.53707754611969,0,0,-0.152879998087883
0.168062729,0,0,1.53707754611969,0,0,0
0.168395873,0,0,1.53707754611969,0,0,1.223039984703064
0.168728944,0,0,1.577778935432434,0,0,1.070159912109375
0.16906257,0,0,1.577778935432434,0,0,0.3822000026702881
0.169395993,0,0,1.577778935432434,0,0,0.8408399820327759
0.169728841,0,0,1.577778935432434,0,0,1.2994799613952637
0.170062616,0,0,1.577778935432434,0,0,0.9172800183296204
0.170395909,0,0,1.479616641998291,0,0,0.611519992351532
0.170728979,0,0,1.479616641998291,0,0,0.4586400091648102
0.171104142,0,0,1.479616641998291,0,0,0.8408399820327759
0.171398121,0,0,1.479616641998291,0,0,0.9172800183296204
0.171727469,0,0,1.479616641998291,0,0,1.070159912109375
0.172060466,0,0,1.721431016921997,0,0,0.611519992351532
0.172393925,0,0,1.721431016921997,0,0,0.9937199950218201
0.172726811,0,0,1.721431016921997,0,0,1.1466000080108643
0.173060011,0,0,1.721431016921997,0,0,1.070159912109375
0.173393378,0,0,1.4987702369689941,0,0,1.1466000080108643
0.173727097,0,0,1.4987702369689941,0,0,0.7644000053405762
0.174060371,0,0,1.4987702369689941,0,0,1.2994799613952637
0.174393553,0,0,1.4987702369689941,0,0,0.9172800183296204
0.17472692,0,0,1.4987702369689941,0,0,1.375920057296753
0.175060046,0,0,1.4987702369689941,0,0,0.0764399990439415
0.175398302,0,0,1.4173674583435059,0,0,-0.6879600286483765
0.175733261,0,0,1.4173674583435059,0,0,0.8408399820327759
0.176062721,0,0,1.4173674583435059,0,0,1.2994799613952637
0.176395458,0,0,1.4173674583435059,0,0,1.1466000080108643
0.176728751,0,0,1.4317326545715332,0,0,1.452359914779663
0.177062303,0,0,1.4317326545715332,0,0,0
0.17739517,0,0,1.4317326545715332,0,0,1.375920057296753
0.17772913,0,0,1.4317326545715332,0,0,1.452359914779663
0.178062108,0,0,1.3215993642807007,0,0,0
0.178395642,0,0,1.3215993642807007,0,0,0
0.178729101,0,0,1.3215993642807007,0,0,0.9937199950218201
0.179061802,0,0,1.3215993642807007,0,0,1.1466000080108643
0.179395391,0,0,1.2258312702178955,0,0,0.9172800183296204
0.179729017,0,0,1.2258312702178955,0,0,0.9172800183296204
0.180062217,0,0,1.2258312702178955,0,0,0.9937199950218201
0.180395325,0,0,1.2258312702178955,0,0,1.223039984703064
0.180728803,0,0,1.2258312702178955,0,0,0.8408399820327759
0.181062226,0,0,1.3742717504501343,0,0,0.611519992351532
0.181395204,0,0,1.3742717504501343,0,0,0.611519992351532
0.181728978,0,0,1.3742717504501343,0,0,0.9172800183296204
0.182062438,0,0,1.3742717504501343,0,0,0.9172800183296204
0.182395212,0,0,1.5203180313110352,0,0,0.305759996175766
0.182728727,0,0,1.5203180313110352,0,0,0.7644000053405762
0.183062409,0,0,1.5203180313110352,0,0,0.4586400091648102
0.183395609,0,0,1.5203180313110352,0,0,1.070159912109375
0.183728254,0,0,1.599326729774475,0,0,0.611519992351532
0.184062306,0,0,1.599326729774475,0,0,1.5288000106811523
0.184395506,0,0,1.599326729774475,0,0,0.7644000053405762
0.184729058,0,0,1.599326729774475,0,0,1.223039984703064
0.185062314,0,0,1.599326729774475,0,0,0.4586400091648102
0.185395329,0,0,1.5179238319396973,0,0,1.070159912109375
0.185728474,0,0,1.5179238319396973,0,0,0.6879600286483765
0.186066137,0,0,1.5179238319396973,0,0,1.9109998941421509
0.186395819,0,0,1.5179238319396973,0,0,0.5350799560546875
0.186728853,0,0,1.5897499322891235,0,0,1.1466000080108643
0.187061961,0,0,1.5897499322891235,0,0,0.611519992351532
0.187396253,0,0,1.5897499322891235,0,0,0.7644000053405762
0.187728991,0,0,1.5897499322891235,0,0,0.8408399820327759
0.188062191,0,0,1.6639702320098877,0,0,2.2167599201202393
0.188395447,0,0,1.6639702320098877,0,0,0.305759996175766
0.188728573,0,0,1.6639702320098877,0,0,-0.305759996175766
0.189061681,0,0,1.6639702320098877,0,0,0.9937199950218201
0.189395566,0,0,1.6639702320098877,0,0,1.070159912109375
0.189728674,0,0,1.3862427473068237,0,0,0.7644000053405762
0.190062171,0,0,1.3862427473068237,0,0,0.5350799560546875
0.190395427,0,0,1.3862427473068237,0,0,0.8408399820327759
0.190728905,0,0,1.3862427473068237,0,0,1.070159912109375
0.191062197,0,0,1.4484920501708984,0,0,0.9172800183296204
0.191395657,0,0,1.4484920501708984,0,0,0.0764399990439415
0.191729005,0,0,1.4484920501708984,0,0,0.7644000053405762
0.192061835,0,0,1.4484920501708984,0,0,1.1466000080108643
0.192395573,0,0,1.259350061416626,0,0,0.8408399820327759
0.192728792,0,0,1.259350061416626,0,0,0.5350799560546875
0.193062307,0,0,1.259350061416626,0,0,0.7644000053405762
0.193395377,0,0,1.259350061416626,0,0,0.9937199950218201
0.193728615,0,0,1.259350061416626,0,0,1.2994799613952637
0.194062074,0,0,1.3024457693099976,0,0,0.5350799560546875
0.194395719,0,0,1.3024457693099976,0,0,0.9937199950218201
0.194728845,0,0,1.3024457693099976,0,0,0.2293200045824051
0.195062157,0,0,1.3024457693099976,0,0,0.7644000053405762
0.195395598,0,0,1.2641384601593018,0,0,0.152879998087883
0.195729039,0,0,1.2641384601593018,0,0,1.1466000080108643
0.196062054,0,0,1.2641384601593018,0,0,0
0.196399587,0,0,1.2641384601593018,0,0,1.5288000106811523
0.196729177,0,0,1.45806884765625,0,0,0.305759996175766
0.197062284,0,0,1.45806884765625,0,0,1.2994799613952637
0.197395281,0,0,1.45806884765625,0,0,0.5350799560546875
0.197728981,0,0,1.45806884765625,0,0,1.9874399900436401
0.198062348,0,0,1.5849615335464478,0,0,0.6879600286483765
0.198395549,0,0,1.5849615335464478,0,0,1.5288000106811523
0.198728767,0,0,1.5849615335464478,0,0,0.8408399820327759
0.199061968,0,0,1.5849615335464478,0,0,1.5288000106811523
0.199395927,0,0,1.5849615335464478,0,0,0.9172800183296204
0.19972872,0,0,1.5658079385757446,0,0,1.070159912109375
0.200062198,0,0,1.5658079385757446,0,0,0.8408399820327759
0.200395491,0,0,1.5658079385757446,0,0,0.611519992351532
0.200728784,0,0,1.5658079385757446,0,0,0.9937199950218201
0.201062299,0,0,1.4077905416488647,0,0,1.1466000080108643
0.201395351,0,0,1.4077905416488647,0,0,0.4586400091648102
0.201728792,0,0,1.4077905416488647,0,0,0.5350799560546875
0.202062233,0,0,1.4077905416488647,0,0,0.7644000053405762
0.202395322,0,0,1.7190368175506592,0,0,0.9172800183296204
0.202729078,0,0,1.7190368175506592,0,0,1.1466000080108643
0.20306213,0,0,1.7190368175506592,0,0,0.2293200045824051
0.20339559,0,0,1.7190368175506592,0,0,0.4586400091648102
0.203729457,0,0,1.7190368175506592,0,0,0.7644000053405762
0.204062435,0,0,1.4077905416488647,0,0,1.1466000080108643
0.204395598,0,0,1.4077905416488647,0,0,1.070159912109375
0.20472878,0,0,1.4077905416488647,0,0,0.9172800183296204
0.205062388,0,0,1.4077905416488647,0,0,0.9937199950218201
0.205395644,0,0,1.3239935636520386,0,0,0.9172800183296204
0.205729048,0,0,1.3239935636520386,0,0,0.611519992351532
0.206062063,0,0,1.3239935636520386,0,0,0.9172800183296204
0.206395541,0,0,1.3239935636520386,0,0,0.152879998087883
0.206732241,0,0,1.2952631711959839,0,0,1.070159912109375
0.207062404,0,0,1.2952631711959839,0,0,0
0.207402994,0,0,1.2952631711959839,0,0,0.7644000053405762
0.207731805,0,0,1.2952631711959839,0,0,0.5350799560546875
0.208062728,0,0,1.2952631711959839,0,0,1.6816799640655518
0.208395817,0,0,1.357512354850769,0,0,0.0764399990439415
0.208728924,0,0,1.357512354850769,0,0,2.14031982421875
0.209062106,0,0,1.357512354850769,0,0,1.5288000106811523
0.209395381,0,0,1.357512354850769,0,0,1.5288000106811523
0.209747803,0,0,1.2545616626739502,0,0,1.070159912109375
0.2100798,0,0,1.2545616626739502,0,0,1.1466000080108643
0.210410741,0,0,1.2545616626739502,0,0,0.611519992351532
0.210743756,0,0,1.2545616626739502,0,0,0.5350799560546875
0.211076604,0,0,1.4053963422775269,0,0,0.6879600286483765
0.211410527,0,0,1.4053963422775269,0,0,0.8408399820327759
0.211743653,0,0,1.4053963422775269,0,0,0.4586400091648102
0.212077001,0,0,1.4053963422775269,0,0,0.3822000026702881
0.212410183,0,0,1.558625340461731,0,0,0.5350799560546875
0.212757087,0,0,1.558625340461731,0,0,1.070159912109375
0.213078306,0,0,1.558625340461731,0,0,0.9937199950218201
0.213410099,0,0,1.558625340461731,0,0,0.7644000053405762
0.213743947,0,0,1.558625340461731,0,0,0.4586400091648102
0.214076425,0,0,1.5466543436050415,0,0,0.9172800183296204
0.214409959,0,0,1.5466543436050415,0,0,0.6879600286483765
0.214743882,0,0,1.5466543436050415,0,0,1.070159912109375
0.215076971,0,0,1.5466543436050415,0,0,0.8408399820327759
0.215410412,0,0,1.45806884765625,0,0,1.1466000080108643
0.215744057,0,0,1.45806884765625,0,0,0.9937199950218201
0.21607672,0,0,1.45806884765625,0,0,0.8408399820327759
0.216410272,0,0,1.45806884765625,0,0,0.7644000053405762
0.216743935,0,0,1.723825216293335,0,0,0.4586400091648102
0.217081932,0,0,1.723825216293335,0,0,0.611519992351532
0.217411002,0,0,1.723825216293335,0,0,0.6879600286483765
0.217743944,0,0,1.723825216293335,0,0,0.6879600286483765
0.21807657,0,0,1.723825216293335,0,0,1.1466000080108643
0.218410011,0,0,1.5682021379470825,0,0,0.6879600286483765
0.218743211,0,0,1.5682021379470825,0,0,0.8408399820327759
0.219076874,0,0,1.5682021379470825,0,0,0.611519992351532
0.219410686,0,0,1.5682021379470825,0,0,2.06387996673584
0.219743719,0,0,1.3287819623947144,0,0,-0.2293200045824051
0.220077068,0,0,1.3287819623947144,0,0,-9.172800064086914
0.220409972,0,0,1.3287819623947144,0,0,9.096360206604004
0.22074282,0,0,1.3287819623947144,0,0,0.7644000053405762
0.221076947,0,0,1.4245500564575195,0,0,0.305759996175766
0.221410073,0,0,1.4245500564575195,0,0,0.9937199950218201
0.221743162,0,0,1.4245500564575195,0,0,0.9937199950218201
0.222076696,0,0,1.4245500564575195,0,0,0.7644000053405762
0.222409785,0,0,1.4245500564575195,0,0,0.2293200045824051
0.22274317,0,0,1.400607943534851,0,0,0.8408399820327759
0.2230765,0,0,1.400607943534851,0,0,0.9172800183296204
0.223413386,0,0,1.400607943534851,0,0,1.375920057296753
0.223743975,0,0,1.400607943534851,0,0,0.8408399820327759
0.224076805,0,0,1.4197616577148438,0,0,0.6879600286483765
0.22440982,0,0,1.4197616577148438,0,0,0.9172800183296204
0.224743261,0,0,1.4197616577148438,0,0,0.9172800183296204
0.225076998,0,0,1.4197616577148438,0,0,1.223039984703064
0.225410365,0,0,1.37906014919281,0,0,0.9937199950218201
0.225743232,0,0,1.37906014919281,0,0,1.070159912109375
0.226077173,0,0,1.37906014919281,0,0,0.305759996175766
0.226409522,0,0,1.37906014919281,0,0,0.7644000053405762
0.22674337,0,0,1.4915876388549805,0,0,0.9172800183296204
0.227077182,0,0,1.4915876388549805,0,0,0.9937199950218201
0.227415104,0,0,1.4915876388549805,0,0,0.7644000053405762
0.227744212,0,0,1.4915876388549805,0,0,0.7644000053405762
0.228077319,0,0,1.4915876388549805,0,0,0.6879600286483765
0.228410612,0,0,1.580173134803772,0,0,0.9937199950218201
0.228743627,0,0,1.580173134803772,0,0,0.7644000053405762
0.229077291,0,0,1.580173134803772,0,0,0.3822000026702881
0.229410547,0,0,1.580173134803772,0,0,0.7644000053405762
0.229743636,0,0,1.4317326545715332,0,0,1.758120059967041
0.230076503,0,0,1.4317326545715332,0,0,0.611519992351532
0.230410536,0,0,1.4317326545715332,0,0,0.7644000053405762
0.230743533,0,0,1.4317326545715332,0,0,0.6879600286483765
0.231076807,0,0,1.5131354331970215,0,0,2.14031982421875
0.231409767,0,0,1.5131354331970215,0,0,9.554999351501465
0.231751837,0,0,1.5131354331970215,0,0,0.6879600286483765
0.232093593,0,0,1.5131354331970215,0,0,1.1466000080108643
0.232414294,0,0,1.5131354331970215,0,0,0.9937199950218201
0.23274455,0,0,1.7166426181793213,0,0,0.5350799560546875
0.233076713,0,0,1.7166426181793213,0,0,0.6879600286483765
0.233410321,0,0,1.7166426181793213,0,0,1.070159912109375
0.233743576,0,0,1.7166426181793213,0,0,1.1466000080108643
0.234077554,0,0,1.3910311460494995,0,0,0.7644000053405762
0.234410551,0,0,1.3910311460494995,0,0,0.6879600286483765
0.234743807,0,0,1.3910311460494995,0,0,0.3822000026702881
0.235077359,0,0,1.3910311460494995,0,0,1.070159912109375
0.235410967,0,0,1.4939818382263184,0,0,0.9172800183296204
0.235743612,0,0,1.4939818382263184,0,0,0.611519992351532
0.236076127,0,0,1.4939818382263184,0,0,0.9172800183296204
0.236409938,0,0,1.4939818382263184,0,0,0.6879600286483765
0.236743675,0,0,1.4939818382263184,0,0,0.4586400091648102
0.237076672,0,0,1.3694833517074585,0,0,0.3822000026702881
0.237410057,0,0,1.3694833517074585,0,0,1.223039984703064
0.237748406,0,0,1.3694833517074585,0,0,0.4586400091648102
0.238084939,0,0,1.3694833517074585,0,0,0.5350799560546875
0.238434954,0,0,1.3862427473068237,0,0,0.5350799560546875
0.23875897,0,0,1.3862427473068237,0,0,1.1466000080108643
0.239081059,0,0,1.3862427473068237,0,0,0.8408399820327759
0.239414667,0,0,1.3862427473068237,0,0,0
0.239744534,0,0,1.2952631711959839,0,0,0.7644000053405762
0.240077493,0,0,1.2952631711959839,0,0,1.9874399900436401
0.240410175,0,0,1.2952631711959839,0,0,0.5350799560546875
0.240743912,0,0,1.2952631711959839,0,0,0
0.241077002,0,0,1.2952631711959839,0,0,0.6879600286483765
0.241410628,0,0,1.5418659448623657,0,0,1.2994799613952637
0.241744198,0,0,1.5418659448623657,0,0,0.611519992351532
0.242077306,0,0,1.5418659448623657,0,0,0.5350799560546875
0.242410081,0,0,1.5418659448623657,0,0,0.9937199950218201
0.242743466,0,0,1.6280571222305298,0,0,0.6879600286483765
0.243077037,0,0,1.6280571222305298,0,0,0.611519992351532
0.243410589,0,0,1.6280571222305298,0,0,0.7644000053405762
0.243744252,0,0,1.6280571222305298,0,0,0.9937199950218201
0.244077175,0,0,1.7094600200653076,0,0,1.1466000080108643
0.244410616,0,0,1.7094600200653076,0,0,0.611519992351532
0.24474402,0,0,1.7094600200653076,0,0,0.9172800183296204
0.245077424,0,0,1.7094600200653076,0,0,0.611519992351532
0.245410754,0,0,1.7094600200653076,0,0,0.9172800183296204
0.245743787,0,0,1.5753847360610962,0,0,0.8408399820327759
0.246078247,0,0,1.5753847360610962,0,0,1.070159912109375
0.246410354,0,0,1.5753847360610962,0,0,0.8408399820327759
0.246743684,0,0,1.5753847360610962,0,0,1.1466000080108643
0.247077755,0,0,1.7525556087493896,0,0,0.611519992351532
0.247411678,0,0,1.7525556087493896,0,0,0.9172800183296204
0.24774373,0,0,1.7525556087493896,0,0,0.3822000026702881
0.248083634,0,0,1.7525556087493896,0,0,0.6879600286483765
0.248410816,0,0,1.479616641998291,0,0,0.152879998087883
0.248743794,0,0,1.479616641998291,0,0,1.1466000080108643
0.24907742,0,0,1.479616641998291,0,0,0.9172800183296204
0.249410231,0,0,1.479616641998291,0,0,0.7644000053405762
0.24974332,0,0,1.479616641998291,0,0,0.305759996175766
0.250077558,0,0,1.403002142906189,0,0,0.611519992351532
0.250410888,0,0,1.403002142906189,0,0,1.605239987373352
0.250760958,0,0,1.403002142906189,0,0,0.5350799560546875
0.251078122,0,0,1.403002142906189,0,0,-0.305759996175766
0.251410989,0,0,1.3096283674240112,0,0,-0.3822000026702881
0.251743819,0,0,1.3096283674240112,0,0,2.06387996673584
0.252077408,0,0,1.3096283674240112,0,0,0.4586400091648102
0.252431126,0,0,1.3096283674240112,0,0,1.452359914779663
0.252748086,0,0,1.403002142906189,0,0,1.452359914779663
0.253077453,0,0,1.403002142906189,0,0,1.2994799613952637
0.253410839,0,0,1.403002142906189,0,0,0.8408399820327759
0.253744039,0,0,1.403002142906189,0,0,0.611519992351532
0.254077313,0,0,1.403002142906189,0,0,0.6879600286483765
0.254410532,0,0,1.3694833517074585,0,0,1.1466000080108643
0.254744047,0,0,1.3694833517074585,0,0,0.6879600286483765
0.255076692,0,0,1.3694833517074585,0,0,0.611519992351532
0.2554108,0,0,1.3694833517074585,0,0,0.8408399820327759
0.255743667,0,0,1.403002142906189,0,0,0.8408399820327759
0.256076941,0,0,1.403002142906189,0,0,1.223039984703064
0.256409975,0,0,1.403002142906189,0,0,1.070159912109375
0.25674373,0,0,1.403002142906189,0,0,1.223039984703064
0.257077283,0,0,1.5873557329177856,0,0,0.9172800183296204
0.257410113,0,0,1.5873557329177856,0,0,0.7644000053405762
0.257743924,0,0,1.5873557329177856,0,0,0.8408399820327759
0.258076939,0,0,1.5873557329177856,0,0,0.6879600286483765
0.258416102,0,0,1.5873557329177856,0,0,0.9937199950218201
0.258744284,0,0,1.6400281190872192,0,0,0.4586400091648102
0.259076688,0,0,1.6400281190872192,0,0,1.223039984703064
0.259410351,0,0,1.6400281190872192,0,0,0.6879600286483765
0.259743959,0,0,1.6400281190872192,0,0,0.8408399820327759
0.260077048,0,0,1.4484920501708984,0,0,-0.305759996175766
0.260410378,0,0,1.4484920501708984,0,0,1.2994799613952637
0.260744264,0,0,1.4484920501708984,0,0,1.6816799640655518
0.261077297,0,0,1.4484920501708984,0,0,0.9172800183296204
0.261410535,0,0,1.6328455209732056,0,0,-0.4586400091648102
0.261744087,0,0,1.6328455209732056,0,0,0.8408399820327759
0.262077083,0,0,1.6328455209732056,0,0,0.9172800183296204
0.26241095,0,0,1.6328455209732056,0,0,1.223039984703064
0.262743799,0,0,1.6184803247451782,0,0,1.070159912109375
0.263077166,0,0,1.6184803247451782,0,0,0
0.263410848,0,0,1.6184803247451782,0,0,2.14031982421875
0.263743455,0,0,1.6184803247451782,0,0,0.4586400091648102
0.264077007,0,0,1.6184803247451782,0,0,0.9172800183296204
0.264410578,0,0,1.3646949529647827,0,0,0.8408399820327759
0.264743612,0,0,1.3646949529647827,0,0,1.223039984703064
0.265077053,0,0,1.3646949529647827,0,0,0.9937199950218201
0.265410253,0,0,1.3646949529647827,0,0,0.7644000053405762
0.265743916,0,0,1.4245500564575195,0,0,0.6879600286483765
0.266077283,0,0,1.4245500564575195,0,0,0.9937199950218201
0.266410724,0,0,1.4245500564575195,0,0,0.8408399820327759
0.266743388,0,0,1.4245500564575195,0,0,1.070159912109375
0.267077051,0,0,1.3024457693099976,0,0,1.2994799613952637
0.267410196,0,0,1.3024457693099976,0,0,0.7644000053405762
0.267743803,0,0,1.3024457693099976,0,0,0.6879600286483765
0.268077115,0,0,1.3024457693099976,0,0,0.8408399820327759
0.268410741,0,0,1.3024457693099976,0,0,0.611519992351532
0.268749367,0,0,1.37906014919281,0,0,1.070159912109375
0.269077364,0,0,1.37906014919281,0,0,0.8408399820327759
0.269410175,0,0,1.37906014919281,0,0,0.6879600286483765
0.269764968,0,0,1.37906014919281,0,0,0.611519992351532
0.270078631,0,0,1.400607943534851,0,0,0.9937199950218201
0.270410628,0,0,1.400607943534851,0,0,0.0764399990439415
0.270744013,0,0,1.400607943534851,0,0,1.070159912109375
0.27107714,0,0,1.400607943534851,0,0,1.452359914779663
0.271410784,0,0,1.4939818382263184,0,0,1.452359914779663
0.271743411,0,0,1.4939818382263184,0,0,-0.611519992351532
0.272088648,0,0,1.4939818382263184,0,0,0.4586400091648102
0.272411385,0,0,1.4939818382263184,0,0,0.0764399990439415
0.272744011,0,0,1.4939818382263184,0,0,1.375920057296753
0.273077156,0,0,1.5825673341751099,0,0,0.305759996175766
0.273410505,0,0,1.5825673341751099,0,0,0.9937199950218201
0.273743705,0,0,1.5825673341751099,0,0,0.7644000053405762
0.274077053,0,0,1.5825673341751099,0,0,0.0764399990439415
0.27441042,0,0,1.5729905366897583,0,0,1.5288000106811523
0.274743936,0,0,1.5729905366897583,0,0,0
0.275076728,0,0,1.5729905366897583,0,0,1.070159912109375
0.275410392,0,0,1.5729905366897583,0,0,1.1466000080108643
0.275743388,0,0,1.6184803247451782,0,0,0.8408399820327759
0.276077163,0,0,1.6184803247451782,0,0,0.6879600286483765
0.276410344,0,0,1.6184803247451782,0,0,0.7644000053405762
0.276743582,0,0,1.6184803247451782,0,0,0.8408399820327759
0.277076967,0,0,1.7477672100067139,0,0,0.9172800183296204
0.277410223,0,0,1.7477672100067139,0,0,0.9172800183296204
0.277743497,0,0,1.7477672100067139,0,0,1.1466000080108643
0.278076605,0,0,1.7477672100067139,0,0,0.7644000053405762
0.278409713,0,0,1.7477672100067139,0,0,0.7644000053405762
0.278744172,0,0,1.338358759880066,0,0,0.8408399820327759
0.279081484,0,0,1.338358759880066,0,0,0.9937199950218201
0.27941098,0,0,1.338358759880066,0,0,0.7644000053405762
0.27974457,0,0,1.338358759880066,0,0,0.4586400091648102
0.280077085,0,0,1.4532804489135742,0,0,0.611519992351532
0.280410174,0,0,1.4532804489135742,0,0,0.9937199950218201
0.280743782,0,0,1.4532804489135742,0,0,0.5350799560546875
0.281077,0,0,1.4532804489135742,0,0,0.9172800183296204
0.281410238,0,0,1.3287819623947144,0,0,1.2994799613952637
0.281743679,0,0,1.3287819623947144,0,0,1.452359914779663
0.282076694,0,0,1.3287819623947144,0,0,-0.6879600286483765
0.282410116,0,0,1.3287819623947144,0,0,0.6879600286483765
0.282743539,0,0,1.3287819623947144,0,0,0.8408399820327759
0.283077073,0,0,1.3646949529647827,0,0,1.223039984703064
0.283410291,0,0,1.3646949529647827,0,0,-0.4586400091648102
0.283743695,0,0,1.3646949529647827,0,0,1.1466000080108643
0.284076859,0,0,1.3646949529647827,0,0,0.6879600286483765
0.284410392,0,0,1.3287819623947144,0,0,0.9937199950218201
0.284743815,0,0,1.3287819623947144,0,0,0.3822000026702881
0.28507696,0,0,1.3287819623947144,0,0,1.070159912109375
0.285410197,0,0,1.3287819623947144,0,0,0.2293200045824051
0.285743138,0,0,1.460463047027588,0,0,0.2293200045824051
0.28607732,0,0,1.460463047027588,0,0,1.2994799613952637
0.286410446,0,0,1.460463047027588,0,0,0.611519992351532
0.286743498,0,0,1.460463047027588,0,0,0.9172800183296204
0.287077143,0,0,1.460463047027588,0,0,1.1466000080108643
0.28741088,0,0,1.5825673341751099,0,0,0.8408399820327759
0.287743914,0,0,1.5825673341751099,0,0,0.9937199950218201
0.288077485,0,0,1.5825673341751099,0,0,0.9172800183296204
0.28841074,0,0,1.5825673341751099,0,0,0.8408399820327759
0.288743404,0,0,1.5514427423477173,0,0,0.5350799560546875
0.289076993,0,0,1.5514427423477173,0,0,0.7644000053405762
0.289414804,0,0,1.5514427423477173,0,0,0.9937199950218201
0.289744116,0,0,1.5514427423477173,0,0,0.4586400091648102
0.29007702,0,0,1.3718775510787964,0,0,0.6879600286483765
0.290410109,0,0,1.3718775510787964,0,0,0.9172800183296204
0.290743642,0,0,1.3718775510787964,0,0,0.8408399820327759
0.291077121,0,0,1.3718775510787964,0,0,0.4586400091648102
0.291410339,0,0,1.7286136150360107,0,0,0.6879600286483765
0.29174404,0,0,1.7286136150360107,0,0,1.375920057296753
0.292077166,0,0,1.7286136150360107,0,0,1.605239987373352
0.292410607,0,0,1.7286136150360107,0,0,-0.2293200045824051
0.292743548,0,0,1.7286136150360107,0,0,0.152879998087883
0.293076952,0,0,1.4724340438842773,0,0,0.611519992351532
0.293422615,0,0,1.4724340438842773,0,0,1.375920057296753
0.293744834,0,0,1.4724340438842773,0,0,0.305759996175766
0.294077294,0,0,1.4724340438842773,0,0,1.223039984703064
0.294410587,0,0,1.3934253454208374,0,0,0.4586400091648102
0.294743583,0,0,1.3934253454208374,0,0,1.223039984703064
0.295076746,0,0,1.3934253454208374,0,0,-0.6879600286483765
0.295413076,0,0,1.3934253454208374,0,0,1.070159912109375
0.29574424,0,0,1.4053963422775269,0,0,0.152879998087883
0.29607744,0,0,1.4053963422775269,0,0,1.6816799640655518
0.296410511,0,0,1.4053963422775269,0,0,0.6879600286483765
0.29674347,0,0,1.4053963422775269,0,0,0
0.297076559,0,0,1.4053963422775269,0,0,1.1466000080108643
0.297410667,0,0,1.3766659498214722,0,0,0.8408399820327759
0.297743256,0,0,1.3766659498214722,0,0,0.9937199950218201
0.298076882,0,0,1.3766659498214722,0,0,0.9172800183296204
0.298409953,0,0,1.3766659498214722,0,0,1.1466000080108643
0.298743487,0,0,1.3120225667953491,0,0,0.4586400091648102
0.299076965,0,0,1.3120225667953491,0,0,0.7644000053405762
0.299410887,0,0,1.3120225667953491,0,0,0.7644000053405762
0.299748014,0,0,1.3120225667953491,0,0,0.611519992351532
0.300077658,0,0,1.2976573705673218,0,0,0.7644000053405762
0.300410247,0,0,1.2976573705673218,0,0,0.6879600286483765
0.300744096,0,0,1.2976573705673218,0,0,0.9172800183296204
0.301077018,0,0,1.2976573705673218,0,0,0.9172800183296204
0.30141033,0,0,1.2976573705673218,0,0,0.3822000026702881
0.301743715,0,0,1.5969325304031372,0,0,0.8408399820327759
0.302077138,0,0,1.5969325304031372,0,0,1.605239987373352
0.302410542,0,0,1.5969325304031372,0,0,1.1466000080108643
0.302743798,0,0,1.5969325304031372,0,0,0
0.303077165,0,0,1.6041151285171509,0,0,0.305759996175766
0.303410976,0,0,1.6041151285171509,0,0,1.070159912109375
0.303743639,0,0,1.6041151285171509,0,0,1.223039984703064
0.304077377,0,0,1.6041151285171509,0,0,0.6879600286483765
0.304410114,0,0,1.522712230682373,0,0,0.9937199950218201
0.304744185,0,0,1.522712230682373,0,0,1.070159912109375
0.305076866,0,0,1.522712230682373,0,0,1.452359914779663
0.305410678,0,0,1.522712230682373,0,0,0.0764399990439415
0.305744026,0,0,1.6160861253738403,0,0,1.070159912109375
0.306077578,0,0,1.6160861253738403,0,0,0.152879998087883
0.306410371,0,0,1.6160861253738403,0,0,2.522519826889038
0.30674359,0,0,1.6160861253738403,0,0,0.0764399990439415
0.307076957,0,0,1.6160861253738403,0,0,0.7644000053405762
0.307422065,0,0,1.6089035272598267,0,0,1.5288000106811523
0.307746654,0,0,1.6089035272598267,0,0,1.452359914779663
0.308077447,0,0,1.6089035272598267,0,0,0.7644000053405762
0.308410407,0,0,1.6089035272598267,0,0,0.5350799560546875
0.308743292,0,0,1.3479355573654175,0,0,0.8408399820327759
0.309077326,0,0,1.3479355573654175,0,0,0.5350799560546875
0.30940973,0,0,1.3479355573654175,0,0,0.7644000053405762
0.30976267,0,0,1.3479355573654175,0,0,0.6879600286483765
0.310084575,0,0,1.4245500564575195,0,0,0.5350799560546875
0.310408497,0,0,1.4245500564575195,0,0,0.611519992351532
0.310736624,0,0,1.4245500564575195,0,0,0.7644000053405762
0.311069268,0,0,1.4245500564575195,0,0,0.5350799560546875
0.31140232,0,0,1.4245500564575195,0,0,1.070159912109375
0.311735743,0,0,1.3742717504501343,0,0,0.2293200045824051
0.312069054,0,0,1.3742717504501343,0,0,0.8408399820327759
0.312402736,0,0,1.3742717504501343,0,0,1.070159912109375
0.312734992,0,0,1.3742717504501343,0,0,1.375920057296753
0.313068563,0,0,1.403002142906189,0,0,0
0.313401948,0,0,1.403002142906189,0,0,0
0.313735278,0,0,1.403002142906189,0,0,1.223039984703064
0.314069367,0,0,1.403002142906189,0,0,1.375920057296753
0.314401586,0,0,1.4245500564575195,0,0,0.7644000053405762
0.314751805,0,0,1.4245500564575195,0,0,0.6879600286483765
0.315069542,0,0,1.4245500564575195,0,0,1.375920057296753
0.315402446,0,0,1.4245500564575195,0,0,0.611519992351532
0.315735369,0,0,1.4245500564575195,0,0,0.6879600286483765
0.316068495,0,0,1.4652514457702637,0,0,0.4586400091648102
0.316401547,0,0,1.4652514457702637,0,0,1.2994799613952637
0.316735544,0,0,1.4652514457702637,0,0,0.9937199950218201
0.317068633,0,0,1.4652514457702637,0,0,0.9937199950218201
0.317401981,0,0,1.580173134803772,0,0,0.8408399820327759
0.317735422,0,0,1.580173134803772,0,0,0.6879600286483765
0.318068938,0,0,1.580173134803772,0,0,0.6879600286483765
0.318402379,0,0,1.580173134803772,0,0,0.9937199950218201
0.318735227,0,0,1.5729905366897583,0,0,1.2994799613952637
0.319068446,0,0,1.5729905366897583,0,0,1.1466000080108643
0.319401831,0,0,1.5729905366897583,0,0,0.9172800183296204
0.319735235,0,0,1.5729905366897583,0,0,0.7644000053405762
0.320068565,0,0,1.4389152526855469,0,0,0.8408399820327759
0.320407247,0,0,1.4389152526855469,0,0,0.7644000053405762
0.320735781,0,0,1.4389152526855469,0,0,0.6879600286483765
0.321068499,0,0,1.7190368175506592,0,0,0.6879600286483765
0.321402107,0,0,1.7190368175506592,0,0,0.5350799560546875
0.321735363,0,0,1.7190368175506592,0,0,0.611519992351532
0.322068452,0,0,1.7190368175506592,0,0,0.2293200045824051
0.322401727,0,0,1.3862427473068237,0,0,0.7644000053405762
0.322735427,0,0,1.3862427473068237,0,0,1.070159912109375
0.323068553,0,0,1.3862427473068237,0,0,1.8345600366592407
0.323401976,0,0,1.3862427473068237,0,0,0
0.32373588,0,0,1.3670891523361206,0,0,0.6879600286483765
0.324068802,0,0,1.3670891523361206,0,0,0.6879600286483765
0.324401706,0,0,1.3670891523361206,0,0,0.9172800183296204
0.324735221,0,0,1.3527239561080933,0,0,0.611519992351532
0.325068792,0,0,1.3527239561080933,0,0,1.1466000080108643
0.32540177,0,0,1.3527239561080933,0,0,1.758120059967041
0.325735618,0,0,1.3527239561080933,0,0,0.4586400091648102
0.326068541,0,0,1.400607943534851,0,0,1.1466000080108643
0.326401982,0,0,1.400607943534851,0,0,0.0764399990439415
0.326735349,0,0,1.400607943534851,0,0,0.9937199950218201
0.327068753,0,0,1.3311761617660522,0,0,0.6879600286483765
0.327402139,0,0,1.3311761617660522,0,0,1.375920057296753
0.327735561,0,0,1.3311761617660522,0,0,0.4586400091648102
0.328069039,0,0,1.3311761617660522,0,0,0.9172800183296204
0.328401795,0,0,1.4173674583435059,0,0,0.611519992351532
0.32873518,0,0,1.4173674583435059,0,0,1.2994799613952637
0.329068325,0,0,1.4173674583435059,0,0,1.070159912109375
0.329402025,0,0,1.4173674583435059,0,0,1.223039984703064
0.329735355,0,0,1.5490485429763794,0,0,1.223039984703064
0.330068759,0,0,1.5490485429763794,0,0,0.5350799560546875
0.330402219,0,0,1.5490485429763794,0,0,0.9937199950218201
0.330739197,0,0,1.5705963373184204,0,0,0.611519992351532
0.331069138,0,0,1.5705963373184204,0,0,0.4586400091648102
0.331401616,0,0,1.5705963373184204,0,0,0.6879600286483765
0.331735039,0,0,1.5705963373184204,0,0,0.611519992351532
0.332076054,0,0,1.381454348564148,0,0,0.7644000053405762
0.332428476,0,0,1.381454348564148,0,0,0.7644000053405762
0.332753658,0,0,1.381454348564148,0,0,0.3822000026702881
0.333081136,0,0,1.6831238269805908,0,0,1.1466000080108643
0.333415762,0,0,1.6831238269805908,0,0,1.8345600366592407
0.333749963,0,0,1.6831238269805908,0,0,0.305759996175766
0.334085996,0,0,1.6831238269805908,0,0,0
0.334430048,0,0,1.5682021379470825,0,0,0.611519992351532
0.334756434,0,0,1.5682021379470825,0,0,0.7644000053405762
0.335088486,0,0,1.5682021379470825,0,0,0.5350799560546875
0.335418723,0,0,1.4221558570861816,0,0,0.7644000053405762
0.335751572,0,0,1.4221558570861816,0,0,0.9172800183296204
0.336115198,0,0,1.4221558570861816,0,0,0.6879600286483765
0.336419287,0,0,1.4221558570861816,0,0,-9.019920349121094
0.336875505,0,0,1.4269442558288574,0,0,-0.611519992351532
0.337085373,0,0,1.4269442558288574,0,0,0.8408399820327759
0.337419536,0,0,1.4269442558288574,0,0,1.2994799613952637
0.337747625,0,0,1.4269442558288574,0,0,1.375920057296753
0.338072641,0,0,1.3263877630233765,0,0,0.8408399820327759
0.338403082,0,0,1.3263877630233765,0,0,1.5288000106811523
0.338735226,0,0,1.3263877630233765,0,0,0.152879998087883
0.339079834,0,0,1.2521674633026123,0,0,0.7644000053405762
0.339405516,0,0,1.2521674633026123,0,0,2.2167599201202393
0.339735753,0,0,1.2521674633026123,0,0,1.375920057296753
0.34006875,0,0,1.2521674633026123,0,0,0.5350799560546875
0.340401617,0,0,1.37906014919281,0,0,1.1466000080108643
0.340735095,0,0,1.37906014919281,0,0,0.8408399820327759
0.341077128,0,0,1.37906014919281,0,0,0.9937199950218201
0.341402625,0,0,1.4173674583435059,0,0,0.9172800183296204
0.341882731,0,0,1.4173674583435059,0,0,0.611519992351532
0.342073285,0,0,1.4173674583435059,0,0,0.611519992351532
0.342403263,0,0,1.4173674583435059,0,0,0.9172800183296204
0.34273526,0,0,1.4844050407409668,0,0,0.7644000053405762
0.343068904,0,0,1.4844050407409668,0,0,0.3822000026702881
0.343405623,0,0,1.4844050407409668,0,0,1.1466000080108643
0.343736268,0,0,1.4532804489135742,0,0,1.605239987373352
0.344068876,0,0,1.4532804489135742,0,0,0.6879600286483765
0.344402224,0,0,1.4532804489135742,0,0,0
0.344735406,0,0,1.4532804489135742,0,0,0.7644000053405762
0.34506831,0,0,1.534683346748352,0,0,1.1466000080108643
0.345401732,0,0,1.534683346748352,0,0,0.9172800183296204
0.345734803,0,0,1.534683346748352,0,0,0.5350799560546875
0.346068503,0,0,1.534683346748352,0,0,0.9172800183296204
0.346401759,0,0,1.6184803247451782,0,0,1.2994799613952637
0.346735293,0,0,1.6184803247451782,0,0,0.152879998087883
0.347068493,0,0,1.6184803247451782,0,0,0.9172800183296204
0.347401971,0,0,1.3838485479354858,0,0,0
0.347735672,0,0,1.3838485479354858,0,0,1.9874399900436401
0.348068705,0,0,1.3838485479354858,0,0,0.4586400091648102
0.348401998,0,0,1.3838485479354858,0,0,1.2994799613952637
0.34873505,0,0,1.403002142906189,0,0,0.3822000026702881
0.349068436,0,0,1.403002142906189,0,0,1.452359914779663
0.349401636,0,0,1.403002142906189,0,0,1.8345600366592407
0.349735281,0,0,1.3838485479354858,0,0,0.3822000026702881
0.350068703,0,0,1.3838485479354858,0,0,1.6816799640655518
0.350401848,0,0,1.3838485479354858,0,0,0
0.350735197,0,0,1.3838485479354858,0,0,1.9109998941421509
0.351068471,0,0,1.403002142906189,0,0,-0.152879998087883
0.351406838,0,0,1.403002142906189,0,0,1.452359914779663
0.351735834,0,0,1.403002142906189,0,0,0
0.352068794,0,0,1.3263877630233765,0,0,0.9937199950218201
0.352401957,0,0,1.3263877630233765,0,0,0.5350799560546875
0.352734991,0,0,1.3263877630233765,0,0,0.8408399820327759
0.353068488,0,0,1.3263877630233765,0,0,0.8408399820327759
0.353401373,0,0,1.4700398445129395,0,0,0.152879998087883
0.353735184,0,0,1.4700398445129395,0,0,1.2994799613952637
0.3540682,0,0,1.4700398445129395,0,0,1.758120059967041
0.35440227,0,0,1.5131354331970215,0,0,0.0764399990439415
0.3547351,0,0,1.5131354331970215,0,0,-0.305759996175766
0.355068893,0,0,1.5131354331970215,0,0,0.8408399820327759
0.35540176,0,0,1.5131354331970215,0,0,1.2994799613952637
0.355735386,0,0,1.580173134803772,0,0,0.7644000053405762
0.356068716,0,0,1.580173134803772,0,0,0.4586400091648102
0.356401898,0,0,1.580173134803772,0,0,0.9937199950218201
0.356735061,0,0,1.580173134803772,0,0,1.070159912109375
0.357068021,0,0,1.50355863571167,0,0,0.8408399820327759
0.357401795,0,0,1.50355863571167,0,0,0.5350799560546875
0.357735292,0,0,1.50355863571167,0,0,0.4586400091648102
0.358068418,0,0,1.699883222579956,0,0,1.2994799613952637
0.358402044,0,0,1.699883222579956,0,0,1.1466000080108643
0.358734782,0,0,1.699883222579956,0,0,1.452359914779663
0.359068074,0,0,1.699883222579956,0,0,-0.152879998087883
0.359402034,0,0,1.3934253454208374,0,0,1.5288000106811523
0.359735086,0,0,1.3934253454208374,0,0,0.152879998087883
0.360068638,0,0,1.3934253454208374,0,0,1.8345600366592407
0.360401968,0,0,1.414973258972168,0,0,0
0.360734872,0,0,1.414973258972168,0,0,1.8345600366592407
0.361068572,0,0,1.414973258972168,0,0,0.5350799560546875
0.361401773,0,0,1.414973258972168,0,0,0.3822000026702881
0.361739399,0,0,1.3766659498214722,0,0,1.9874399900436401
0.362069266,0,0,1.3766659498214722,0,0,1.223039984703064
0.362401929,0,0,1.3766659498214722,0,0,2.14031982421875
0.362735407,0,0,1.4915876388549805,0,0,-0.4586400091648102
0.363068497,0,0,1.4915876388549805,0,0,1.452359914779663
0.363401975,0,0,1.4915876388549805,0,0,0.611519992351532
0.363734953,0,0,1.4915876388549805,0,0,0.4586400091648102
0.364068764,0,0,1.3766659498214722,0,0,0.9172800183296204
0.364401983,0,0,1.3766659498214722,0,0,1.9109998941421509
0.364735239,0,0,1.3766659498214722,0,0,0.6879600286483765
0.365068439,0,0,1.3766659498214722,0,0,0
0.365401825,0,0,1.3886369466781616,0,0,0.611519992351532
0.365735303,0,0,1.3886369466781616,0,0,1.223039984703064
0.366068577,0,0,1.3886369466781616,0,0,0.9937199950218201
0.366401259,0,0,1.5825673341751099,0,0,0.5350799560546875
0.366735533,0,0,1.5825673341751099,0,0,0.8408399820327759
0.367068733,0,0,1.5825673341751099,0,0,0.8408399820327759
0.367401823,0,0,1.5825673341751099,0,0,0.9172800183296204
0.367734856,0,0,1.6280571222305298,0,0,0.4586400091648102
0.368068538,0,0,1.6280571222305298,0,0,0.8408399820327759
0.368401386,0,0,1.6280571222305298,0,0,1.070159912109375
0.368735494,0,0,1.5442601442337036,0,0,1.223039984703064
0.369068583,0,0,1.5442601442337036,0,0,0.9172800183296204
0.36940208,0,0,1.5442601442337036,0,0,0.7644000053405762
0.369735058,0,0,1.5442601442337036,0,0,0.5350799560546875
0.370068647,0,0,1.723825216293335,0,0,0.305759996175766
0.370401848,0,0,1.723825216293335,0,0,1.6816799640655518
0.370735048,0,0,1.723825216293335,0,0,0
0.371067952,0,0,1.5634137392044067,0,0,1.8345600366592407
0.371402004,0,0,1.5634137392044067,0,0,-0.2293200045824051
0.371735223,0,0,1.5634137392044067,0,0,1.452359914779663
0.372072349,0,0,1.5634137392044067,0,0,0
0.372402272,0,0,1.335964560508728,0,0,1.9874399900436401
0.372735083,0,0,1.335964560508728,0,0,0.5350799560546875
0.37306858,0,0,1.335964560508728,0,0,1.375920057296753
0.373401539,0,0,1.335964560508728,0,0,1.8345600366592407
0.373735425,0,0,1.381454348564148,0,0,-0.3822000026702881
0.374068551,0,0,1.381454348564148,0,0,1.070159912109375
0.374401455,0,0,1.381454348564148,0,0,0
0.374734877,0,0,1.3407529592514038,0,0,1.758120059967041
0.375068578,0,0,1.3407529592514038,0,0,0.6879600286483765
0.375401556,0,0,1.3407529592514038,0,0,0
0.375735293,0,0,1.3407529592514038,0,0,0.5350799560546875
0.376068716,0,0,1.3311761617660522,0,0,1.1466000080108643
0.376401842,0,0,1.3311761617660522,0,0,0.8408399820327759
0.376735135,0,0,1.3311761617660522,0,0,0.5350799560546875
0.377068816,0,0,1.3910311460494995,0,0,0.9937199950218201
0.377401591,0,0,1.3910311460494995,0,0,1.1466000080108643
0.377735495,0,0,1.3910311460494995,0,0,0.9172800183296204
0.378068862,0,0,1.3910311460494995,0,0,0.7644000053405762
0.378401729,0,0,1.50355863571167,0,0,0.5350799560546875
0.378735262,0,0,1.50355863571167,0,0,1.070159912109375
0.379068815,0,0,1.50355863571167,0,0,1.2994799613952637
0.37940207,0,0,1.577778935432434,0,0,0.5350799560546875
0.379735493,0,0,1.577778935432434,0,0,0.5350799560546875
0.380068582,0,0,1.577778935432434,0,0,0.8408399820327759
0.380401968,0,0,1.577778935432434,0,0,0.8408399820327759
0.38073502,0,0,1.5514427423477173,0,0,1.070159912109375
0.381068016,0,0,1.5514427423477173,0,0,0.6879600286483765
0.381401791,0,0,1.5514427423477173,0,0,0.9172800183296204
0.381735213,0,0,1.5514427423477173,0,0,1.1466000080108643
0.382068173,0,0,1.580173134803772,0,0,0.9172800183296204
0.382406077,0,0,1.580173134803772,0,0,0.9172800183296204
0.382735259,0,0,1.580173134803772,0,0,0.611519992351532
0.38308207,0,0,1.659181833267212,0,0,0
0.383403344,0,0,1.659181833267212,0,0,0.8408399820327759
0.383735156,0,0,1.659181833267212,0,0,-0.9172800183296204
0.384068338,0,0,1.659181833267212,0,0,2.522519826889038
0.384401964,0,0,1.3503297567367554,0,0,-1.452359914779663
0.384734849,0,0,1.3503297567367554,0,0,2.14031982421875
0.385068476,0,0,1.3503297567367554,0,0,0.2293200045824051
0.385401768,0,0,1.3982137441635132,0,0,2.2167599201202393
0.385735561,0,0,1.3982137441635132,0,0,-0.152879998087883
0.386068595,0,0,1.3982137441635132,0,0,0.4586400091648102
0.386401832,0,0,1.3982137441635132,0,0,1.452359914779663
0.38673507,0,0,1.2737152576446533,0,0,0.8408399820327759
0.387068437,0,0,1.2737152576446533,0,0,0.9172800183296204
0.387401804,0,0,1.2737152576446533,0,0,0.611519992351532
0.387735485,0,0,1.460463047027588,0,0,1.070159912109375
0.388068686,0,0,1.460463047027588,0,0,0.5350799560546875
0.388401701,0,0,1.460463047027588,0,0,0.6879600286483765
0.388735475,0,0,1.460463047027588,0,0,0.5350799560546875
0.38906849,0,0,1.357512354850769,0,0,0.8408399820327759
0.389401598,0,0,1.357512354850769,0,0,1.1466000080108643
0.389735095,0,0,1.357512354850769,0,0,0.8408399820327759
0.390068739,0,0,1.357512354850769,0,0,0.611519992351532
0.390401736,0,0,1.3958195447921753,0,0,0.8408399820327759
0.390735307,0,0,1.3958195447921753,0,0,0.7644000053405762
0.391068414,0,0,1.3958195447921753,0,0,0.9172800183296204
0.391402059,0,0,1.5298948287963867,0,0,0.9937199950218201
0.391735204,0,0,1.5298948287963867,0,0,0.9937199950218201
0.392068534,0,0,1.5298948287963867,0,0,0.9172800183296204
0.39240153,0,0,1.5298948287963867,0,0,0.9172800183296204
0.392739064,0,0,1.4915876388549805,0,0,0.8408399820327759
0.393069172,0,0,1.4915876388549805,0,0,0.6879600286483765
0.393401409,0,0,1.4915876388549805,0,0,0.8408399820327759
0.393735294,0,0,1.414973258972168,0,0,0.6879600286483765
0.394068643,0,0,1.414973258972168,0,0,0.611519992351532
0.394401769,0,0,1.414973258972168,0,0,1.070159912109375
0.394734895,0,0,1.414973258972168,0,0,0.152879998087883
0.395068559,0,0,1.745373010635376,0,0,0.305759996175766
0.395401777,0,0,1.745373010635376,0,0,-0.611519992351532
0.395735033,0,0,1.745373010635376,0,0,3.89844012260437
0.396068493,0,0,1.745373010635376,0,0,9.096360206604004
0.396401452,0,0,1.5107412338256836,0,0,1.375920057296753
0.396734838,0,0,1.5107412338256836,0,0,1.070159912109375
0.397068927,0,0,1.5107412338256836,0,0,0.8408399820327759
0.39740172,0,0,1.4891934394836426,0,0,0.4586400091648102
0.397735161,0,0,1.4891934394836426,0,0,1.070159912109375
0.398068472,0,0,1.4891934394836426,0,0,0.9172800183296204
0.398401747,0,0,1.4891934394836426,0,0,0.611519992351532
0.39873504,0,0,1.3838485479354858,0,0,0.611519992351532
0.399068684,0,0,1.3838485479354858,0,0,0.7644000053405762
0.3994012,0,0,1.3838485479354858,0,0,1.070159912109375
0.399735215,0,0,1.381454348564148,0,0,0.9937199950218201
0.400068359,0,0,1.381454348564148,0,0,0.7644000053405762
0.400401671,0,0,1.381454348564148,0,0,0.305759996175766
0.400735316,0,0,1.381454348564148,0,0,0.9172800183296204
0.401068257,0,0,1.2449848651885986,0,0,0.9172800183296204
0.401401457,0,0,1.2449848651885986,0,0,1.452359914779663
0.401735028,0,0,1.2449848651885986,0,0,0.9172800183296204
0.402068265,0,0,1.2449848651885986,0,0,0.8408399820327759
0.402401891,0,0,1.2330138683319092,0,0,0.9172800183296204
0.402735295,0,0,1.2330138683319092,0,0,0.611519992351532
0.40307281,0,0,1.2330138683319092,0,0,0.7644000053405762
0.403402511,0,0,1.381454348564148,0,0,0.8408399820327759
0.403735396,0,0,1.381454348564148,0,0,0.8408399820327759
0.404068207,0,0,1.381454348564148,0,0,0.6879600286483765
0.404402186,0,0,1.381454348564148,0,0,0.8408399820327759
0.404735312,0,0,1.5658079385757446,0,0,0.9937199950218201
0.405068753,0,0,1.5658079385757446,0,0,0.3822000026702881
0.405401583,0,0,1.5658079385757446,0,0,0.305759996175766
0.405734913,0,0,1.403002142906189,0,0,0.611519992351532
0.406068594,0,0,1.403002142906189,0,0,1.6816799640655518
0.406402276,0,0,1.403002142906189,0,0,0.9172800183296204
0.406734828,0,0,1.403002142906189,0,0,9.096360206604004
0.407068325,0,0,1.601720929145813,0,0,1.070159912109375
0.407411951,0,0,1.601720929145813,0,0,0.611519992351532
0.40773754,0,0,1.601720929145813,0,0,0.611519992351532
0.408068981,0,0,1.647210717201233,0,0,1.1466000080108643
0.408401774,0,0,1.647210717201233,0,0,0.9172800183296204
0.408734863,0,0,1.647210717201233,0,0,1.070159912109375
0.409068601,0,0,1.647210717201233,0,0,0.6879600286483765
0.409401783,0,0,1.3766659498214722,0,0,0.8408399820327759
0.409735316,0,0,1.3766659498214722,0,0,0.7644000053405762
0.410068239,0,0,1.3766659498214722,0,0,1.2994799613952637
0.410401624,0,0,1.3766659498214722,0,0,0.7644000053405762
0.410734991,0,0,1.4221558570861816,0,0,0.5350799560546875
0.411068266,0,0,1.4221558570861816,0,0,1.070159912109375
0.411402151,0,0,1.4221558570861816,0,0,0.9172800183296204
0.411735555,0,0,1.400607943534851,0,0,0.9937199950218201
0.412068404,0,0,1.400607943534851,0,0,0.611519992351532
0.412401789,0,0,1.400607943534851,0,0,1.1466000080108643
0.412735174,0,0,1.400607943534851,0,0,0.611519992351532
0.413068134,0,0,1.3742717504501343,0,0,0.7644000053405762
0.413406334,0,0,1.3742717504501343,0,0,0.7644000053405762
0.413735405,0,0,1.3742717504501343,0,0,1.070159912109375
0.414068476,0,0,1.2737152576446533,0,0,0.9172800183296204
0.414401843,0,0,1.2737152576446533,0,0,0.7644000053405762
0.414735191,0,0,1.2737152576446533,0,0,0.8408399820327759
0.415068336,0,0,1.2737152576446533,0,0,0.9172800183296204
0.41540174,0,0,1.4844050407409668,0,0,0.611519992351532
0.415735014,0,0,1.4844050407409668,0,0,0.4586400091648102
0.416069085,0,0,1.4844050407409668,0,0,0.611519992351532
0.416401693,0,0,1.5083470344543457,0,0,2.06387996673584
0.416734689,0,0,1.5083470344543457,0,0,0.8408399820327759
0.417068352,0,0,1.5083470344543457,0,0,-0.152879998087883
0.417401849,0,0,1.5083470344543457,0,0,0.305759996175766
0.417735068,0,0,1.4508862495422363,0,0,1.223039984703064
0.41806862,0,0,1.4508862495422363,0,0,1.375920057296753
0.418401876,0,0,1.4508862495422363,0,0,0.8408399820327759
0.418735298,0,0,1.4508862495422363,0,0,1.070159912109375
0.419068276,0,0,1.4245500564575195,0,0,0.4586400091648102
0.419401792,0,0,1.4245500564575195,0,0,0.305759996175766
0.419735473,0,0,1.4245500564575195,0,0,0.7644000053405762
0.420068377,0,0,1.644816517829895,0,0,0.4586400091648102
0.420401689,0,0,1.644816517829895,0,0,1.452359914779663
0.420734945,0,0,1.644816517829895,0,0,0.611519992351532
0.421068386,0,0,1.644816517829895,0,0,0.611519992351532
0.421401993,0,0,1.3766659498214722,0,0,0.4586400091648102
0.421735175,0,0,1.3766659498214722,0,0,1.070159912109375
0.422068653,0,0,1.3766659498214722,0,0,0.611519992351532
0.422401298,0,0,1.3934253454208374,0,0,0.9937199950218201
0.422735369,0,0,1.3934253454208374,0,0,1.2994799613952637
0.423068587,0,0,1.3934253454208374,0,0,0.305759996175766
0.423402066,0,0,1.3934253454208374,0,0,0.9937199950218201
0.423738821,0,0,1.338358759880066,0,0,0.3822000026702881
0.424068725,0,0,1.338358759880066,0,0,0.9937199950218201
0.424401704,0,0,1.338358759880066,0,0,0.611519992351532
0.424735145,0,0,1.316810965538025,0,0,1.070159912109375
0.425068178,0,0,1.316810965538025,0,0,0.611519992351532
0.425401804,0,0,1.316810965538025,0,0,0.9172800183296204
0.425735375,0,0,1.316810965538025,0,0,0.611519992351532
0.426068427,0,0,1.2952631711959839,0,0,0.6879600286483765
0.426402109,0,0,1.2952631711959839,0,0,0.305759996175766
0.426734994,0,0,1.2952631711959839,0,0,1.605239987373352
0.427068361,0,0,1.2952631711959839,0,0,1.223039984703064
0.427404636,0,0,1.482010841369629,0,0,0.5350799560546875
0.427734947,0,0,1.482010841369629,0,0,0
0.428068036,0,0,1.482010841369629,0,0,1.223039984703064
0.428402089,0,0,1.5610195398330688,0,0,1.070159912109375
0.428735141,0,0,1.5610195398330688,0,0,0.7644000053405762
0.429068674,0,0,1.5610195398330688,0,0,0.8408399820327759
0.429402023,0,0,1.5610195398330688,0,0,1.070159912109375
0.429735316,0,0,1.6759412288665771,0,0,0.6879600286483765
0.430069072,0,0,1.6759412288665771,0,0,0.8408399820327759
0.430401735,0,0,1.6759412288665771,0,0,0.7644000053405762
0.430735694,0,0,1.5490485429763794,0,0,0.9937199950218201
0.431068487,0,0,1.5490485429763794,0,0,0.9172800183296204
0.431401669,0,0,1.5490485429763794,0,0,0.5350799560546875
0.431735277,0,0,1.5490485429763794,0,0,0.5350799560546875
0.432068496,0,0,1.7836803197860718,0,0,1.2994799613952637
0.432401807,0,0,1.7836803197860718,0,0,0.7644000053405762
0.432735378,0,0,1.7836803197860718,0,0,1.1466000080108643
0.43306843,0,0,1.4939818382263184,0,0,0.8408399820327759
0.433401741,0,0,1.4939818382263184,0,0,0.9937199950218201
0.433735904,0,0,1.4939818382263184,0,0,0.4586400091648102
0.434072494,0,0,1.4939818382263184,0,0,1.223039984703064
0.434402268,0,0,1.3742717504501343,0,0,0.5350799560546875
0.434735431,0,0,1.3742717504501343,0,0,0.9937199950218201
0.435068576,0,0,1.3742717504501343,0,0,1.1466000080108643
0.435401684,0,0,1.3910311460494995,0,0,0.305759996175766
0.435735273,0,0,1.3910311460494995,0,0,1.5288000106811523
0.436068473,0,0,1.3910311460494995,0,0,0.4586400091648102
0.436401822,0,0,1.3910311460494995,0,0,0.8408399820327759
0.436735078,0,0,1.3766659498214722,0,0,0
0.437068148,0,0,1.3766659498214722,0,0,2.14031982421875
0.437401534,0,0,1.3766659498214722,0,0,0.8408399820327759
0.437734993,0,0,1.3766659498214722,0,0,0
0.438068564,0,0,1.3694833517074585,0,0,0.2293200045824051
0.438401764,0,0,1.3694833517074585,0,0,1.1466000080108643
0.438735094,0,0,1.3694833517074585,0,0,0.8408399820327759
0.43906885,0,0,1.460463047027588,0,0,0.8408399820327759
0.439401661,0,0,1.460463047027588,0,0,0.611519992351532
0.439735158,0,0,1.460463047027588,0,0,1.1466000080108643
0.440080414,0,0,1.460463047027588,0,0,1.070159912109375
0.440403336,0,0,1.5634137392044067,0,0,0.611519992351532
0.440735222,0,0,1.5634137392044067,0,0,0.9937199950218201
0.441068644,0,0,1.5634137392044067,0,0,1.5288000106811523
0.441401993,0,0,1.5634137392044067,0,0,0.6879600286483765
0.441735452,0,0,1.5825673341751099,0,0,0.305759996175766
0.442068597,0,0,1.5825673341751099,0,0,0.8408399820327759
0.442401427,0,0,1.5825673341751099,0,0,0.8408399820327759
0.442735146,0,0,1.5825673341751099,0,0,0.9172800183296204
0.443069124,0,0,1.4772224426269531,0,0,1.1466000080108643
0.443403935,0,0,1.4772224426269531,0,0,1.070159912109375
0.443735099,0,0,1.4772224426269531,0,0,0.7644000053405762
0.444068725,0,0,1.4772224426269531,0,0,0.5350799560546875
0.444406073,0,0,1.6328455209732056,0,0,0.8408399820327759
0.444735218,0,0,1.6328455209732056,0,0,0.7644000053405762
0.445068529,0,0,1.6328455209732056,0,0,0.7644000053405762
0.445401711,0,0,1.6328455209732056,0,0,0.3822000026702881
0.445735282,0,0,1.623268723487854,0,0,0.6879600286483765
0.446068353,0,0,1.623268723487854,0,0,0.2293200045824051
0.446401905,0,0,1.623268723487854,0,0,1.5288000106811523
0.446736938,0,0,1.623268723487854,0,0,0.5350799560546875
0.447068657,0,0,1.3311761617660522,0,0,1.6816799640655518
0.44740232,0,0,1.3311761617660522,0,0,0.5350799560546875
0.447735021,0,0,1.3311761617660522,0,0,1.605239987373352
0.448068369,0,0,1.3311761617660522,0,0,-0.5350799560546875
0.448401921,0,0,1.4532804489135742,0,0,1.375920057296753
0.448735288,0,0,1.4532804489135742,0,0,0.4586400091648102
0.449068285,0,0,1.4532804489135742,0,0,0.4586400091648102
0.449402282,0,0,1.4532804489135742,0,0,1.1466000080108643
0.449735389,0,0,1.3335703611373901,0,0,-0.3822000026702881
0.450068682,0,0,1.3335703611373901,0,0,2.2167599201202393
0.450401475,0,0,1.3335703611373901,0,0,0
0.450735379,0,0,1.3335703611373901,0,0,1.070159912109375
0.451068357,0,0,1.381454348564148,0,0,0
0.451401743,0,0,1.381454348564148,0,0,1.2994799613952637
0.451734924,0,0,1.381454348564148,0,0,0.6879600286483765
0.452068199,0,0,1.381454348564148,0,0,0.8408399820327759
0.45240114,0,0,1.3311761617660522,0,0,1.1466000080108643
0.452734655,0,0,1.3311761617660522,0,0,0.8408399820327759
0.453068189,0,0,1.3311761617660522,0,0,0.8408399820327759
0.453401407,0,0,1.3311761617660522,0,0,0.8408399820327759
0.453742496,0,0,1.5083470344543457,0,0,0.8408399820327759
0.454090474,0,0,1.5083470344543457,0,0,0.6879600286483765
0.454411064,0,0,1.5083470344543457,0,0,0.6879600286483765
0.454748542,0,0,1.5083470344543457,0,0,0.5350799560546875
0.455070501,0,0,1.5682021379470825,0,0,0.8408399820327759
0.455402757,0,0,1.5682021379470825,0,0,0.9172800183296204
0.455735958,0,0,1.5682021379470825,0,0,0.6879600286483765
0.456069047,0,0,1.5682021379470825,0,0,0.5350799560546875
0.456402414,0,0,1.534683346748352,0,0,0.8408399820327759
0.45673591,0,0,1.534683346748352,0,0,0.6879600286483765
0.457068851,0,0,1.534683346748352,0,0,0.4586400091648102
0.457402329,0,0,1.534683346748352,0,0,0.5350799560546875
0.457735863,0,0,1.455674648284912,0,0,1.6816799640655518
0.458069045,0,0,1.455674648284912,0,0,1.5288000106811523
0.458402356,0,0,1.455674648284912,0,0,-0.152879998087883
0.458735723,0,0,1.455674648284912,0,0,0.611519992351532
0.459069349,0,0,1.7501614093780518,0,0,0.2293200045824051
0.459402087,0,0,1.7501614093780518,0,0,2.14031982421875
0.459736139,0,0,1.7501614093780518,0,0,-0.9937199950218201
0.460069061,0,0,1.7501614093780518,0,0,2.3696401119232178
0.460402484,0,0,1.4293384552001953,0,0,0
0.460735573,0,0,1.4293384552001953,0,0,2.2167599201202393
0.461069459,0,0,1.4293384552001953,0,0,-0.6879600286483765
0.461402233,0,0,1.4293384552001953,0,0,2.06387996673584
0.461735693,0,0,1.4460978507995605,0,0,0.2293200045824051
0.462069486,0,0,1.4460978507995605,0,0,1.2994799613952637
0.462402667,0,0,1.4460978507995605,0,0,0.5350799560546875
0.462735423,0,0,1.4460978507995605,0,0,0.611519992351532
0.463068957,0,0,1.256955862045288,0,0,0.9172800183296204
0.463402861,0,0,1.256955862045288,0,0,0.611519992351532
0.46373608,0,0,1.256955862045288,0,0,0.9937199950218201
0.464069224,0,0,1.256955862045288,0,0,0.6879600286483765
0.464402202,0,0,1.359906554222107,0,0,0.9937199950218201
0.464735421,0,0,1.359906554222107,0,0,0.611519992351532
0.465073473,0,0,1.359906554222107,0,0,0.611519992351532
0.465402655,0,0,1.359906554222107,0,0,0.611519992351532
0.465735689,0,0,1.3407529592514038,0,0,0.9172800183296204
0.466068667,0,0,1.3407529592514038,0,0,0.8408399820327759
0.466402571,0,0,1.3407529592514038,0,0,0.8408399820327759
0.466735475,0,0,1.3407529592514038,0,0,0.8408399820327759
0.46706886,0,0,1.4700398445129395,0,0,0.7644000053405762
0.467403098,0,0,1.4700398445129395,0,0,0.5350799560546875
0.467735594,0,0,1.4700398445129395,0,0,0.9172800183296204
0.468068665,0,0,1.4700398445129395,0,0,1.6816799640655518
0.46840281,0,0,1.5322890281677246,0,0,1.070159912109375
0.468735769,0,0,1.5322890281677246,0,0,-0.2293200045824051
0.469068988,0,0,1.5322890281677246,0,0,0.152879998087883
0.469402188,0,0,1.5322890281677246,0,0,1.1466000080108643
0.469737148,0,0,1.5873557329177856,0,0,0.9937199950218201
0.470069848,0,0,1.5873557329177856,0,0,0.2293200045824051
0.470402882,0,0,1.5873557329177856,0,0,0.8408399820327759
0.47073573,0,0,1.434126853942871,0,0,0.2293200045824051
0.471068745,0,0,1.434126853942871,0,0,2.2932000160217285
0.471402835,0,0,1.434126853942871,0,0,-0.9172800183296204
0.471735998,0,0,1.434126853942871,0,0,2.522519826889038
0.47206892,0,0,1.699883222579956,0,0,-0.9937199950218201
0.472402361,0,0,1.699883222579956,0,0,3.3633599281311035
0.472735691,0,0,1.699883222579956,0,0,9.554999351501465
0.473069577,0,0,1.699883222579956,0,0,1.605239987373352
0.473402073,0,0,1.4867992401123047,0,0,0.6879600286483765
0.473735459,0,0,1.4867992401123047,0,0,1.070159912109375
0.474069011,0,0,1.4867992401123047,0,0,1.1466000080108643
0.474402693,0,0,1.4867992401123047,0,0,0.9937199950218201
0.474735708,0,0,1.403002142906189,0,0,0.611519992351532
0.475069094,0,0,1.403002142906189,0,0,0.3822000026702881
0.475406516,0,0,1.403002142906189,0,0,0.7644000053405762
0.47573629,0,0,1.403002142906189,0,0,0.5350799560546875
0.476069306,0,0,1.3766659498214722,0,0,0.8408399820327759
0.476402228,0,0,1.3766659498214722,0,0,0.5350799560546875
0.476735447,0,0,1.3766659498214722,0,0,0.8408399820327759
0.477069055,0,0,1.3766659498214722,0,0,0.5350799560546875
0.477402144,0,0,1.3311761617660522,0,0,1.1466000080108643
0.477735733,0,0,1.3311761617660522,0,0,0.5350799560546875
0.478069174,0,0,1.3311761617660522,0,0,0.5350799560546875
0.478402245,0,0,1.3311761617660522,0,0,1.605239987373352
0.478735741,0,0,1.3000515699386597,0,0,1.375920057296753
0.479069145,0,0,1.3000515699386597,0,0,0
0.479402086,0,0,1.3000515699386597,0,0,0.152879998087883
0.479735675,0,0,1.3000515699386597,0,0,0.6879600286483765
0.480069154,0,0,1.3311761617660522,0,0,1.1466000080108643
0.480402595,0,0,1.3311761617660522,0,0,0.305759996175766
0.48073611,0,0,1.3311761617660522,0,0,0.8408399820327759
0.481069366,0,0,1.3311761617660522,0,0,0.9172800183296204
0.481402455,0,0,1.4413094520568848,0,0,0.9937199950218201
0.48173584,0,0,1.4413094520568848,0,0,0.4586400091648102
0.482069522,0,0,1.4413094520568848,0,0,0.611519992351532
0.482402315,0,0,1.4413094520568848,0,0,0.611519992351532
0.482735441,0,0,1.5682021379470825,0,0,1.2994799613952637
0.483069067,0,0,1.5682021379470825,0,0,1.070159912109375
0.483403471,0,0,1.5682021379470825,0,0,0.3822000026702881
0.483735783,0,0,1.5682021379470825,0,0,0.4586400091648102
0.48406915,0,0,1.5203180313110352,0,0,0.9172800183296204
0.484402369,0,0,1.5203180313110352,0,0,0.6879600286483765
0.484735884,0,0,1.5203180313110352,0,0,1.070159912109375
0.485068936,0,0,1.5849615335464478,0,0,0.6879600286483765
0.485414951,0,0,1.5849615335464478,0,0,1.223039984703064
0.485741651,0,0,1.5849615335464478,0,0,0.611519992351532
0.486069333,0,0,1.5849615335464478,0,0,0.8408399820327759
0.48640207,0,0,1.7166426181793213,0,0,0.5350799560546875
0.48673566,0,0,1.7166426181793213,0,0,0.9172800183296204
0.487068971,0,0,1.7166426181793213,0,0,0.8408399820327759
0.487402208,0,0,1.7166426181793213,0,0,0.6879600286483765
0.487735427,0,0,1.338358759880066,0,0,1.070159912109375
0.488069164,0,0,1.338358759880066,0,0,0.2293200045824051
0.488402698,0,0,1.338358759880066,0,0,0.9172800183296204
0.488736121,0,0,1.338358759880066,0,0,0.9937199950218201
0.489069321,0,0,1.434126853942871,0,0,1.9874399900436401
0.489402132,0,0,1.434126853942871,0,0,-0.152879998087883
0.48973561,0,0,1.434126853942871,0,0,0.152879998087883
0.490068607,0,0,1.434126853942871,0,0,0.8408399820327759
0.490402381,0,0,1.335964560508728,0,0,1.2994799613952637
0.490735415,0,0,1.335964560508728,0,0,0.611519992351532
0.491068893,0,0,1.335964560508728,0,0,0.611519992351532
0.491402093,0,0,1.335964560508728,0,0,0.9172800183296204
0.491735701,0,0,1.3694833517074585,0,0,0.9172800183296204
0.492068735,0,0,1.3694833517074585,0,0,0.611519992351532
0.492402009,0,0,1.3694833517074585,0,0,0.6879600286483765
0.492735358,0,0,1.3694833517074585,0,0,0.8408399820327759
0.493069132,0,0,1.2689268589019775,0,0,1.2994799613952637
0.493402221,0,0,1.2689268589019775,0,0,0.7644000053405762
0.493735477,0,0,1.2689268589019775,0,0,0.9172800183296204
0.494069122,0,0,1.2689268589019775,0,0,0.6879600286483765
0.494402248,0,0,1.4460978507995605,0,0,0.611519992351532
0.494735893,0,0,1.4460978507995605,0,0,1.1466000080108643
0.495068982,0,0,1.4460978507995605,0,0,0.9172800183296204
0.495402553,0,0,1.4460978507995605,0,0,0.8408399820327759
0.49573629,0,0,1.5729905366897583,0,0,0.7644000053405762
0.496073064,0,0,1.5729905366897583,0,0,0.7644000053405762
0.496402968,0,0,1.5729905366897583,0,0,0.7644000053405762
0.496735724,0,0,1.5729905366897583,0,0,0.5350799560546875
0.497079813,0,0,1.5083470344543457,0,0,0.9937199950218201
0.497403421,0,0,1.5083470344543457,0,0,0.3822000026702881
0.49773564,0,0,1.5083470344543457,0,0,0.9937199950218201
0.498068877,0,0,1.5083470344543457,0,0,0.7644000053405762
0.498402003,0,0,1.3910311460494995,0,0,0.6879600286483765
0.498735481,0,0,1.3910311460494995,0,0,0.611519992351532
0.499068793,0,0,1.3910311460494995,0,0,1.375920057296753
0.499402234,0,0,1.3910311460494995,0,0,1.452359914779663
0.499735842,0,0,1.7908629179000854,0,0,-0.4586400091648102
0.500068709,0,0,1.7908629179000854,0,0,0.3822000026702881
0.500401946,0,0,1.7908629179000854,0,0,0.6879600286483765
0.500735665,0,0,1.7908629179000854,0,0,1.2994799613952637
0.501069069,0,0,1.4915876388549805,0,0,0.2293200045824051
0.501402028,0,0,1.4915876388549805,0,0,0.9937199950218201
0.501735673,0,0,1.4915876388549805,0,0,0.611519992351532
0.502068688,0,0,1.4915876388549805,0,0,0.9172800183296204
0.502402444,0,0,1.41257905960083,0,0,0.8408399820327759
0.502735848,0,0,1.41257905960083,0,0,0.7644000053405762
0.50306953,0,0,1.41257905960083,0,0,0.4586400091648102
0.503402378,0,0,1.41257905960083,0,0,0.9937199950218201
0.503736023,0,0,1.3335703611373901,0,0,0.7644000053405762
0.504069983,0,0,1.3335703611373901,0,0,0.6879600286483765
0.504401998,0,0,1.3335703611373901,0,0,0.611519992351532
0.504735439,0,0,1.3335703611373901,0,0,0.9172800183296204
0.505069232,0,0,1.3239935636520386,0,0,1.070159912109375
0.505401913,0,0,1.3239935636520386,0,0,0.9937199950218201
0.505735873,0,0,1.3239935636520386,0,0,0.9937199950218201
0.506068814,0,0,1.3239935636520386,0,0,1.070159912109375
0.50640657,0,0,1.3934253454208374,0,0,0.9172800183296204
0.506748085,0,0,1.3934253454208374,0,0,0.9937199950218201
0.507071174,0,0,1.3934253454208374,0,0,0.7644000053405762
0.507414782,0,0,1.4245500564575195,0,0,0.7644000053405762
0.507738186,0,0,1.4245500564575195,0,0,0.6879600286483765
0.508069553,0,0,1.4245500564575195,0,0,0.611519992351532
0.508402216,0,0,1.4245500564575195,0,0,0.6879600286483765
0.508736027,0,0,1.5418659448623657,0,0,0.9937199950218201
0.50906945,0,0,1.5418659448623657,0,0,0.305759996175766
0.50940228,0,0,1.5418659448623657,0,0,1.452359914779663
0.509735184,0,0,1.5418659448623657,0,0,1.452359914779663
0.510069162,0,0,1.5275006294250488,0,0,0.7644000053405762
0.510402103,0,0,1.5275006294250488,0,0,0.305759996175766
0.510735655,0,0,1.5275006294250488,0,0,0.9172800183296204
0.511068689,0,0,1.5275006294250488,0,0,1.452359914779663
0.511402815,0,0,1.4197616577148438,0,0,0.3822000026702881
0.51173583,0,0,1.4197616577148438,0,0,0.9172800183296204
0.512068845,0,0,1.4197616577148438,0,0,0.611519992351532
0.512402546,0,0,1.4197616577148438,0,0,1.070159912109375
0.512735653,0,0,1.702277421951294,0,0,0.6879600286483765
0.513069242,0,0,1.702277421951294,0,0,0.7644000053405762
0.513402258,0,0,1.702277421951294,0,0,0.4586400091648102
0.513735699,0,0,1.702277421951294,0,0,1.223039984703064
0.514068954,0,0,1.5538369417190552,0,0,1.070159912109375
0.514402007,0,0,1.5538369417190552,0,0,0.8408399820327759
0.514735485,0,0,1.5538369417190552,0,0,0.7644000053405762
0.515069092,0,0,1.5538369417190552,0,0,0.9172800183296204
0.515402441,0,0,1.316810965538025,0,0,0.611519992351532
0.515735845,0,0,1.316810965538025,0,0,1.070159912109375
0.516069267,0,0,1.316810965538025,0,0,1.223039984703064
0.516402042,0,0,1.316810965538025,0,0,1.070159912109375
0.516740186,0,0,1.357512354850769,0,0,0.6879600286483765
0.517069053,0,0,1.357512354850769,0,0,0.6879600286483765
0.517401957,0,0,1.357512354850769,0,0,0.611519992351532
0.51773588,0,0,1.357512354850769,0,0,0.9937199950218201
0.51806884,0,0,1.3287819623947144,0,0,0.611519992351532
0.518402318,0,0,1.3287819623947144,0,0,0.9172800183296204
0.518735925,0,0,1.3287819623947144,0,0,0.7644000053405762
0.519069237,0,0,1.3287819623947144,0,0,0.7644000053405762
0.519402307,0,0,1.381454348564148,0,0,0.0764399990439415
0.51973573,0,0,1.381454348564148,0,0,1.375920057296753
0.520068819,0,0,1.381454348564148,0,0,1.223039984703064
0.52040226,0,0,1.381454348564148,0,0,0.7644000053405762
0.520735794,0,0,1.3335703611373901,0,0,-0.305759996175766
0.521069068,0,0,1.3335703611373901,0,0,1.1466000080108643
0.521402657,0,0,1.3335703611373901,0,0,0.8408399820327759
0.52173571,0,0,1.3335703611373901,0,0,0.6879600286483765
0.522069336,0,0,1.5179238319396973,0,0,0.7644000053405762
0.522402536,0,0,1.5179238319396973,0,0,0.8408399820327759
0.522735588,0,0,1.5179238319396973,0,0,1.375920057296753
0.52306864,0,0,1.5179238319396973,0,0,0.4586400091648102
0.523402785,0,0,1.5753847360610962,0,0,1.070159912109375
0.523735393,0,0,1.5753847360610962,0,0,0.305759996175766
0.524068852,0,0,1.5753847360610962,0,0,1.2994799613952637
0.524402071,0,0,1.5753847360610962,0,0,1.223039984703064
0.524735549,0,0,1.53707754611969,0,0,1.1466000080108643
0.52506912,0,0,1.53707754611969,0,0,0.4586400091648102
0.525402172,0,0,1.53707754611969,0,0,0.6879600286483765
0.525735169,0,0,1.53707754611969,0,0,1.223039984703064
0.526068702,0,0,1.479616641998291,0,0,1.1466000080108643
0.526402199,0,0,1.479616641998291,0,0,0.7644000053405762
0.526735418,0,0,1.479616641998291,0,0,0.9937199950218201
0.527073322,0,0,1.479616641998291,0,0,0.9937199950218201
0.527405892,0,0,1.5897499322891235,0,0,1.1466000080108643
0.527735333,0,0,1.5897499322891235,0,0,0.9172800183296204
0.528080034,0,0,1.5897499322891235,0,0,0.611519992351532
0.528403419,0,0,1.3263877630233765,0,0,0.7644000053405762
0.52873586,0,0,1.3263877630233765,0,0,0.9172800183296204
0.529068894,0,0,1.3263877630233765,0,0,1.070159912109375
0.529402557,0,0,1.3263877630233765,0,0,0.5350799560546875
0.529735739,0,0,1.3623007535934448,0,0,0.305759996175766
0.530068884,0,0,1.3623007535934448,0,0,1.452359914779663
0.530402269,0,0,1.3623007535934448,0,0,1.070159912109375
0.530735377,0,0,1.3623007535934448,0,0,0.0764399990439415
0.531069188,0,0,1.3024457693099976,0,0,0
0.531402407,0,0,1.3024457693099976,0,0,1.2994799613952637
0.531735719,0,0,1.3024457693099976,0,0,0.8408399820327759
0.532068456,0,0,1.3024457693099976,0,0,0.9937199950218201
0.532402415,0,0,1.4077905416488647,0,0,0.0764399990439415
0.532735412,0,0,1.4077905416488647,0,0,1.375920057296753
0.533068742,0,0,1.4077905416488647,0,0,0.611519992351532
0.533402127,0,0,1.4077905416488647,0,0,1.2994799613952637
0.533735717,0,0,1.3455413579940796,0,0,0.611519992351532
0.534068972,0,0,1.3455413579940796,0,0,0.8408399820327759
0.534402191,0,0,1.3455413579940796,0,0,1.452359914779663
0.53473541,0,0,1.3455413579940796,0,0,0.6879600286483765
0.535068796,0,0,1.4293384552001953,0,0,1.1466000080108643
0.535402607,0,0,1.4293384552001953,0,0,0
0.535735604,0,0,1.4293384552001953,0,0,1.375920057296753
0.536068897,0,0,1.4293384552001953,0,0,0.6879600286483765
0.536402171,0,0,1.53707754611969,0,0,1.452359914779663
0.536735575,0,0,1.53707754611969,0,0,0.6879600286483765
0.537069164,0,0,1.53707754611969,0,0,1.223039984703064
0.537406179,0,0,1.53707754611969,0,0,0.4586400091648102
0.537736046,0,0,1.623268723487854,0,0,1.070159912109375
0.538068746,0,0,1.623268723487854,0,0,1.070159912109375
0.538402391,0,0,1.623268723487854,0,0,0.6879600286483765
0.538735777,0,0,1.623268723487854,0,0,0.9172800183296204
0.539068829,0,0,1.4221558570861816,0,0,0.6879600286483765
0.539402474,0,0,1.4221558570861816,0,0,0.7644000053405762
0.539735878,0,0,1.4221558570861816,0,0,0.611519992351532
0.54006893,0,0,1.4221558570861816,0,0,0.4586400091648102
0.540402519,0,0,1.680729627609253,0,0,1.070159912109375
0.540735645,0,0,1.680729627609253,0,0,1.452359914779663
0.541068938,0,0,1.680729627609253,0,0,0.611519992351532
0.541402212,0,0,1.680729627609253,0,0,-0.2293200045824051
0.541736098,0,0,1.4748282432556152,0,0,0.9937199950218201
0.542069039,0,0,1.4748282432556152,0,0,0.9172800183296204
0.542402276,0,0,1.4748282432556152,0,0,0.611519992351532
0.542735662,0,0,1.4748282432556152,0,0,0.152879998087883
0.543068547,0,0,1.403002142906189,0,0,1.1466000080108643
0.543402785,0,0,1.403002142906189,0,0,0.3822000026702881
0.543733096,0,0,1.403002142906189,0,0,0.3822000026702881
0.544066037,0,0,1.403002142906189,0,0,0.8408399820327759
0.544399386,0,0,1.3742717504501343,0,0,0.305759996175766
0.544732808,0,0,1.3742717504501343,0,0,1.223039984703064
0.545066694,0,0,1.3742717504501343,0,0,1.070159912109375
0.545402709,0,0,1.3742717504501343,0,0,1.070159912109375
0.545732761,0,0,1.3886369466781616,0,0,0.611519992351532
0.546066535,0,0,1.3886369466781616,0,0,0.9937199950218201
0.54639968,0,0,1.3886369466781616,0,0,1.070159912109375
0.546732899,0,0,1.3886369466781616,0,0,1.1466000080108643
0.547066136,0,0,1.3287819623947144,0,0,0.8408399820327759
0.547405188,0,0,1.3287819623947144,0,0,1.9109998941421509
0.547740629,0,0,1.3287819623947144,0,0,0.5350799560546875
0.548068978,0,0,1.455674648284912,0,0,1.070159912109375
0.548401715,0,0,1.455674648284912,0,0,0.8408399820327759
0.548735471,0,0,1.455674648284912,0,0,0.8408399820327759
0.549068597,0,0,1.455674648284912,0,0,1.1466000080108643
0.549415723,0,0,1.5753847360610962,0,0,0.8408399820327759
0.549736016,0,0,1.5753847360610962,0,0,0.9937199950218201
0.550068513,0,0,1.5753847360610962,0,0,0.6879600286483765
0.550401491,0,0,1.5753847360610962,0,0,0.6879600286483765
0.550735025,0,0,1.644816517829895,0,0,1.070159912109375
0.551068354,0,0,1.644816517829895,0,0,0.9937199950218201
0.551408203,0,0,1.644816517829895,0,0,0.4586400091648102
0.551755033,0,0,1.644816517829895,0,0,0
0.552085992,0,0,1.479616641998291,0,0,0.4586400091648102
0.552408507,0,0,1.479616641998291,0,0,0.9172800183296204
0.55273806,0,0,1.479616641998291,0,0,0.7644000053405762
0.553068315,0,0,1.479616641998291,0,0,0.305759996175766
0.553402349,0,0,1.5682021379470825,0,0,1.223039984703064
0.55374692,0,0,1.5682021379470825,0,0,1.1466000080108643
0.554071935,0,0,1.5682021379470825,0,0,0.9172800183296204
0.554401117,0,0,1.5682021379470825,0,0,0.9172800183296204
0.554734669,0,0,1.4772224426269531,0,0,0.3822000026702881
0.555067999,0,0,1.4772224426269531,0,0,1.452359914779663
0.555410551,0,0,1.4772224426269531,0,0,1.1466000080108643
0.555736251,0,0,1.4772224426269531,0,0,0.0764399990439415
0.556069026,0,0,1.381454348564148,0,0,0.2293200045824051
0.556400226,0,0,1.381454348564148,0,0,0.9937199950218201
0.5567335,0,0,1.381454348564148,0,0,1.070159912109375
0.557066571,0,0,1.381454348564148,0,0,1.2994799613952637
0.557400919,0,0,1.4077905416488647,0,0,0.8408399820327759
0.557737046,0,0,1.4077905416488647,0,0,1.758120059967041
0.558077987,0,0,1.4077905416488647,0,0,0.7644000053405762
0.558402224,0,0,1.4077905416488647,0,0,1.1466000080108643
0.558734776,0,0,1.3623007535934448,0,0,0.611519992351532
0.559068402,0,0,1.3623007535934448,0,0,0.9172800183296204
0.559406825,0,0,1.3623007535934448,0,0,0
0.559735692,0,0,1.3623007535934448,0,0,0.7644000053405762
0.560068911,0,0,1.4484920501708984,0,0,0.8408399820327759
0.560401463,0,0,1.4484920501708984,0,0,0.9172800183296204
0.560733385,0,0,1.4484920501708984,0,0,0.7644000053405762
0.561066456,0,0,1.4484920501708984,0,0,1.070159912109375
0.561400471,0,0,1.4532804489135742,0,0,1.605239987373352
0.561733727,0,0,1.4532804489135742,0,0,0.2293200045824051
0.562069872,0,0,1.4532804489135742,0,0,0
0.562400757,0,0,1.4532804489135742,0,0,0.9937199950218201
0.562734661,0,0,1.5538369417190552,0,0,1.223039984703064
0.563067047,0,0,1.5538369417190552,0,0,1.070159912109375
0.563406599,0,0,1.5538369417190552,0,0,0.611519992351532
0.563734966,0,0,1.5538369417190552,0,0,1.2994799613952637
0.564068777,0,0,1.5394717454910278,0,0,0.5350799560546875
0.564401422,0,0,1.5394717454910278,0,0,0.9172800183296204
0.5647344,0,0,1.5394717454910278,0,0,0.5350799560546875
0.565067341,0,0,1.5394717454910278,0,0,0.6879600286483765
0.565401208,0,0,1.5203180313110352,0,0,1.452359914779663
0.565734964,0,0,1.5203180313110352,0,0,0.9937199950218201
0.566068201,0,0,1.5203180313110352,0,0,0.9172800183296204
0.566400365,0,0,1.5203180313110352,0,0,0.5350799560546875
0.566734546,0,0,1.4915876388549805,0,0,0.9172800183296204
0.567070358,0,0,1.4915876388549805,0,0,1.223039984703064
0.56742741,0,0,1.4915876388549805,0,0,1.6816799640655518
0.567764795,0,0,1.4915876388549805,0,0,0.9172800183296204
0.568098329,0,0,1.680729627609253,0,0,0.3822000026702881
0.568433955,0,0,1.680729627609253,0,0,0.0764399990439415
0.568767507,0,0,1.680729627609253,0,0,0
0.569106041,0,0,1.3048399686813354,0,0,1.070159912109375
0.56942013,0,0,1.3048399686813354,0,0,1.375920057296753
0.569767367,0,0,1.3048399686813354,0,0,1.375920057296753
0.570101419,0,0,1.3048399686813354,0,0,0.7644000053405762
0.57042899,0,0,1.4053963422775269,0,0,0.9172800183296204
0.570759024,0,0,1.4053963422775269,0,0,-0.9172800183296204
0.571071687,0,0,1.4053963422775269,0,0,9.402119636535645
0.571411665,0,0,1.4053963422775269,0,0,1.2994799613952637
0.571774532,0,0,1.403002142906189,0,0,1.5288000106811523
0.572096917,0,0,1.403002142906189,0,0,0.305759996175766
0.572429766,0,0,1.403002142906189,0,0,0
0.572758263,0,0,1.403002142906189,0,0,0.8408399820327759
0.573076463,0,0,1.3886369466781616,0,0,1.2994799613952637
0.573404126,0,0,1.3886369466781616,0,0,0.9937199950218201
0.57373779,0,0,1.3886369466781616,0,0,0.8408399820327759
0.574069934,0,0,1.3886369466781616,0,0,0.9172800183296204
0.574399912,0,0,1.2856862545013428,0,0,0.9172800183296204
0.574732465,0,0,1.2856862545013428,0,0,1.2994799613952637
0.575066165,0,0,1.2856862545013428,0,0,0.305759996175766
0.575404624,0,0,1.2856862545013428,0,0,0.611519992351532
0.57573251,0,0,1.400607943534851,0,0,0.8408399820327759
0.576066062,0,0,1.400607943534851,0,0,1.223039984703064
0.576399151,0,0,1.400607943534851,0,0,1.070159912109375
0.576732537,0,0,1.400607943534851,0,0,0.152879998087883
0.577065941,0,0,1.5610195398330688,0,0,0.9172800183296204
0.577399419,0,0,1.5610195398330688,0,0,0.6879600286483765
0.577732286,0,0,1.5610195398330688,0,0,1.605239987373352
0.578066116,0,0,1.5610195398330688,0,0,0.9937199950218201
0.578399853,0,0,1.6496049165725708,0,0,1.070159912109375
0.57873959,0,0,1.6496049165725708,0,0,0.5350799560546875
0.579066439,0,0,1.6496049165725708,0,0,0.8408399820327759
0.579401139,0,0,1.6496049165725708,0,0,0.4586400091648102
0.579732969,0,0,1.5083470344543457,0,0,1.070159912109375
0.580066206,0,0,1.5083470344543457,0,0,0.8408399820327759
0.580399018,0,0,1.5083470344543457,0,0,0.8408399820327759
0.580732848,0,0,1.5083470344543457,0,0,0.9937199950218201
0.581066196,0,0,1.7764976024627686,0,0,1.070159912109375
0.581399341,0,0,1.7764976024627686,0,0,0.6879600286483765
0.581732745,0,0,1.7764976024627686,0,0,0.3822000026702881
0.582066038,0,0,1.7764976024627686,0,0,1.223039984703064
0.582399534,0,0,1.525106430053711,0,0,1.758120059967041
0.582733179,0,0,1.525106430053711,0,0,-0.2293200045824051
0.583073676,0,0,1.525106430053711,0,0,0.4586400091648102
0.583425265,0,0,1.525106430053711,0,0,1.375920057296753
0.583753132,0,0,1.403002142906189,0,0,0.9172800183296204
0.584082851,0,0,1.403002142906189,0,0,0.7644000053405762
0.584413458,0,0,1.403002142906189,0,0,1.1466000080108643
0.584751714,0,0,1.403002142906189,0,0,1.2994799613952637
0.5850846,0,0,1.434126853942871,0,0,0.6879600286483765
0.585422763,0,0,1.434126853942871,0,0,0.4586400091648102
0.585749982,0,0,1.434126853942871,0,0,0.6879600286483765
0.586074053,0,0,1.434126853942871,0,0,0.6879600286483765
0.586402623,0,0,1.400607943534851,0,0,1.1466000080108643
0.586737175,0,0,1.400607943534851,0,0,0.8408399820327759
0.587071283,0,0,1.400607943534851,0,0,0.8408399820327759
0.587415446,0,0,1.400607943534851,0,0,0.8408399820327759
0.587741369,0,0,1.357512354850769,0,0,1.1466000080108643
0.588071162,0,0,1.357512354850769,0,0,0.9937199950218201
0.588401547,0,0,1.357512354850769,0,0,1.1466000080108643
0.588734933,0,0,1.357512354850769,0,0,0.305759996175766
0.589077781,0,0,1.4053963422775269,0,0,1.070159912109375
0.589402537,0,0,1.4053963422775269,0,0,0.3822000026702881
0.589735385,0,0,1.4053963422775269,0,0,1.9874399900436401
0.590068252,0,0,1.5729905366897583,0,0,0
0.590401527,0,0,1.5729905366897583,0,0,1.6816799640655518
0.590734616,0,0,1.5729905366897583,0,0,-0.305759996175766
0.591068113,0,0,1.5729905366897583,0,0,1.605239987373352
0.591401868,0,0,1.623268723487854,0,0,-0.152879998087883
0.591735143,0,0,1.623268723487854,0,0,1.5288000106811523
0.59209375,0,0,1.623268723487854,0,0,0.152879998087883
0.59240421,0,0,1.623268723487854,0,0,2.6754000186920166
0.592734947,0,0,1.534683346748352,0,0,2.904719829559326
0.59306874,0,0,1.534683346748352,0,0,-0.4586400091648102
0.593401533,0,0,1.534683346748352,0,0,0.5350799560546875
0.593735067,0,0,1.534683346748352,0,0,0.152879998087883
0.594068193,0,0,1.6041151285171509,0,0,0.9937199950218201
0.594401505,0,0,1.6041151285171509,0,0,0.9937199950218201
0.59473489,0,0,1.6041151285171509,0,0,0.9937199950218201
0.595068368,0,0,1.6041151285171509,0,0,1.070159912109375
0.595403179,0,0,1.5466543436050415,0,0,0.9937199950218201
0.595735398,0,0,1.5466543436050415,0,0,0.611519992351532
0.596068284,0,0,1.5466543436050415,0,0,0.6879600286483765
0.596401817,0,0,1.5466543436050415,0,0,1.070159912109375
0.596734962,0,0,1.3311761617660522,0,0,0.9172800183296204
0.59706844,0,0,1.3311761617660522,0,0,0.8408399820327759
0.597401863,0,0,1.3311761617660522,0,0,0.9172800183296204
0.597735119,0,0,1.3311761617660522,0,0,0.5350799560546875
0.598068134,0,0,1.4389152526855469,0,0,0.7644000053405762
0.598401649,0,0,1.4389152526855469,0,0,0.9937199950218201
0.598734905,0,0,1.4389152526855469,0,0,0.9937199950218201
0.599068457,0,0,1.4389152526855469,0,0,0.9937199950218201
0.599406453,0,0,1.237802267074585,0,0,0.7644000053405762
0.599735728,0,0,1.237802267074585,0,0,0.6879600286483765
0.600068391,0,0,1.237802267074585,0,0,0.6879600286483765
0.600402128,0,0,1.237802267074585,0,0,0.611519992351532
0.600735199,0,0,1.2952631711959839,0,0,0.7644000053405762
0.601068029,0,0,1.2952631711959839,0,0,0.2293200045824051
0.601401415,0,0,1.2952631711959839,0,0,1.6816799640655518
0.601735319,0,0,1.2952631711959839,0,0,-0.305759996175766
0.602068371,0,0,1.3910311460494995,0,0,1.9874399900436401
0.602401478,0,0,1.3910311460494995,0,0,-0.8408399820327759
0.602734771,0,0,1.3910311460494995,0,0,2.446079969406128
0.603068379,0,0,1.3910311460494995,0,0,0.4586400091648102
0.603401283,0,0,1.455674648284912,0,0,1.9109998941421509
0.603735335,0,0,1.455674648284912,0,0,-1.758120059967041
0.60406798,0,0,1.455674648284912,0,0,2.14031982421875
0.604401439,0,0,1.455674648284912,0,0,1.070159912109375
0.604735084,0,0,1.5466543436050415,0,0,0.611519992351532
0.605068044,0,0,1.5466543436050415,0,0,1.1466000080108643
0.605401337,0,0,1.5466543436050415,0,0,0.9937199950218201
0.605735,0,0,1.5466543436050415,0,0,0.611519992351532
0.606068163,0,0,1.5705963373184204,0,0,0.5350799560546875
0.60640166,0,0,1.5705963373184204,0,0,0.7644000053405762
0.606735323,0,0,1.5705963373184204,0,0,1.1466000080108643
0.607068523,0,0,1.5705963373184204,0,0,1.070159912109375
0.607411853,0,0,1.4844050407409668,0,0,0.611519992351532
0.607738128,0,0,1.4844050407409668,0,0,0.611519992351532
0.608068902,0,0,1.4844050407409668,0,0,0.5350799560546875
0.608401639,0,0,1.4844050407409668,0,0,0.8408399820327759
0.608735284,0,0,1.764526605606079,0,0,1.070159912109375
0.609068558,0,0,1.764526605606079,0,0,1.1466000080108643
0.609401574,0,0,1.764526605606079,0,0,0.8408399820327759
0.609739329,0,0,1.764526605606079,0,0,0.8408399820327759
0.610068659,0,0,1.4077905416488647,0,0,0.611519992351532
0.610401711,0,0,1.4077905416488647,0,0,0.7644000053405762
0.610748264,0,0,1.4077905416488647,0,0,0.6879600286483765
0.611070464,0,0,1.4077905416488647,0,0,0.9172800183296204
0.611401794,0,0,1.3934253454208374,0,0,0.5350799560546875
0.611734939,0,0,1.3934253454208374,0,0,0.8408399820327759
0.612068343,0,0,1.3934253454208374,0,0,0.9172800183296204
0.61240121,0,0,1.3024457693099976,0,0,0.6879600286483765
0.612734373,0,0,1.3024457693099976,0,0,0.3822000026702881
0.61306861,0,0,1.3024457693099976,0,0,0.9937199950218201
0.613411903,0,0,1.3024457693099976,0,0,0.9937199950218201
0.613735955,0,0,1.2976573705673218,0,0,0.4586400091648102
0.61406847,0,0,1.2976573705673218,0,0,-0.5350799560546875
0.614401652,0,0,1.2976573705673218,0,0,1.223039984703064
0.614735075,0,0,1.2976573705673218,0,0,-1.070159912109375
0.615068664,0,0,1.2856862545013428,0,0,3.3633599281311035
0.61540166,0,0,1.2856862545013428,0,0,9.249239921569824
0.615734657,0,0,1.2856862545013428,0,0,2.14031982421875
0.61606858,0,0,1.2856862545013428,0,0,0.9937199950218201
0.616401835,0,0,1.460463047027588,0,0,0.7644000053405762
0.616734462,0,0,1.460463047027588,0,0,0.7644000053405762
0.61706794,0,0,1.460463047027588,0,0,0.9937199950218201
0.617401677,0,0,1.460463047027588,0,0,1.375920057296753
0.617734951,0,0,1.5107412338256836,0,0,0.7644000053405762
0.618068004,0,0,1.5107412338256836,0,0,0.9937199950218201
0.618401796,0,0,1.5107412338256836,0,0,0.611519992351532
0.618734793,0,0,1.5107412338256836,0,0,1.1466000080108643
0.619068438,0,0,1.5155296325683594,0,0,0.6879600286483765
0.619401953,0,0,1.5155296325683594,0,0,1.223039984703064
0.61973519,0,0,1.5155296325683594,0,0,0.9172800183296204
0.620073428,0,0,1.5155296325683594,0,0,1.070159912109375
0.620402572,0,0,1.4987702369689941,0,0,0.4586400091648102
0.620734773,0,0,1.4987702369689941,0,0,0.6879600286483765
0.62106851,0,0,1.4987702369689941,0,0,1.070159912109375
0.621401581,0,0,1.4987702369689941,0,0,0.9172800183296204
0.62173467,0,0,1.7046716213226318,0,0,0.7644000053405762
0.622068389,0,0,1.7046716213226318,0,0,0.611519992351532
0.622402256,0,0,1.7046716213226318,0,0,0.6879600286483765
0.622734826,0,0,1.7046716213226318,0,0,0.9937199950218201
0.62306786,0,0,1.460463047027588,0,0,0.3822000026702881
0.623401894,0,0,1.460463047027588,0,0,0.3822000026702881
0.623735001,0,0,1.460463047027588,0,0,1.9109998941421509
0.624068146,0,0,1.460463047027588,0,0,1.070159912109375
0.624401698,0,0,1.3215993642807007,0,0,-0.152879998087883
0.624734713,0,0,1.3215993642807007,0,0,0.4586400091648102
0.625068154,0,0,1.3215993642807007,0,0,0.8408399820327759
0.625401336,0,0,1.3215993642807007,0,0,0.9937199950218201
0.625735222,0,0,1.3694833517074585,0,0,0.8408399820327759
0.626067977,0,0,1.3694833517074585,0,0,0.9172800183296204
0.626401604,0,0,1.3694833517074585,0,0,1.2994799613952637
0.626735119,0,0,1.3694833517074585,0,0,0.8408399820327759
0.627068301,0,0,1.3527239561080933,0,0,0.5350799560546875
0.627401538,0,0,1.3527239561080933,0,0,0.8408399820327759
0.627734831,0,0,1.3527239561080933,0,0,0.9172800183296204
0.628068087,0,0,1.3527239561080933,0,0,0.9937199950218201
0.628401472,0,0,1.3287819623947144,0,0,0.2293200045824051
0.628735061,0,0,1.3287819623947144,0,0,0.7644000053405762
0.629068428,0,0,1.3287819623947144,0,0,0.7644000053405762
0.629401869,0,0,1.3287819623947144,0,0,1.2994799613952637
0.629735107,0,0,1.4077905416488647,0,0,0.8408399820327759
0.630068085,0,0,1.4077905416488647,0,0,1.223039984703064
0.630405692,0,0,1.4077905416488647,0,0,1.070159912109375
0.630735282,0,0,1.5107412338256836,0,0,0.8408399820327759
0.631068519,0,0,1.5107412338256836,0,0,0.7644000053405762
0.631401941,0,0,1.5107412338256836,0,0,0.6879600286483765
0.631735271,0,0,1.5107412338256836,0,0,0.9172800183296204
0.632068453,0,0,1.5682021379470825,0,0,0.611519992351532
0.632402691,0,0,1.5682021379470825,0,0,1.070159912109375
0.632736354,0,0,1.5682021379470825,0,0,0.152879998087883
0.633068276,0,0,1.5682021379470825,0,0,0.9937199950218201
0.633401569,0,0,1.4987702369689941,0,0,0.152879998087883
0.633734714,0,0,1.4987702369689941,0,0,1.070159912109375
0.634068618,0,0,1.4987702369689941,0,0,1.605239987373352
0.634401763,0,0,1.4987702369689941,0,0,1.375920057296753
0.634750981,0,0,1.5442601442337036,0,0,0
0.635070182,0,0,1.5442601442337036,0,0,0.6879600286483765
0.635404827,0,0,1.5442601442337036,0,0,0.152879998087883
0.635734842,0,0,1.5442601442337036,0,0,1.1466000080108643
0.636068709,0,0,1.5897499322891235,0,0,0.7644000053405762
0.636405742,0,0,1.5897499322891235,0,0,1.375920057296753
0.636738683,0,0,1.5897499322891235,0,0,0.9172800183296204
0.637068569,0,0,1.5897499322891235,0,0,0.8408399820327759
0.637401639,0,0,1.3192051649093628,0,0,0.5350799560546875
0.637734766,0,0,1.3192051649093628,0,0,1.1466000080108643
0.638067855,0,0,1.3192051649093628,0,0,0.9937199950218201
0.638401555,0,0,1.3192051649093628,0,0,0.9172800183296204
0.638734941,0,0,1.4053963422775269,0,0,0.5350799560546875
0.639068011,0,0,1.4053963422775269,0,0,0.8408399820327759
0.639402026,0,0,1.4053963422775269,0,0,0.8408399820327759
0.63973506,0,0,1.4053963422775269,0,0,1.223039984703064
0.640067797,0,0,1.278503656387329,0,0,0.9937199950218201
0.640401498,0,0,1.278503656387329,0,0,0.8408399820327759
0.640740791,0,0,1.278503656387329,0,0,0.7644000053405762
0.641068176,0,0,1.278503656387329,0,0,0.8408399820327759
0.641401617,0,0,1.3120225667953491,0,0,0.3822000026702881
0.641734595,0,0,1.3120225667953491,0,0,1.1466000080108643
0.642068814,0,0,1.3120225667953491,0,0,0.4586400091648102
0.642401144,0,0,1.3120225667953491,0,0,1.375920057296753
0.642734807,0,0,1.2832920551300049,0,0,0.4586400091648102
0.643068452,0,0,1.2832920551300049,0,0,0.9937199950218201
0.643402467,0,0,1.2832920551300049,0,0,0.4586400091648102
0.643734908,0,0,1.2832920551300049,0,0,0
0.644067997,0,0,1.4077905416488647,0,0,1.1466000080108643
0.644401457,0,0,1.4077905416488647,0,0,1.1466000080108643
0.644734639,0,0,1.4077905416488647,0,0,1.452359914779663
0.645068395,0,0,1.4077905416488647,0,0,-0.5350799560546875
0.645401299,0,0,1.5610195398330688,0,0,0.7644000053405762
0.645734851,0,0,1.5610195398330688,0,0,0.611519992351532
0.646068088,0,0,1.5610195398330688,0,0,1.070159912109375
0.646401622,0,0,1.5610195398330688,0,0,0.2293200045824051
0.646734989,0,0,1.6424223184585571,0,0,1.375920057296753
0.647068559,0,0,1.6424223184585571,0,0,0.611519992351532
0.647402111,0,0,1.6424223184585571,0,0,0.9937199950218201
0.647734941,0,0,1.6424223184585571,0,0,0.6879600286483765
0.648068105,0,0,1.3910311460494995,0,0,0.9937199950218201
0.648401564,0,0,1.3910311460494995,0,0,0.9937199950218201
0.64873532,0,0,1.3910311460494995,0,0,0.7644000053405762
0.649068224,0,0,1.702277421951294,0,0,0.305759996175766
0.649401721,0,0,1.702277421951294,0,0,0.7644000053405762
0.649735162,0,0,1.702277421951294,0,0,0.8408399820327759
0.650068251,0,0,1.702277421951294,0,0,0.8408399820327759
0.650401322,0,0,1.455674648284912,0,0,0.8408399820327759
0.650734966,0,0,1.455674648284912,0,0,1.070159912109375
0.65107337,0,0,1.455674648284912,0,0,0.8408399820327759
0.651402034,0,0,1.455674648284912,0,0,0.611519992351532
0.651735252,0,0,1.482010841369629,0,0,0.5350799560546875
0.652068267,0,0,1.482010841369629,0,0,0.6879600286483765
0.652401597,0,0,1.482010841369629,0,0,0.4586400091648102
0.652735038,0,0,1.482010841369629,0,0,0.5350799560546875
0.653068257,0,0,1.3215993642807007,0,0,0.4586400091648102
0.653401069,0,0,1.3215993642807007,0,0,1.2994799613952637
0.653735269,0,0,1.3215993642807007,0,0,0.2293200045824051
0.654068377,0,0,1.3215993642807007,0,0,0.8408399820327759
0.654401429,0,0,1.3742717504501343,0,0,0.305759996175766
0.654734388,0,0,1.3742717504501343,0,0,2.2932000160217285
0.6550682,0,0,1.3742717504501343,0,0,0.305759996175766
0.655401826,0,0,1.3742717504501343,0,0,0.3822000026702881
0.655735304,0,0,1.338358759880066,0,0,0
0.656084838,0,0,1.338358759880066,0,0,1.605239987373352
0.656403723,0,0,1.338358759880066,0,0,-0.152879998087883
0.656734627,0,0,1.338358759880066,0,0,0
0.657068142,0,0,1.434126853942871,0,0,1.758120059967041
0.657401491,0,0,1.434126853942871,0,0,0.0764399990439415
0.657734599,0,0,1.434126853942871,0,0,1.452359914779663
0.658068243,0,0,1.434126853942871,0,0,-0.152879998087883
0.658401536,0,0,1.556231141090393,0,0,1.070159912109375
0.658734848,0,0,1.556231141090393,0,0,0.611519992351532
0.659068363,0,0,1.556231141090393,0,0,1.2994799613952637
0.659401878,0,0,1.556231141090393,0,0,0.9172800183296204
0.659735023,0,0,1.5897499322891235,0,0,1.070159912109375
0.660068149,0,0,1.5897499322891235,0,0,1.070159912109375
0.660401571,0,0,1.5897499322891235,0,0,0.6879600286483765
0.660734827,0,0,1.5897499322891235,0,0,1.070159912109375
0.661068324,0,0,1.4844050407409668,0,0,0.9172800183296204
0.661406024,0,0,1.4844050407409668,0,0,0.9172800183296204
0.661735132,0,0,1.4844050407409668,0,0,0.9172800183296204
0.662067814,0,0,1.4844050407409668,0,0,0.611519992351532
0.662401384,0,0,1.6543933153152466,0,0,0.6879600286483765
0.66273477,0,0,1.6543933153152466,0,0,0.8408399820327759
0.663068396,0,0,1.6543933153152466,0,0,0.6879600286483765
0.663401226,0,0,1.6543933153152466,0,0,0.7644000053405762
0.663734741,0,0,1.50355863571167,0,0,0.6879600286483765
0.664068404,0,0,1.50355863571167,0,0,0.6879600286483765
0.664401493,0,0,1.50355863571167,0,0,0.5350799560546875
0.664735138,0,0,1.50355863571167,0,0,0.3822000026702881
0.665067857,0,0,1.3670891523361206,0,0,1.9109998941421509
0.665401631,0,0,1.3670891523361206,0,0,0.9172800183296204
0.665734721,0,0,1.3670891523361206,0,0,0.6879600286483765
0.666068439,0,0,1.3670891523361206,0,0,-0.2293200045824051
0.666401399,0,0,1.4293384552001953,0,0,1.452359914779663
0.666735025,0,0,1.4293384552001953,0,0,0
0.667067837,0,0,1.4293384552001953,0,0,1.452359914779663
0.667401481,0,0,1.37906014919281,0,0,0.0764399990439415
0.667735182,0,0,1.37906014919281,0,0,2.446079969406128
0.66806803,0,0,1.37906014919281,0,0,0.611519992351532
0.668401656,0,0,1.37906014919281,0,0,1.758120059967041
0.668734949,0,0,1.3048399686813354,0,0,1.223039984703064
0.669068427,0,0,1.3048399686813354,0,0,0.4586400091648102
0.669401516,0,0,1.3048399686813354,0,0,2.446079969406128
0.669734717,0,0,1.3048399686813354,0,0,0
0.670068102,0,0,1.3551181554794312,0,0,0.9172800183296204
0.670401247,0,0,1.3551181554794312,0,0,0.2293200045824051
0.670735003,0,0,1.3551181554794312,0,0,1.070159912109375
0.671068166,0,0,1.3551181554794312,0,0,1.070159912109375
0.671401885,0,0,1.4676456451416016,0,0,1.375920057296753
0.671739252,0,0,1.4676456451416016,0,0,0.7644000053405762
0.672068619,0,0,1.4676456451416016,0,0,0.611519992351532
0.672401393,0,0,1.4676456451416016,0,0,0.5350799560546875
0.672734945,0,0,1.5059528350830078,0,0,0.9172800183296204
0.67306822,0,0,1.5059528350830078,0,0,0.6879600286483765
0.673401642,0,0,1.5059528350830078,0,0,0.6879600286483765
0.673734972,0,0,1.5059528350830078,0,0,0.611519992351532
0.674068043,0,0,1.5298948287963867,0,0,0.8408399820327759
0.674401651,0,0,1.5298948287963867,0,0,0.611519992351532
0.674735073,0,0,1.5298948287963867,0,0,0.3822000026702881
0.675068218,0,0,1.5298948287963867,0,0,0.9172800183296204
0.675401492,0,0,1.5921441316604614,0,0,1.758120059967041
0.675734581,0,0,1.5921441316604614,0,0,1.070159912109375
0.676068152,0,0,1.5921441316604614,0,0,0.0764399990439415
0.676401408,0,0,1.5921441316604614,0,0,0.0764399990439415
0.676734812,0,0,1.625662922859192,0,0,0.9937199950218201
0.677068568,0,0,1.625662922859192,0,0,0.8408399820327759
0.677411953,0,0,1.625662922859192,0,0,0.9172800183296204
0.677736024,0,0,1.625662922859192,0,0,0.8408399820327759
0.678068539,0,0,1.3407529592514038,0,0,1.9874399900436401
0.678401647,0,0,1.3407529592514038,0,0,0
0.678734477,0,0,1.3407529592514038,0,0,1.9109998941421509
0.679068103,0,0,1.3407529592514038,0,0,-0.5350799560546875
0.679402618,0,0,1.460463047027588,0,0,2.6754000186920166
0.679735541,0,0,1.460463047027588,0,0,-0.305759996175766
0.680068148,0,0,1.460463047027588,0,0,2.06387996673584
0.6804012,0,0,1.460463047027588,0,0,1.9109998941421509
0.680734808,0,0,1.3120225667953491,0,0,-0.305759996175766
0.681068064,0,0,1.3120225667953491,0,0,1.5288000106811523
0.681401412,0,0,1.3120225667953491,0,0,0.2293200045824051
0.681735002,0,0,1.3120225667953491,0,0,0.9172800183296204
0.682072554,0,0,1.3335703611373901,0,0,0.8408399820327759
0.682402124,0,0,1.3335703611373901,0,0,0.9172800183296204
0.682735269,0,0,1.3335703611373901,0,0,0.6879600286483765
0.683291319,0,0,1.3335703611373901,0,0,0.7644000053405762
0.683408836,0,0,1.292868971824646,0,0,0.7644000053405762
0.683735592,0,0,1.292868971824646,0,0,0.5350799560546875
0.684068663,0,0,1.292868971824646,0,0,0.6879600286483765
0.684401585,0,0,1.292868971824646,0,0,0.9172800183296204
0.684734471,0,0,1.4389152526855469,0,0,0.8408399820327759
0.68506793,0,0,1.4389152526855469,0,0,0.5350799560546875
0.685401686,0,0,1.4389152526855469,0,0,0.305759996175766
0.685734535,0,0,1.4389152526855469,0,0,1.8345600366592407
0.686068198,0,0,1.5442601442337036,0,0,1.452359914779663
0.686401287,0,0,1.5442601442337036,0,0,0
0.686734543,0,0,1.5442601442337036,0,0,0.152879998087883
0.687068169,0,0,1.5442601442337036,0,0,1.1466000080108643
0.687401277,0,0,1.623268723487854,0,0,1.1466000080108643
0.687734996,0,0,1.623268723487854,0,0,0.611519992351532
0.688068233,0,0,1.623268723487854,0,0,0.6879600286483765
0.688402026,0,0,1.623268723487854,0,0,1.375920057296753
0.688735004,0,0,1.4939818382263184,0,0,0.9937199950218201
0.689068297,0,0,1.4939818382263184,0,0,0.4586400091648102
0.689401294,0,0,1.4939818382263184,0,0,-0.305759996175766
0.689734864,0,0,1.702277421951294,0,0,1.8345600366592407
0.690067954,0,0,1.702277421951294,0,0,-0.2293200045824051
0.69040145,0,0,1.702277421951294,0,0,2.446079969406128
0.690734836,0,0,1.702277421951294,0,0,-1.1466000080108643
0.691067962,0,0,1.41257905960083,0,0,1.9874399900436401
0.691401477,0,0,1.41257905960083,0,0,-0.6879600286483765
0.691734788,0,0,1.41257905960083,0,0,2.446079969406128
0.692068211,0,0,1.41257905960083,0,0,0
0.692406078,0,0,1.4724340438842773,0,0,1.9874399900436401
0.692735593,0,0,1.4724340438842773,0,0,0.2293200045824051
0.693068627,0,0,1.4724340438842773,0,0,0.9172800183296204
0.693401475,0,0,1.4724340438842773,0,0,0.8408399820327759
0.693734749,0,0,1.3862427473068237,0,0,0.8408399820327759
0.694068098,0,0,1.3862427473068237,0,0,0.8408399820327759
0.694401409,0,0,1.3862427473068237,0,0,0.4586400091648102
0.694735221,0,0,1.3862427473068237,0,0,0.6879600286483765
0.695068236,0,0,1.4460978507995605,0,0,0.7644000053405762
0.695401955,0,0,1.4460978507995605,0,0,0.7644000053405762
0.695734933,0,0,1.4460978507995605,0,0,0.4586400091648102
0.6960683,0,0,1.4460978507995605,0,0,1.452359914779663
0.696401315,0,0,1.3431471586227417,0,0,1.223039984703064
0.696735015,0,0,1.3431471586227417,0,0,0.0764399990439415
0.697068419,0,0,1.3431471586227417,0,0,0.0764399990439415
0.697401749,0,0,1.3431471586227417,0,0,0.9172800183296204
0.69773469,0,0,1.3982137441635132,0,0,0.9937199950218201
0.698068187,0,0,1.3982137441635132,0,0,0.8408399820327759
0.698401517,0,0,1.3982137441635132,0,0,0.9937199950218201
0.698734884,0,0,1.3982137441635132,0,0,1.070159912109375
0.699068343,0,0,1.558625340461731,0,0,0.7644000053405762
0.69940171,0,0,1.558625340461731,0,0,0.8408399820327759
0.699734762,0,0,1.558625340461731,0,0,0.611519992351532
0.700068259,0,0,1.558625340461731,0,0,0.8408399820327759
0.700401404,0,0,1.5897499322891235,0,0,1.070159912109375
0.700734604,0,0,1.5897499322891235,0,0,0.8408399820327759
0.701068045,0,0,1.5897499322891235,0,0,0.5350799560546875
0.701401616,0,0,1.5897499322891235,0,0,0.7644000053405762
0.701734353,0,0,1.4293384552001953,0,0,0
0.70206822,0,0,1.4293384552001953,0,0,0.8408399820327759
0.702401494,0,0,1.4293384552001953,0,0,-0.3822000026702881
0.702739565,0,0,1.4293384552001953,0,0,2.2167599201202393
0.703068524,0,0,1.6759412288665771,0,0,0.0764399990439415
0.703401465,0,0,1.6759412288665771,0,0,0.9172800183296204
0.703735055,0,0,1.6759412288665771,0,0,0.6879600286483765
