Time,AccelX1,AccelY1,AccelZ1,AccelX2,AccelY2,AccelZ2
0.000010555,0,0,1.4293384552001953,0,0,0.8408399820327759
0.010561807,0,0,1.4077905416488647,0,0,1.1466000080108643
0.010751138,0,0,1.4077905416488647,0,0,1.1466000080108643
0.010913191,0,0,1.4077905416488647,0,0,0.9172800183296204
0.011077319,0,0,1.4077905416488647,0,0,0.9172800183296204
0.011240576,0,0,1.4077905416488647,0,0,0.8408399820327759
0.011401703,0,0,1.4077905416488647,0,0,0.8408399820327759
0.011562812,0,0,1.4221558570861816,0,0,1.070159912109375
0.011723884,0,0,1.4221558570861816,0,0,1.070159912109375
0.011885493,0,0,1.4221558570861816,0,0,0.9937199950218201
0.012047269,0,0,1.4221558570861816,0,0,0.9937199950218201
0.012208378,0,0,1.4221558570861816,0,0,1.1466000080108643
0.012369431,0,0,1.4269442558288574,0,0,0.9172800183296204
0.013255901,0,0,1.436521053314209,0,0,0.7644000053405762
0.014223981,0,0,1.5825673341751099,0,0,0.8408399820327759
0.015223617,0,0,1.5538369417190552,0,0,0.6879600286483765
0.016225437,0,0,1.4915876388549805,0,0,0.5350799560546875
0.017224239,0,0,1.5083470344543457,0,0,0.5350799560546875
0.018225207,0,0,1.460463047027588,0,0,0.9172800183296204
0.019223509,0,0,1.41257905960083,0,0,0.9172800183296204
0.020222996,0,0,1.3910311460494995,0,0,0.9172800183296204
0.021225613,0,0,1.436521053314209,0,0,0.6879600286483765
0.02222347,0,0,1.290474772453308,0,0,0.9937199950218201
0.023250216,0,0,1.3503297567367554,0,0,0.8408399820327759
0.024225555,0,0,1.3838485479354858,0,0,0.9172800183296204
0.025223153,0,0,1.479616641998291,0,0,0.8408399820327759
0.02622327,0,0,1.556231141090393,0,0,0.9937199950218201
0.027235109,0,0,1.5059528350830078,0,0,0.8408399820327759
0.028331743,0,0,1.4700398445129395,0,0,0.9937199950218201
0.029518857,0,0,1.5179238319396973,0,0,0.9172800183296204
0.030230773,0,0,1.4460978507995605,0,0,0.6879600286483765
0.031227594,0,0,1.3958195447921753,0,0,0.8408399820327759
0.032225822,0,0,1.4484920501708984,0,0,0.9937199950218201
0.033228068,0,0,1.4053963422775269,0,0,0.9172800183296204
0.034239555,0,0,1.3527239561080933,0,0,1.223039984703064
0.03522319,0,0,1.3886369466781616,0,0,0.7644000053405762
0.036222807,0,0,1.4915876388549805,0,0,0.7644000053405762
0.037222238,0,0,1.5729905366897583,0,0,0.611519992351532
0.038228595,0,0,1.5538369417190552,0,0,0.9172800183296204
0.039222064,0,0,1.525106430053711,0,0,0.611519992351532
0.040222347,0,0,1.5873557329177856,0,0,0.9937199950218201
0.041222445,0,0,1.4508862495422363,0,0,0.9172800183296204
0.042222599,0,0,1.3431471586227417,0,0,1.070159912109375
0.043222327,0,0,1.3910311460494995,0,0,0.8408399820327759
0.044222314,0,0,1.3551181554794312,0,0,0.7644000053405762
0.045222264,0,0,1.381454348564148,0,0,0.9172800183296204
0.046222658,0,0,1.4077905416488647,0,0,0.611519992351532
0.047222275,0,0,1.50355863571167,0,0,0.7644000053405762
0.048222225,0,0,1.5705963373184204,0,0,0.7644000053405762
0.049222249,0,0,1.5945383310317993,0,0,0.611519992351532
0.050223995,0,0,1.5275006294250488,0,0,0.6879600286483765
0.05122226,0,0,1.5538369417190552,0,0,0.6879600286483765
0.052222247,0,0,1.436521053314209,0,0,0.8408399820327759
0.053222215,0,0,1.3646949529647827,0,0,0.7644000053405762
0.054223295,0,0,1.3263877630233765,0,0,0.8408399820327759
0.055222375,0,0,1.2856862545013428,0,0,0.9172800183296204
0.056222213,0,0,1.3287819623947144,0,0,0.9172800183296204
0.057221756,0,0,1.3958195447921753,0,0,0.8408399820327759
0.058222724,0,0,1.4197616577148438,0,0,0.4586400091648102
0.059222397,0,0,1.5658079385757446,0,0,0.6879600286483765
0.060221643,0,0,1.5322890281677246,0,0,0.7644000053405762
0.061233815,0,0,1.4508862495422363,0,0,0.7644000053405762
0.062224524,0,0,1.556231141090393,0,0,1.070159912109375
0.063222511,0,0,1.338358759880066,0,0,0.9172800183296204
0.064222424,0,0,1.3503297567367554,0,0,0.7644000053405762
0.065244689,0,0,1.3766659498214722,0,0,0.8408399820327759
0.066233565,0,0,1.3072341680526733,0,0,0.6879600286483765
0.067223385,0,0,1.3407529592514038,0,0,0.6879600286483765
0.068252928,0,0,1.3551181554794312,0,0,0.6879600286483765
0.069228359,0,0,1.4867992401123047,0,0,0.8408399820327759
0.07024729,0,0,1.4987702369689941,0,0,0.9172800183296204
0.071226204,0,0,1.522712230682373,0,0,0.8408399820327759
0.072222191,0,0,1.4389152526855469,0,0,0.6879600286483765
0.073228437,0,0,1.4652514457702637,0,0,0.7644000053405762
0.074223109,0,0,1.4748282432556152,0,0,0.7644000053405762
0.075222726,0,0,1.434126853942871,0,0,0.8408399820327759
0.076222268,0,0,1.50355863571167,0,0,0.9172800183296204
0.077222348,0,0,1.41257905960083,0,0,0.7644000053405762
0.078227094,0,0,1.479616641998291,0,0,0.7644000053405762
0.079225544,0,0,1.3838485479354858,0,0,0.8408399820327759
0.080224957,0,0,1.41257905960083,0,0,0.611519992351532
0.081224963,0,0,1.525106430053711,0,0,0.8408399820327759
0.082225672,0,0,1.5729905366897583,0,0,0.8408399820327759
0.083225085,0,0,1.4245500564575195,0,0,0.7644000053405762
0.084224998,0,0,1.525106430053711,0,0,0.8408399820327759
0.085224781,0,0,1.5059528350830078,0,0,0.9172800183296204
0.086225898,0,0,1.3766659498214722,0,0,0.9172800183296204
0.087224977,0,0,1.4460978507995605,0,0,0.9937199950218201
0.088224649,0,0,1.4413094520568848,0,0,0.9172800183296204
0.089225636,0,0,1.4484920501708984,0,0,1.070159912109375
0.090225864,0,0,1.4987702369689941,0,0,0.8408399820327759
0.091224444,0,0,1.4772224426269531,0,0,0.6879600286483765
0.092224283,0,0,1.4221558570861816,0,0,0.8408399820327759
0.093238955,0,0,1.4293384552001953,0,0,0.8408399820327759
0.094234608,0,0,1.501164436340332,0,0,0.6879600286483765
0.095227855,0,0,1.5610195398330688,0,0,0.9172800183296204
0.096226471,0,0,1.3718775510787964,0,0,0.9172800183296204
0.097226384,0,0,1.3551181554794312,0,0,0.7644000053405762
0.098226186,0,0,1.3742717504501343,0,0,1.1466000080108643
0.099226044,0,0,1.3766659498214722,0,0,0.9937199950218201
0.100225716,0,0,1.4508862495422363,0,0,0.9937199950218201
0.101239073,0,0,1.4724340438842773,0,0,0.9172800183296204
0.102227597,0,0,1.4652514457702637,0,0,0.7644000053405762
0.103226566,0,0,1.5322890281677246,0,0,0.8408399820327759
0.104226145,0,0,1.5203180313110352,0,0,1.1466000080108643
0.105226151,0,0,1.5203180313110352,0,0,0.611519992351532
0.10623936,0,0,1.4317326545715332,0,0,0.7644000053405762
0.107226125,0,0,1.53707754611969,0,0,0.9937199950218201
0.108226297,0,0,1.4844050407409668,0,0,0.8408399820327759
0.109226303,0,0,1.3958195447921753,0,0,0.8408399820327759
0.11022653,0,0,1.403002142906189,0,0,0.6879600286483765
0.111226091,0,0,1.3431471586227417,0,0,0.7644000053405762
0.112225986,0,0,1.3120225667953491,0,0,0.9937199950218201
0.113225917,0,0,1.434126853942871,0,0,0.6879600286483765
0.114226441,0,0,1.525106430053711,0,0,0.8408399820327759
0.115226169,0,0,1.5179238319396973,0,0,0.9172800183296204
0.116225897,0,0,1.5107412338256836,0,0,0.4586400091648102
0.117226087,0,0,1.5298948287963867,0,0,0.9172800183296204
0.118227723,0,0,1.501164436340332,0,0,0.6879600286483765
0.119225969,0,0,1.4389152526855469,0,0,0.9172800183296204
0.120226086,0,0,1.3766659498214722,0,0,1.1466000080108643
0.121226017,0,0,1.455674648284912,0,0,0.7644000053405762
0.122227115,0,0,1.3958195447921753,0,0,0.9172800183296204
0.123225861,0,0,1.3072341680526733,0,0,0.9172800183296204
0.124226274,0,0,1.4508862495422363,0,0,0.9172800183296204
0.125225854,0,0,1.4844050407409668,0,0,0.5350799560546875
0.126227174,0,0,1.5298948287963867,0,0,0.9172800183296204
0.127226198,0,0,1.5969325304031372,0,0,0.5350799560546875
0.128226074,0,0,1.5634137392044067,0,0,0.9172800183296204
0.129236098,0,0,1.482010841369629,0,0,0.9937199950218201
0.13022827,0,0,1.3287819623947144,0,0,0.5350799560546875
0.131226146,0,0,1.3215993642807007,0,0,0.8408399820327759
0.132225911,0,0,1.5107412338256836,0,0,0.9172800183296204
0.133226157,0,0,1.4676456451416016,0,0,0.7644000053405762
0.134227126,0,0,1.4413094520568848,0,0,0.9172800183296204
0.135225872,0,0,1.4532804489135742,0,0,0.8408399820327759
0.13622597,0,0,1.482010841369629,0,0,0.8408399820327759
0.137226105,0,0,1.381454348564148,0,0,0.9172800183296204
0.138226722,0,0,1.5131354331970215,0,0,0.611519992351532
0.139234764,0,0,1.5514427423477173,0,0,0.6879600286483765
0.140226974,0,0,1.5083470344543457,0,0,1.2994799613952637
0.141225998,0,0,1.4748282432556152,0,0,0.611519992351532
0.142227263,0,0,1.338358759880066,0,0,1.223039984703064
0.143225861,0,0,1.3934253454208374,0,0,0.8408399820327759
0.144225922,0,0,1.3886369466781616,0,0,0.9937199950218201
0.145225946,0,0,1.3479355573654175,0,0,0.9937199950218201
0.146226766,0,0,1.3479355573654175,0,0,0.7644000053405762
0.14722529,0,0,1.403002142906189,0,0,0.5350799560546875
0.148225962,0,0,1.4460978507995605,0,0,0.6879600286483765
0.149225783,0,0,1.5394717454910278,0,0,0.8408399820327759
0.150226381,0,0,1.5203180313110352,0,0,0.9172800183296204
0.151225498,0,0,1.4508862495422363,0,0,0.9172800183296204
0.152225707,0,0,1.403002142906189,0,0,0.9172800183296204
0.153225953,0,0,1.256955862045288,0,0,0.611519992351532
0.154226903,0,0,1.3910311460494995,0,0,0.7644000053405762
0.155226168,0,0,1.4437036514282227,0,0,0.6879600286483765
0.156225803,0,0,1.400607943534851,0,0,0.9937199950218201
0.157225938,0,0,1.400607943534851,0,0,0.8408399820327759
0.158226647,0,0,1.5203180313110352,0,0,0.6879600286483765
0.159225894,0,0,1.5729905366897583,0,0,0.9937199950218201
0.160225844,0,0,1.525106430053711,0,0,0.4586400091648102
0.161225831,0,0,1.4293384552001953,0,0,0.9937199950218201
0.162226892,0,0,1.4939818382263184,0,0,0.9172800183296204
0.163225805,0,0,1.4317326545715332,0,0,0.7644000053405762
0.164225866,0,0,1.3335703611373901,0,0,0.611519992351532
0.165225779,0,0,1.414973258972168,0,0,0.7644000053405762
0.166226784,0,0,1.3862427473068237,0,0,0.9937199950218201
0.167225716,0,0,1.3479355573654175,0,0,0.7644000053405762
0.168225666,0,0,1.4053963422775269,0,0,0.8408399820327759
0.169225949,0,0,1.414973258972168,0,0,1.070159912109375
0.170226751,0,0,1.4891934394836426,0,0,0.9172800183296204
0.171225627,0,0,1.4844050407409668,0,0,0.611519992351532
0.172225558,0,0,1.4460978507995605,0,0,0.7644000053405762
0.173234193,0,0,1.4628572463989258,0,0,0.9937199950218201
0.174228532,0,0,1.4532804489135742,0,0,0.8408399820327759
0.175226038,0,0,1.4437036514282227,0,0,0.9172800183296204
0.176229895,0,0,1.4652514457702637,0,0,0.8408399820327759
0.177226956,0,0,1.460463047027588,0,0,1.070159912109375
0.17822761,0,0,1.460463047027588,0,0,0.7644000053405762
0.179225893,0,0,1.4221558570861816,0,0,0.9937199950218201
0.180225769,0,0,1.4772224426269531,0,0,0.7644000053405762
0.181225904,0,0,1.5729905366897583,0,0,0.6879600286483765
0.18222778,0,0,1.6496049165725708,0,0,0.7644000053405762
0.183226137,0,0,1.5466543436050415,0,0,0.611519992351532
0.184225958,0,0,1.501164436340332,0,0,0.9172800183296204
0.185225797,0,0,1.4867992401123047,0,0,0.8408399820327759
0.186241172,0,0,1.3192051649093628,0,0,0.9172800183296204
0.187227437,0,0,1.3623007535934448,0,0,1.375920057296753
0.188225961,0,0,1.4724340438842773,0,0,0.5350799560546875
0.18922593,0,0,1.3886369466781616,0,0,0.6879600286483765
0.190226472,0,0,1.359906554222107,0,0,0.8408399820327759
0.191225978,0,0,1.3982137441635132,0,0,0.8408399820327759
0.192226094,0,0,1.3838485479354858,0,0,0.611519992351532
0.193225341,0,0,1.45806884765625,0,0,0.7644000053405762
0.194226383,0,0,1.4437036514282227,0,0,0.611519992351532
0.195226204,0,0,1.482010841369629,0,0,1.070159912109375
0.19622582,0,0,1.4652514457702637,0,0,0.8408399820327759
0.197226048,0,0,1.4437036514282227,0,0,0.9172800183296204
0.198226591,0,0,1.357512354850769,0,0,0.9172800183296204
0.1992258,0,0,1.3982137441635132,0,0,0.611519992351532
0.200225805,0,0,1.3646949529647827,0,0,0.6879600286483765
0.201225848,0,0,1.400607943534851,0,0,1.070159912109375
0.20222702,0,0,1.460463047027588,0,0,0.6879600286483765
0.203225915,0,0,1.4939818382263184,0,0,0.7644000053405762
0.204225902,0,0,1.5083470344543457,0,0,0.9172800183296204
0.205225759,0,0,1.5275006294250488,0,0,0.6879600286483765
0.206226746,0,0,1.53707754611969,0,0,0.9172800183296204
0.207253547,0,0,1.5155296325683594,0,0,0.9937199950218201
0.208227331,0,0,1.414973258972168,0,0,0.9172800183296204
0.209226003,0,0,1.3742717504501343,0,0,0.8408399820327759
0.210227009,0,0,1.4484920501708984,0,0,0.8408399820327759
0.211225903,0,0,1.3503297567367554,0,0,0.9172800183296204
0.212225575,0,0,1.4437036514282227,0,0,0.6879600286483765
0.213225859,0,0,1.4221558570861816,0,0,0.9937199950218201
0.214226772,0,0,1.4532804489135742,0,0,0.7644000053405762
0.215225407,0,0,1.5107412338256836,0,0,0.611519992351532
0.216225949,0,0,1.534683346748352,0,0,0.7644000053405762
0.21722564,0,0,1.4676456451416016,0,0,0.9937199950218201
0.218226034,0,0,1.460463047027588,0,0,0.7644000053405762
0.219225873,0,0,1.4245500564575195,0,0,0.7644000053405762
0.220225805,0,0,1.4963760375976563,0,0,0.8408399820327759
0.221225699,0,0,1.403002142906189,0,0,0.9937199950218201
0.222226927,0,0,1.2665326595306396,0,0,0.9937199950218201
0.223225803,0,0,1.37906014919281,0,0,0.9937199950218201
0.22422566,0,0,1.3694833517074585,0,0,0.611519992351532
0.225225851,0,0,1.400607943534851,0,0,0.6879600286483765
0.226226801,0,0,1.5538369417190552,0,0,0.8408399820327759
0.227225955,0,0,1.6400281190872192,0,0,0.6879600286483765
0.228225682,0,0,1.4915876388549805,0,0,0.7644000053405762
0.229225669,0,0,1.5155296325683594,0,0,0.7644000053405762
0.230227008,0,0,1.4221558570861816,0,0,0.7644000053405762
0.231225662,0,0,1.3982137441635132,0,0,0.8408399820327759
0.232225575,0,0,1.434126853942871,0,0,1.070159912109375
0.233225414,0,0,1.4197616577148438,0,0,1.1466000080108643
0.234225919,0,0,1.4173674583435059,0,0,0.9172800183296204
0.235225702,0,0,1.41257905960083,0,0,0.611519992351532
0.236225689,0,0,1.4724340438842773,0,0,0.5350799560546875
0.237225436,0,0,1.4508862495422363,0,0,0.9937199950218201
0.238226886,0,0,1.5131354331970215,0,0,0.4586400091648102
0.239225965,0,0,1.5466543436050415,0,0,0.7644000053405762
0.240226008,0,0,1.4724340438842773,0,0,1.070159912109375
0.241225939,0,0,1.3431471586227417,0,0,0.4586400091648102
0.242226334,0,0,1.37906014919281,0,0,1.1466000080108643
0.243225747,0,0,1.4197616577148438,0,0,0.8408399820327759
0.244225808,0,0,1.4437036514282227,0,0,0.8408399820327759
0.245225758,0,0,1.4053963422775269,0,0,0.7644000053405762
0.246226893,0,0,1.4724340438842773,0,0,0.9172800183296204
0.247225935,0,0,1.5322890281677246,0,0,0.8408399820327759
0.248225626,0,0,1.4867992401123047,0,0,0.9172800183296204
0.249225687,0,0,1.5298948287963867,0,0,0.611519992351532
0.250234785,0,0,1.5418659448623657,0,0,0.7644000053405762
0.251294771,0,0,1.4915876388549805,0,0,1.375920057296753
0.252227407,0,0,1.4963760375976563,0,0,0.7644000053405762
0.253225765,0,0,1.357512354850769,0,0,0.9172800183296204
0.254226993,0,0,1.37906014919281,0,0,0.9172800183296204
0.255225331,0,0,1.359906554222107,0,0,0.6879600286483765
0.256225633,0,0,1.3551181554794312,0,0,0.7644000053405762
0.257252472,0,0,1.3838485479354858,0,0,0.7644000053405762
0.2582282,0,0,1.2521674633026123,0,0,0.5350799560546875
0.259225724,0,0,1.0869675874710083,0,0,0.2293200045824051
0.260225711,0,0,1.2521674633026123,0,0,-29.582279205322266
0.261225976,0,0,1.3287819623947144,0,0,0.152879998087883
0.262226833,0,0,0.8188169598579407,0,0,0.305759996175766
0.263225802,0,0,0.5339069962501526,0,0,9.019920349121094
0.264225881,0,0,0.4213795065879822,0,0,0.0764399990439415
0.265225794,0,0,0.2561795711517334,0,0,0
0.266226744,0,0,0.4692635238170624,0,0,-29.888038635253906
0.267225805,0,0,0.20111294090747833,0,0,0
0.268225607,0,0,0.24420857429504395,0,0,0
0.269225687,0,0,0.3687070608139038,0,0,0
0.270226951,0,0,0.8068459630012512,0,0,0.2293200045824051
0.271226068,0,0,1.4460978507995605,0,0,0.9937199950218201
0.27222574,0,0,1.292868971824646,0,0,0.7644000053405762
0.273225875,0,0,1.335964560508728,0,0,1.223039984703064
0.274226751,0,0,1.3120225667953491,0,0,1.223039984703064
0.275225794,0,0,1.1540051698684692,0,0,0.3822000026702881
0.276225373,0,0,1.3215993642807007,0,0,0.7644000053405762
0.277225786,0,0,1.4437036514282227,0,0,0.6879600286483765
0.278977634,0,0,1.278503656387329,0,0,0
0.279259575,0,0,1.0893617868423462,0,0,0
0.280248692,0,0,0.9193734526634216,0,0,9.402119636535645
0.281224031,0,0,0.7565677165985107,0,0,0
0.282228981,0,0,0.7493851184844971,0,0,0
0.283226394,0,0,0.6368576288223267,0,0,9.402119636535645
0.284225751,0,0,0.5530605912208557,0,0,0
0.285225756,0,0,0.5291185975074768,0,0,0
0.286225669,0,0,0.6368576288223267,0,0,0.3822000026702881
0.287225953,0,0,0.8403648138046265,0,0,0.6879600286483765
0.28822581,0,0,0.993593692779541,0,0,0.611519992351532
0.289225908,0,0,1.0965443849563599,0,0,0.9172800183296204
0.290227173,0,0,1.1444283723831177,0,0,0.8408399820327759
0.291225845,0,0,1.2856862545013428,0,0,0.611519992351532
0.292225777,0,0,1.3000515699386597,0,0,0.611519992351532
0.293230393,0,0,1.3766659498214722,0,0,0.2293200045824051
0.294226436,0,0,1.1683704853057861,0,0,0.152879998087883
0.295227201,0,0,0.9026140570640564,0,0,0.152879998087883
0.296226188,0,0,0.7876923680305481,0,0,0.305759996175766
0.297225619,0,0,0.7254431247711182,0,0,0
0.298225569,0,0,0.9169792532920837,0,0,0.5350799560546875
0.299225667,0,0,1.0582371950149536,0,0,0.3822000026702881
0.300225821,0,0,0.9576807022094727,0,0,0.4586400091648102
0.301225419,0,0,0.7493851184844971,0,0,0.2293200045824051
0.302225721,0,0,0.569819986820221,0,0,0.152879998087883
0.303225782,0,0,0.5578489899635315,0,0,0
0.304225898,0,0,0.6416460275650024,0,0,0
0.305225626,0,0,0.8619126081466675,0,0,9.478560447692871
0.306225835,0,0,1.0989385843276978,0,0,0
0.307225674,0,0,1.3646949529647827,0,0,0.5350799560546875
0.308225754,0,0,1.2952631711959839,0,0,0.305759996175766
0.309225519,0,0,0.9624691009521484,0,0,0.8408399820327759
0.310226098,0,0,0.5434837937355042,0,0,0.305759996175766
0.311362528,0,0,0.2801215946674347,0,0,0.0764399990439415
0.312272109,0,0,0.21547815203666687,0,0,0
0.313225874,0,0,0.586579442024231,0,0,9.402119636535645
0.314228398,0,0,1.192312479019165,0,0,0
0.315226033,0,0,1.3479355573654175,0,0,0.2293200045824051
0.316225169,0,0,1.5514427423477173,0,0,0.152879998087883
0.317226137,0,0,1.4173674583435059,0,0,0.9937199950218201
0.318226494,0,0,1.0606313943862915,0,0,1.375920057296753
0.319238185,0,0,0.7565677165985107,0,0,0.6879600286483765
0.320224728,0,0,1.05105459690094,0,0,0.611519992351532
0.321241381,0,0,1.3000515699386597,0,0,0.8408399820327759
0.322256979,0,0,1.2234370708465576,0,0,0.3822000026702881
0.323225781,0,0,1.292868971824646,0,0,0.305759996175766
0.32422575,0,0,1.0007762908935547,0,0,0.4586400091648102
0.325225237,0,0,0.8188169598579407,0,0,0
0.326226335,0,0,1.094150185585022,0,0,0.152879998087883
0.327225007,0,0,1.256955862045288,0,0,0.0764399990439415
0.32822505,0,0,1.0630255937576294,0,0,0
0.329224796,0,0,0.8643068075180054,0,0,0.152879998087883
0.330242616,0,0,0.30885201692581177,0,0,0.152879998087883
0.331226825,0,0,0.1843535304069519,0,0,0
0.332225424,0,0,0.37828385829925537,0,0,-29.582279205322266
0.333225244,0,0,0.48602294921875,0,0,0
0.334226768,0,0,0.6512228846549988,0,0,0
0.335225311,0,0,0.4884171485900879,0,0,0
0.336225242,0,0,0.6799532771110535,0,0,0.2293200045824051
0.337225451,0,0,0.7852981686592102,0,0,0.2293200045824051
0.338224735,0,0,1.113303780555725,0,0,0
0.33922261,0,0,1.4053963422775269,0,0,1.2994799613952637
0.340222301,0,0,1.1516109704971313,0,0,1.223039984703064
0.341221955,0,0,1.3048399686813354,0,0,0.3822000026702881
0.342227812,0,0,1.335964560508728,0,0,1.758120059967041
0.343225392,0,0,1.3958195447921753,0,0,0.2293200045824051
0.344225157,0,0,1.256955862045288,0,0,0.611519992351532
0.345224995,0,0,0.6991068720817566,0,0,0.5350799560546875
0.346225982,0,0,1.1683704853057861,0,0,9.478560447692871
0.347224747,0,0,1.0247182846069336,0,0,0.2293200045824051
0.348224753,0,0,1.1971008777618408,0,0,9.631440162658691
0.349224832,0,0,1.170764684677124,0,0,0.0764399990439415
0.350225819,0,0,0.4644751250743866,0,0,9.631440162658691
0.351224843,0,0,0.4405331015586853,0,0,0
0.352224738,0,0,0.17238251864910126,0,0,9.325679779052734
0.353225836,0,0,-0.011971008032560349,0,0,-0.5350799560546875
0.354226471,0,0,0.17477671802043915,0,0,9.631440162658691
0.355224773,0,0,0.37828385829925537,0,0,9.019920349121094
0.356224852,0,0,0.9888052940368652,0,0,0.611519992351532
0.357224765,0,0,1.139639973640442,0,0,0.6879600286483765
0.358226289,0,0,1.7094600200653076,0,0,0.611519992351532
0.359224351,0,0,1.4676456451416016,0,0,1.605239987373352
0.360224912,0,0,1.259350061416626,0,0,0.7644000053405762
0.361224713,0,0,1.0007762908935547,0,0,0.9172800183296204
0.362226478,0,0,1.1180921792984009,0,0,0.9172800183296204
0.363224391,0,0,1.280897855758667,0,0,0.0764399990439415
0.364224674,0,0,1.4891934394836426,0,0,0.305759996175766
0.365224828,0,0,1.5107412338256836,0,0,0.152879998087883
0.366225815,0,0,1.479616641998291,0,0,0
0.367225024,0,0,0.7948749661445618,0,0,0
0.368224789,0,0,0.3016694188117981,0,0,0
0.369224591,0,0,-0.2561795711517334,0,0,9.478560447692871
0.370225708,0,0,0.07661445438861847,0,0,8.867039680480957
0.371224732,0,0,0.5147533416748047,0,0,0.152879998087883
0.372224756,0,0,0.9911994934082031,0,0,0
0.373224854,0,0,1.400607943534851,0,0,0.7644000053405762
0.374225896,0,0,1.400607943534851,0,0,1.375920057296753
0.375224587,0,0,0.8762778043746948,0,0,1.2994799613952637
0.376224741,0,0,0.6033388376235962,0,0,0.9937199950218201
0.377224561,0,0,0.9552865028381348,0,0,0.611519992351532
0.3782259,0,0,1.0989385843276978,0,0,0.3822000026702881
0.379224868,0,0,1.2425906658172607,0,0,0.2293200045824051
0.380247503,0,0,1.4963760375976563,0,0,0
0.381226694,0,0,1.3311761617660522,0,0,0.611519992351532
0.382226311,0,0,0.8068459630012512,0,0,0.152879998087883
0.383225076,0,0,0.7757213711738586,0,0,0
0.384224248,0,0,0.9002198576927185,0,0,1.070159912109375
0.385224494,0,0,0.727837324142456,0,0,0.305759996175766
0.386225907,0,0,0.9481038451194763,0,0,0
0.387224672,0,0,1.1420341730117798,0,0,1.223039984703064
0.388224714,0,0,1.01753568649292,0,0,1.223039984703064
0.389224813,0,0,0.751779317855835,0,0,0
0.390225744,0,0,0.8643068075180054,0,0,0.305759996175766
0.391224953,0,0,0.8547300100326538,0,0,0.8408399820327759
0.392224663,0,0,1.0055646896362305,0,0,8.790599822998047
0.393228372,0,0,1.194706678390503,0,0,0.152879998087883
0.394226322,0,0,0.7398083209991455,0,0,0.3822000026702881
0.395224698,0,0,1.0031704902648926,0,0,-30.499561309814453
0.396224666,0,0,1.3479355573654175,0,0,1.223039984703064
0.397224746,0,0,1.0869675874710083,0,0,0.7644000053405762
0.398225788,0,0,1.45806884765625,0,0,0.0764399990439415
0.399224886,0,0,1.0007762908935547,0,0,1.9109998941421509
0.400224559,0,0,0.17956513166427612,0,0,1.070159912109375
0.401224731,0,0,0.5099649429321289,0,0,-1.070159912109375
0.402225162,0,0,0.6224924325942993,0,0,1.070159912109375
0.403224816,0,0,0.8810662031173706,0,0,0
0.404224729,0,0,1.644816517829895,0,0,8.561279296875
0.40522466,0,0,1.0821791887283325,0,0,0.6879600286483765
0.406225258,0,0,1.6328455209732056,0,0,9.096360206604004
0.407224856,0,0,1.656787633895874,0,0,0.6879600286483765
0.408224714,0,0,0.9864110946655273,0,0,1.1466000080108643
0.409224812,0,0,1.3287819623947144,0,0,0.611519992351532
0.410238669,0,0,0.12928688526153564,0,0,1.452359914779663
0.411225582,0,0,-0.5602431893348694,0,0,0
0.412224699,0,0,0.24660277366638184,0,0,0
0.413224686,0,0,-0.24660277366638184,0,0,8.867039680480957
0.41422558,0,0,0.9888052940368652,0,0,8.714159965515137
0.41522503,0,0,1.501164436340332,0,0,0.6879600286483765
0.416231425,0,0,0.9265560507774353,0,0,8.714159965515137
0.417228856,0,0,2.5522189140319824,0,0,2.2167599201202393
0.418225102,0,0,1.601720929145813,0,0,0.305759996175766
0.41922483,0,0,1.824381709098816,0,0,1.1466000080108643
0.42022491,0,0,1.3694833517074585,0,0,3.516240119934082
0.421224915,0,0,-0.16519992053508759,0,0,-0.3822000026702881
0.422225976,0,0,0.49559974670410156,0,0,1.375920057296753
0.423224963,0,0,0.11971008777618408,0,0,0.305759996175766
0.424224413,0,0,0.6703764796257019,0,0,8.40839958190918
0.425224789,0,0,1.8148049116134644,0,0,1.1466000080108643
0.426225795,0,0,2.2673089504241943,0,0,-0.4586400091648102
0.427224319,0,0,3.023876667022705,0,0,1.605239987373352
0.428224491,0,0,3.1699230670928955,0,0,0.9937199950218201
0.429224867,0,0,2.6240451335906982,0,0,2.5989599227905273
0.430234206,0,0,1.015141487121582,0,0,2.6754000186920166
0.431225415,0,0,0.36152446269989014,0,0,0.0764399990439415
0.432225106,0,0,0.1388636976480484,0,0,2.2932000160217285
0.433224871,0,0,0.3256114423274994,0,0,9.019920349121094
0.434225913,0,0,1.1420341730117798,0,0,0.305759996175766
0.435224659,0,0,1.1994950771331787,0,0,0.5350799560546875
0.436224869,0,0,2.6408045291900635,0,0,-30.19379997253418
0.4372248,0,0,2.5450363159179688,0,0,1.9874399900436401
0.438225657,0,0,2.8443117141723633,0,0,0.2293200045824051
0.439224737,0,0,2.4157495498657227,0,0,2.446079969406128
0.440224724,0,0,0.5123591423034668,0,0,0.7644000053405762
0.441224748,0,0,0.7613561153411865,0,0,0.6879600286483765
0.442225642,0,0,0.09816227108240128,0,0,1.2994799613952637
0.443224852,0,0,0.6248866319656372,0,0,-30.19379997253418
0.444224654,0,0,0.9720458984375,0,0,1.223039984703064
0.445224844,0,0,1.1971008777618408,0,0,0.0764399990439415
0.446225665,0,0,2.229001760482788,0,0,0.9937199950218201
0.447224615,0,0,2.5091233253479004,0,0,1.223039984703064
0.448224694,0,0,2.6599581241607666,0,0,0.7644000053405762
0.449224403,0,0,1.7046716213226318,0,0,2.751840114593506
0.450225687,0,0,0.9241618514060974,0,0,0.5350799560546875
0.451224692,0,0,0.9600749015808105,0,0,1.452359914779663
0.452224716,0,0,0.2513911724090576,0,0,-29.888038635253906
0.453224574,0,0,1.05105459690094,0,0,-29.582279205322266
0.454225931,0,0,1.3215993642807007,0,0,0.5350799560546875
0.455242214,0,0,1.7693150043487549,0,0,0
0.45622559,0,0,2.1571757793426514,0,0,2.14031982421875
0.457225022,0,0,1.9704279899597168,0,0,0.611519992351532
0.458226823,0,0,2.0398597717285156,0,0,2.14031982421875
0.459224755,0,0,0.7805097699165344,0,0,2.2932000160217285
0.460224705,0,0,0.8307880163192749,0,0,-29.582279205322266
0.461225896,0,0,0.5339069962501526,0,0,1.605239987373352
0.462225346,0,0,0.9911994934082031,0,0,-0.9937199950218201
0.463224833,0,0,1.5921441316604614,0,0,0.8408399820327759
0.464224746,0,0,1.8363527059555054,0,0,0.2293200045824051
0.465224807,0,0,2.6623523235321045,0,0,1.070159912109375
0.466225923,0,0,2.4827871322631836,0,0,2.06387996673584
0.467224392,0,0,2.5115175247192383,0,0,0.7644000053405762
0.468224786,0,0,1.4077905416488647,0,0,2.9811599254608154
0.469224718,0,0,0.40462008118629456,0,0,0.4586400091648102
0.470225742,0,0,0.6153098344802856,0,0,0.4586400091648102
0.471224414,0,0,0.5195417404174805,0,0,0.7644000053405762
0.472224845,0,0,0.9217676520347595,0,0,8.25551986694336
0.473226925,0,0,1.256955862045288,0,0,0.9937199950218201
0.474238115,0,0,1.6519991159439087,0,0,9.402119636535645
0.475225343,0,0,2.456450939178467,0,0,1.758120059967041
0.476224738,0,0,2.403778553009033,0,0,1.1466000080108643
0.477225021,0,0,2.3798365592956543,0,0,2.06387996673584
0.478226064,0,0,0.8259995579719543,0,0,2.5989599227905273
0.479224865,0,0,0.5027823448181152,0,0,0
0.480224834,0,0,0.44771572947502136,0,0,1.2994799613952637
0.481224839,0,0,0.5889736413955688,0,0,-30.19379997253418
0.482225604,0,0,1.6974890232086182,0,0,0
0.483224999,0,0,1.7884687185287476,0,0,0.611519992351532
0.484224875,0,0,2.516305923461914,0,0,-0.2293200045824051
0.485224787,0,0,2.52109432220459,0,0,2.522519826889038
0.486225589,0,0,2.0470423698425293,0,0,1.2994799613952637
0.487224632,0,0,1.4772224426269531,0,0,2.6754000186920166
0.488224841,0,0,0.19393034279346466,0,0,0.9937199950218201
0.489224421,0,0,0.31124621629714966,0,0,0
0.490225593,0,0,0.3758896589279175,0,0,0.305759996175766
0.491224506,0,0,1.5945383310317993,0,0,8.484840393066406
0.492223974,0,0,2.2649147510528564,0,0,1.2994799613952637
0.493456773,0,0,2.382230758666992,0,0,0.305759996175766
0.494223448,0,0,2.715024709701538,0,0,1.452359914779663
0.495222454,0,0,2.2242133617401123,0,0,2.446079969406128
0.496231756,0,0,1.7381904125213623,0,0,1.223039984703064
0.497223372,0,0,0.6847416758537292,0,0,2.3696401119232178
0.49822273,0,0,-0.047884032130241394,0,0,-29.888038635253906
0.499222402,0,0,0.5219359993934631,0,0,0.0764399990439415
0.500222074,0,0,0.7110779285430908,0,0,8.40839958190918
0.501222357,0,0,1.7525556087493896,0,0,-29.582279205322266
0.50222327,0,0,1.886630892753601,0,0,0.7644000053405762
0.503222313,0,0,2.2194249629974365,0,0,0.2293200045824051
0.504222022,0,0,2.2625205516815186,0,0,2.2932000160217285
0.505222231,0,0,1.8052281141281128,0,0,1.223039984703064
0.506222774,0,0,1.580173134803772,0,0,1.9874399900436401
0.507222279,0,0,0.40462008118629456,0,0,2.06387996673584
0.508222026,0,0,0.6272808313369751,0,0,0
0.509222198,0,0,0.6991068720817566,0,0,0.9937199950218201
0.510222555,0,0,1.3958195447921753,0,0,8.790599822998047
0.511222468,0,0,1.9081788063049316,0,0,1.1466000080108643
0.512222085,0,0,1.7381904125213623,0,0,0.305759996175766
0.513253775,0,0,2.434903144836426,0,0,1.2994799613952637
0.514227244,0,0,2.3487119674682617,0,0,2.5989599227905273
0.515225527,0,0,2.2361843585968018,0,0,1.1466000080108643
0.516224551,0,0,1.5945383310317993,0,0,2.446079969406128
0.517224946,0,0,0.569819986820221,0,0,0.4586400091648102
0.518225081,0,0,1.0199298858642578,0,0,0
0.519224809,0,0,0.6847416758537292,0,0,-9.784319877624512
0.520224851,0,0,1.4077905416488647,0,0,-1.070159912109375
0.521224949,0,0,1.6879122257232666,0,0,0.8408399820327759
0.522226233,0,0,1.7286136150360107,0,0,0
0.523224942,0,0,2.231395959854126,0,0,2.3696401119232178
0.524224966,0,0,1.7381904125213623,0,0,1.375920057296753
0.525224953,0,0,1.8315643072128296,0,0,1.605239987373352
0.52622594,0,0,0.629675030708313,0,0,2.446079969406128
0.527225001,0,0,0.24420857429504395,0,0,-0.611519992351532
0.528224821,0,0,0.5506663918495178,0,0,0.9172800183296204
0.529250345,0,0,0.7829039692878723,0,0,8.331960678100586
0.530330998,0,0,1.9057846069335938,0,0,9.096360206604004
0.531226931,0,0,1.922544002532959,0,0,0.3822000026702881
0.532224362,0,0,2.626439332962036,0,0,1.070159912109375
0.533224793,0,0,2.5522189140319824,0,0,2.828279972076416
0.534229077,0,0,2.0925323963165283,0,0,1.5288000106811523
0.535224212,0,0,1.3934253454208374,0,0,2.446079969406128
0.536224273,0,0,0.31124621629714966,0,0,1.2994799613952637
0.537224593,0,0,0.2968810200691223,0,0,9.325679779052734
0.538226043,0,0,0.4118026793003082,0,0,9.096360206604004
0.539224604,0,0,1.3623007535934448,0,0,-1.8345600366592407
0.54022461,0,0,1.9823989868164063,0,0,0.8408399820327759
0.541224764,0,0,1.802833914756775,0,0,0
0.542225899,0,0,2.851494312286377,0,0,2.446079969406128
0.543224793,0,0,2.169146776199341,0,0,2.06387996673584
0.544224706,0,0,2.056619167327881,0,0,1.8345600366592407
0.545224656,0,0,0.9840168952941895,0,0,2.828279972076416
0.54622581,0,0,0.33518823981285095,0,0,0
0.547224834,0,0,0.5937620401382446,0,0,0.2293200045824051
0.548224524,0,0,0.5578489899635315,0,0,9.019920349121094
0.54922453,0,0,1.625662922859192,0,0,9.019920349121094
0.550225591,0,0,1.5634137392044067,0,0,0.152879998087883
0.551224837,0,0,2.3319525718688965,0,0,9.478560447692871
0.552224584,0,0,2.87064790725708,0,0,2.446079969406128
0.553224571,0,0,2.2026655673980713,0,0,1.375920057296753
0.554225965,0,0,1.98958158493042,0,0,2.904719829559326
0.555224656,0,0,0.5123591423034668,0,0,2.14031982421875
0.556224865,0,0,0.07422025501728058,0,0,9.631440162658691
0.557224148,0,0,-0.06703764945268631,0,0,0.7644000053405762
0.558225728,0,0,0.524330198764801,0,0,-1.223039984703064
0.559224789,0,0,1.4772224426269531,0,0,0.305759996175766
0.560224702,0,0,1.9991583824157715,0,0,9.402119636535645
0.561224559,0,0,3.268085241317749,0,0,1.223039984703064
0.562225713,0,0,3.220201253890991,0,0,3.2869198322296143
0.563224848,0,0,2.7222073078155518,0,0,1.375920057296753
0.564224409,0,0,1.4700398445129395,0,0,3.3633599281311035
0.565224711,0,0,0.15083470940589905,0,0,0.3822000026702881
0.566225902,0,0,0.014365210197865963,0,0,0.4586400091648102
0.567224574,0,0,-0.06224924325942993,0,0,9.478560447692871
0.56822495,0,0,0.9433154463768005,0,0,8.25551986694336
0.569224622,0,0,1.6376339197158813,0,0,0.0764399990439415
0.570225516,0,0,2.585737943649292,0,0,9.325679779052734
0.571224707,0,0,3.35667085647583,0,0,2.2167599201202393
0.572224824,0,0,2.7700912952423096,0,0,1.9874399900436401
0.573224533,0,0,2.2601263523101807,0,0,2.3696401119232178
0.574225983,0,0,0.5674257874488831,0,0,2.6754000186920166
0.575224174,0,0,-0.06224924325942993,0,0,0.0764399990439415
0.576224568,0,0,0.24899697303771973,0,0,0.7644000053405762
0.57724137,0,0,0.4189853072166443,0,0,8.331960678100586
0.578225764,0,0,1.436521053314209,0,0,0.152879998087883
0.579224325,0,0,1.501164436340332,0,0,-0.4586400091648102
0.580224775,0,0,2.607285737991333,0,0,0
0.58122454,0,0,2.6360161304473877,0,0,2.6754000186920166
0.582225583,0,0,2.33913516998291,0,0,1.223039984703064
0.583224588,0,0,1.7118542194366455,0,0,2.751840114593506
0.584227779,0,0,0.22744916379451752,0,0,2.06387996673584
0.58522484,0,0,0.2537853717803955,0,0,0
0.586226327,0,0,0.0694318488240242,0,0,0.3822000026702881
0.58722487,0,0,0.9313444495201111,0,0,-0.7644000053405762
0.588224523,0,0,1.599326729774475,0,0,0.6879600286483765
0.589224714,0,0,2.075772762298584,0,0,-0.5350799560546875
0.590225645,0,0,3.1699230670928955,0,0,1.9874399900436401
0.591224892,0,0,2.765302896499634,0,0,2.3696401119232178
0.592224823,0,0,2.559401512145996,0,0,1.9874399900436401
0.593224643,0,0,1.1659762859344482,0,0,2.9811599254608154
0.594225593,0,0,0.2801215946674347,0,0,0.305759996175766
0.595224914,0,0,0.45250412821769714,0,0,0.6879600286483765
0.596224586,0,0,0.17956513166427612,0,0,-29.888038635253906
0.597224388,0,0,0.950498104095459,0,0,9.019920349121094
0.598225819,0,0,1.036689281463623,0,0,0.0764399990439415
0.599224806,0,0,2.008735179901123,0,0,8.867039680480957
0.600224404,0,0,2.8610711097717285,0,0,2.14031982421875
0.601224799,0,0,2.82515811920166,0,0,1.070159912109375
0.602225638,0,0,2.6886885166168213,0,0,2.522519826889038
0.603224699,0,0,0.8403648138046265,0,0,2.522519826889038
0.604224649,0,0,0.37828385829925537,0,0,0.152879998087883
0.605224617,0,0,0.090979665517807,0,0,0.9172800183296204
0.606225697,0,0,0.21308395266532898,0,0,8.714159965515137
0.607224888,0,0,1.0893617868423462,0,0,-29.582279205322266
0.608224578,0,0,1.290474772453308,0,0,9.019920349121094
0.609224954,0,0,2.5234885215759277,0,0,0.2293200045824051
0.610225626,0,0,2.80361008644104,0,0,2.3696401119232178
0.611224928,0,0,2.983175277709961,0,0,1.452359914779663
0.612224619,0,0,2.03507137298584,0,0,3.2869198322296143
0.613224754,0,0,0.8044517636299133,0,0,0.9172800183296204
0.614225593,0,0,0.6009446382522583,0,0,1.070159912109375
0.615224802,0,0,0.12449848651885986,0,0,0
0.616224734,0,0,0.7350199222564697,0,0,8.867039680480957
0.617224591,0,0,0.9864110946655273,0,0,0.611519992351532
0.6182253,0,0,1.941697597503662,0,0,-0.9937199950218201
0.619224972,0,0,2.7916390895843506,0,0,1.375920057296753
0.620224552,0,0,2.3582887649536133,0,0,1.375920057296753
0.621224502,0,0,3.0190882682800293,0,0,1.5288000106811523
0.622225359,0,0,1.1492167711257935,0,0,2.446079969406128
0.623224754,0,0,0.45489832758903503,0,0,0.0764399990439415
0.624224815,0,0,0.028730420395731926,0,0,1.070159912109375
0.625224691,0,0,-0.16998831927776337,0,0,9.096360206604004
0.626225733,0,0,0.5147533416748047,0,0,0.2293200045824051
0.627224665,0,0,0.7733271718025208,0,0,9.019920349121094
0.628224726,0,0,2.2601263523101807,0,0,-29.582279205322266
0.629224528,0,0,2.782062292098999,0,0,2.06387996673584
0.630233792,0,0,2.937685489654541,0,0,1.223039984703064
0.631354018,0,0,2.6886885166168213,0,0,2.751840114593506
0.632228507,0,0,1.0893617868423462,0,0,2.06387996673584
0.633227013,0,0,0.5746083855628967,0,0,0.8408399820327759
0.634226518,0,0,0.05506663769483566,0,0,0.6879600286483765
0.635225061,0,0,0.5051765441894531,0,0,9.172800064086914
0.636224863,0,0,1.0247182846069336,0,0,0.7644000053405762
0.63722472,0,0,1.6160861253738403,0,0,-29.888038635253906
0.638225855,0,0,2.6647465229034424,0,0,1.223039984703064
0.639225009,0,0,2.6623523235321045,0,0,1.375920057296753
0.640224533,0,0,3.0789434909820557,0,0,0.8408399820327759
0.641224686,0,0,2.0590133666992188,0,0,3.3633599281311035
0.642225618,0,0,0.8188169598579407,0,0,0.9172800183296204
0.643224327,0,0,0.5267243981361389,0,0,0.9937199950218201
0.644224462,0,0,0.06224924325942993,0,0,0.152879998087883
0.645224875,0,0,0.5363011956214905,0,0,9.478560447692871
0.646225918,0,0,0.7254431247711182,0,0,9.478560447692871
0.64722522,0,0,1.8914192914962769,0,0,9.172800064086914
0.648224762,0,0,2.540247917175293,0,0,2.06387996673584
0.649224601,0,0,2.6001031398773193,0,0,0.4586400091648102
0.650225755,0,0,2.717418909072876,0,0,2.446079969406128
0.651224612,0,0,1.070208191871643,0,0,2.751840114593506
0.652224766,0,0,0.45010992884635925,0,0,0.3822000026702881
0.653224753,0,0,0.10534487664699554,0,0,1.758120059967041
0.654225981,0,0,0.3974374830722809,0,0,-0.5350799560546875
0.655225042,0,0,1.1252747774124146,0,0,0.152879998087883
0.65622464,0,0,1.1803414821624756,0,0,9.631440162658691
0.657224608,0,0,2.3726539611816406,0,0,0.9937199950218201
0.658225743,0,0,2.5450363159179688,0,0,1.5288000106811523
0.659225008,0,0,2.9065608978271484,0,0,1.452359914779663
0.660224829,0,0,2.0015525817871094,0,0,2.828279972076416
0.661224797,0,0,0.8595184087753296,0,0,0.7644000053405762
0.662225877,0,0,0.8954314589500427,0,0,0.8408399820327759
0.663224697,0,0,0.5291185975074768,0,0,0.4586400091648102
0.664224702,0,0,0.9289502501487732,0,0,-0.611519992351532
0.665224245,0,0,1.1683704853057861,0,0,0.4586400091648102
0.666225917,0,0,1.6280571222305298,0,0,9.325679779052734
0.667224923,0,0,2.3104045391082764,0,0,1.1466000080108643
0.66822478,0,0,2.2242133617401123,0,0,0.3822000026702881
0.669224545,0,0,2.3487119674682617,0,0,1.9874399900436401
0.670225699,0,0,1.1755530834197998,0,0,2.2932000160217285
0.671224834,0,0,0.8307880163192749,0,0,9.631440162658691
0.672224784,0,0,0.6607996821403503,0,0,1.452359914779663
0.673224956,0,0,0.6177040338516235,0,0,9.402119636535645
0.674225776,0,0,1.1659762859344482,0,0,0
0.675224726,0,0,1.1635819673538208,0,0,0
0.676224824,0,0,2.126051187515259,0,0,0
0.677224922,0,0,2.1547815799713135,0,0,2.2167599201202393
0.67822578,0,0,2.2673089504241943,0,0,0.9172800183296204
0.679224841,0,0,2.006340980529785,0,0,2.446079969406128
0.680224791,0,0,0.7613561153411865,0,0,0.8408399820327759
0.681224741,0,0,0.9026140570640564,0,0,0.4586400091648102
0.682225783,0,0,0.7206547260284424,0,0,0.7644000053405762
0.683224326,0,0,1.01753568649292,0,0,8.867039680480957
0.68422472,0,0,1.4891934394836426,0,0,1.223039984703064
0.685224744,0,0,1.6496049165725708,0,0,0
0.68622525,0,0,2.1930887699127197,0,0,1.070159912109375
0.687224478,0,0,1.8746598958969116,0,0,1.452359914779663
0.688224798,0,0,2.5115175247192383,0,0,0.6879600286483765
0.68922497,0,0,1.7190368175506592,0,0,3.3633599281311035
0.690225976,0,0,0.9361328482627869,0,0,0.611519992351532
0.691224389,0,0,1.1037269830703735,0,0,1.2994799613952637
0.692224357,0,0,0.4692635238170624,0,0,9.096360206604004
0.693240788,0,0,1.1109095811843872,0,0,9.172800064086914
0.694227146,0,0,0.9361328482627869,0,0,0.0764399990439415
0.695222633,0,0,1.7812861204147339,0,0,0
0.696234138,0,0,1.9345149993896484,0,0,1.9109998941421509
0.697223718,0,0,1.6711528301239014,0,0,0.4586400091648102
0.698223113,0,0,2.188300371170044,0,0,2.446079969406128
0.699222229,0,0,0.6129156351089478,0,0,2.06387996673584
0.700222013,0,0,0.9050082564353943,0,0,9.631440162658691
0.70122224,0,0,0.8427590131759644,0,0,1.6816799640655518
0.702223264,0,0,1.2521674633026123,0,0,0
0.703222177,0,0,1.4508862495422363,0,0,1.223039984703064
0.704222275,0,0,1.678335428237915,0,0,0.2293200045824051
0.705223114,0,0,2.3056161403656006,0,0,1.1466000080108643
0.706222972,0,0,2.1978771686553955,0,0,1.6816799640655518
0.707222347,0,0,2.382230758666992,0,0,1.1466000080108643
0.708221909,0,0,1.9321208000183105,0,0,3.210479974746704
0.709222099,0,0,0.3471592366695404,0,0,0.6879600286483765
0.710222697,0,0,0.7972691655158997,0,0,0.2293200045824051
0.711222351,0,0,0.6224924325942993,0,0,0.4586400091648102
0.712222245,0,0,1.5849615335464478,0,0,9.019920349121094
0.713222307,0,0,1.5155296325683594,0,0,0.9937199950218201
0.714225812,0,0,2.1332337856292725,0,0,0.5350799560546875
0.715224799,0,0,1.9608511924743652,0,0,1.9874399900436401
0.716225119,0,0,2.169146776199341,0,0,0.6879600286483765
0.717225199,0,0,1.7525556087493896,0,0,1.9874399900436401
0.718226056,0,0,1.0893617868423462,0,0,1.9109998941421509
0.719224784,0,0,0.5195417404174805,0,0,9.478560447692871
0.720224901,0,0,1.0342950820922852,0,0,1.5288000106811523
0.721224814,0,0,0.6751648783683777,0,0,9.325679779052734
0.722225875,0,0,1.1899182796478271,0,0,0
0.723224936,0,0,1.4700398445129395,0,0,0.9937199950218201
0.724224793,0,0,1.9823989868164063,0,0,0.2293200045824051
0.725224928,0,0,2.4612393379211426,0,0,2.14031982421875
0.726225638,0,0,2.298433542251587,0,0,0.611519992351532
0.727225088,0,0,2.1715409755706787,0,0,2.751840114593506
0.728224723,0,0,0.569819986820221,0,0,0.9172800183296204
0.729238376,0,0,0.5363011956214905,0,0,0
0.73023416,0,0,0.42616790533065796,0,0,0.9172800183296204
0.731226462,0,0,0.9289502501487732,0,0,8.867039680480957
0.732225726,0,0,1.6711528301239014,0,0,0.9937199950218201
0.733225417,0,0,1.9321208000183105,0,0,0.3822000026702881
0.734226756,0,0,2.6240451335906982,0,0,1.6816799640655518
0.735225391,0,0,2.2840683460235596,0,0,2.06387996673584
0.736225267,0,0,2.513911724090576,0,0,1.452359914779663
0.737224958,0,0,1.0749965906143188,0,0,1.9109998941421509
0.738225278,0,0,0.45489832758903503,0,0,9.172800064086914
0.739266283,0,0,0.8068459630012512,0,0,0.305759996175766
0.740297399,0,0,0.9720458984375,0,0,-1.070159912109375
0.741253776,0,0,1.644816517829895,0,0,-29.888038635253906
0.742345058,0,0,1.522712230682373,0,0,0.5350799560546875
0.743228546,0,0,1.6615760326385498,0,0,9.631440162658691
0.744264088,0,0,1.824381709098816,0,0,1.9874399900436401
0.745226631,0,0,1.6065093278884888,0,0,1.5288000106811523
0.746224063,0,0,1.4867992401123047,0,0,1.9874399900436401
0.747239439,0,0,0.2777273952960968,0,0,2.2167599201202393
0.748222407,0,0,0.6991068720817566,0,0,9.402119636535645
0.749222617,0,0,0.9959878921508789,0,0,0.5350799560546875
0.750226233,0,0,1.4221558570861816,0,0,-30.19379997253418
0.751224868,0,0,2.1930887699127197,0,0,1.223039984703064
0.752225041,0,0,1.86508309841156,0,0,0.611519992351532
0.753225379,0,0,2.367865562438965,0,0,1.223039984703064
0.754225311,0,0,2.051830768585205,0,0,2.14031982421875
0.75522515,0,0,2.298433542251587,0,0,1.5288000106811523
0.756225174,0,0,1.414973258972168,0,0,3.0576000213623047
0.757225272,0,0,0.14604631066322327,0,0,0.4586400091648102
0.758226777,0,0,0.5386953949928284,0,0,9.478560447692871
0.759225135,0,0,0.6200982332229614,0,0,0.7644000053405762
0.760225288,0,0,1.4508862495422363,0,0,8.714159965515137
0.761225183,0,0,1.9728221893310547,0,0,1.1466000080108643
0.76222617,0,0,1.9632453918457031,0,0,9.402119636535645
0.76322512,0,0,2.4851813316345215,0,0,2.2167599201202393
0.764225144,0,0,1.9752163887023926,0,0,1.1466000080108643
0.765225131,0,0,2.2912509441375732,0,0,2.06387996673584
0.766226118,0,0,0.3878606855869293,0,0,2.2932000160217285
0.767225216,0,0,0.06464344263076782,0,0,-30.19379997253418
0.76822537,0,0,0.48602294921875,0,0,0.4586400091648102
0.769225134,0,0,0.5410895943641663,0,0,8.790599822998047
0.770224659,0,0,1.9249382019042969,0,0,-29.582279205322266
0.771232849,0,0,1.479616641998291,0,0,0.4586400091648102
0.772231392,0,0,2.5689783096313477,0,0,1.223039984703064
0.773229397,0,0,2.4612393379211426,0,0,2.446079969406128
0.774230995,0,0,2.5498247146606445,0,0,1.375920057296753
0.775225945,0,0,2.0039467811584473,0,0,3.0576000213623047
0.776225081,0,0,0.6799532771110535,0,0,0.9172800183296204
0.777225327,0,0,0.608127236366272,0,0,0.0764399990439415
0.778225258,0,0,0.3687070608139038,0,0,0.4586400091648102
0.77922519,0,0,1.0031704902648926,0,0,8.25551986694336
0.78025538,0,0,1.3646949529647827,0,0,0
0.781269182,0,0,1.821987509727478,0,0,9.631440162658691
0.782227151,0,0,2.5258827209472656,0,0,0.4586400091648102
0.783229341,0,0,2.3942017555236816,0,0,1.5288000106811523
0.784225606,0,0,2.4899697303771973,0,0,2.3696401119232178
0.785225575,0,0,1.2258312702178955,0,0,2.6754000186920166
0.786225414,0,0,0.028730420395731926,0,0,0
0.78722553,0,0,0.10055647045373917,0,0,0.8408399820327759
0.788225369,0,0,-0.09816227108240128,0,0,-30.19379997253418
0.78922543,0,0,1.05105459690094,0,0,-0.6879600286483765
0.790226899,0,0,1.7477672100067139,0,0,0.2293200045824051
0.791224849,0,0,2.4396915435791016,0,0,9.478560447692871
0.792225558,0,0,3.24414324760437,0,0,2.446079969406128
0.793238415,0,0,3.0358476638793945,0,0,1.758120059967041
0.794226347,0,0,2.319981336593628,0,0,3.592679977416992
0.79522513,0,0,0.5722141861915588,0,0,1.605239987373352
0.79622545,0,0,-0.023942016065120697,0,0,0
0.797225363,0,0,-0.22744916379451752,0,0,0.4586400091648102
0.79822635,0,0,0.36152446269989014,0,0,8.026199340820313
0.799225634,0,0,1.5298948287963867,0,0,9.631440162658691
0.800225454,0,0,1.7693150043487549,0,0,0
0.801225589,0,0,3.222595453262329,0,0,0.611519992351532
0.802224909,0,0,2.8562827110290527,0,0,2.2167599201202393
0.803222545,0,0,2.7485435009002686,0,0,1.8345600366592407
0.804222439,0,0,1.4317326545715332,0,0,3.134040117263794
0.805222482,0,0,-0.2561795711517334,0,0,0.9937199950218201
0.806226598,0,0,0.10295066982507706,0,0,0.9172800183296204
0.807225011,0,0,-0.1149216815829277,0,0,8.867039680480957
0.808224554,0,0,0.8954314589500427,0,0,8.561279296875
0.809224707,0,0,1.5825673341751099,0,0,0.5350799560546875
0.810225824,0,0,2.0901381969451904,0,0,-29.582279205322266
0.811224922,0,0,3.028665065765381,0,0,1.8345600366592407
0.812224928,0,0,2.6024973392486572,0,0,2.14031982421875
0.813224637,0,0,2.5474305152893066,0,0,2.446079969406128
0.814225809,0,0,0.8020575642585754,0,0,2.828279972076416
0.815224926,0,0,0.2992752194404602,0,0,0
0.816224209,0,0,0.21787235140800476,0,0,0.4586400091648102
0.817224659,0,0,0.3687070608139038,0,0,-1.223039984703064
0.81822572,0,0,1.6352397203445435,0,0,0.305759996175766
0.819224651,0,0,1.5155296325683594,0,0,0.152879998087883
0.820224509,0,0,2.477998733520508,0,0,0.3822000026702881
0.821224663,0,0,2.717418909072876,0,0,2.522519826889038
0.822225687,0,0,2.7964274883270264,0,0,2.06387996673584
0.823224711,0,0,1.9608511924743652,0,0,3.210479974746704
0.824224549,0,0,0.35673606395721436,0,0,1.375920057296753
0.825224629,0,0,0.4165911078453064,0,0,0.152879998087883
0.826225746,0,0,0.22505496442317963,0,0,0.5350799560546875
0.827224714,0,0,0.828393816947937,0,0,-1.8345600366592407
0.828224775,0,0,1.3192051649093628,0,0,0.8408399820327759
0.829224836,0,0,1.1755530834197998,0,0,9.019920349121094
0.830234712,0,0,2.4660277366638184,0,0,1.1466000080108643
0.831225903,0,0,2.3343467712402344,0,0,2.06387996673584
0.832224946,0,0,2.6024973392486572,0,0,1.758120059967041
0.833224747,0,0,1.680729627609253,0,0,2.9811599254608154
0.834225531,0,0,0.7541735172271729,0,0,0.7644000053405762
0.835224721,0,0,0.8331822156906128,0,0,1.223039984703064
0.836224949,0,0,0.24899697303771973,0,0,0.152879998087883
0.837224807,0,0,1.0678139925003052,0,0,9.019920349121094
0.838225479,0,0,1.1827356815338135,0,0,0.2293200045824051
0.839224818,0,0,1.9728221893310547,0,0,8.867039680480957
0.840224786,0,0,2.801215887069702,0,0,1.9109998941421509
0.841224884,0,0,2.7317841053009033,0,0,1.223039984703064
0.842225779,0,0,2.604891538619995,0,0,2.6754000186920166
0.843224673,0,0,0.9648633003234863,0,0,2.2932000160217285
0.844224808,0,0,0.5386953949928284,0,0,0.6879600286483765
0.845224684,0,0,0.24420857429504395,0,0,0.9172800183296204
0.846225856,0,0,0.22744916379451752,0,0,-1.1466000080108643
0.847224843,0,0,0.9816226959228516,0,0,9.325679779052734
0.848224701,0,0,1.0295066833496094,0,0,9.325679779052734
0.849224669,0,0,2.4636335372924805,0,0,0
0.850225934,0,0,2.6192567348480225,0,0,1.9109998941421509
0.851224754,0,0,2.894589900970459,0,0,2.446079969406128
0.852224741,0,0,1.8339585065841675,0,0,3.3633599281311035
0.853224784,0,0,0.545877993106842,0,0,1.452359914779663
0.854225604,0,0,0.8020575642585754,0,0,1.1466000080108643
0.855224758,0,0,0.06703764945268631,0,0,0.3822000026702881
0.856224263,0,0,0.8571242094039917,0,0,9.402119636535645
0.857240806,0,0,1.656787633895874,0,0,0
0.858226441,0,0,2.6168625354766846,0,0,0
0.859224447,0,0,3.7038300037384033,0,0,2.446079969406128
0.860224934,0,0,3.5889084339141846,0,0,2.6754000186920166
0.861224884,0,0,3.6104562282562256,0,0,3.3633599281311035
0.862225778,0,0,2.1284453868865967,0,0,4.20419979095459
0.863224672,0,0,1.0055646896362305,0,0,1.223039984703064
0.864225011,0,0,0.9864110946655273,0,0,2.3696401119232178
0.865224795,0,0,0.6727706789970398,0,0,9.325679779052734
0.8662258,0,0,1.8171991109848022,0,0,9.019920349121094
0.86722475,0,0,2.2864625453948975,0,0,0.8408399820327759
0.868224663,0,0,2.387019157409668,0,0,-29.888038635253906
0.869224891,0,0,3.1435868740081787,0,0,1.8345600366592407
0.870225433,0,0,2.252943754196167,0,0,2.2932000160217285
0.871224883,0,0,2.142810583114624,0,0,1.223039984703064
0.872224889,0,0,1.525106430053711,0,0,2.904719829559326
0.873225005,0,0,0.6153098344802856,0,0,1.2994799613952637
0.874225789,0,0,1.2090718746185303,0,0,1.070159912109375
0.875224961,0,0,1.5466543436050415,0,0,1.070159912109375
0.876224818,0,0,1.9033904075622559,0,0,0.152879998087883
0.877224435,0,0,2.585737943649292,0,0,2.14031982421875
0.878225959,0,0,2.118868589401245,0,0,1.223039984703064
0.879224724,0,0,2.6575639247894287,0,0,1.223039984703064
0.880224489,0,0,2.956839084625244,0,0,2.751840114593506
0.881224513,0,0,2.33913516998291,0,0,1.8345600366592407
0.882225685,0,0,2.6623523235321045,0,0,2.2167599201202393
0.883224931,0,0,2.145204782485962,0,0,2.2932000160217285
0.884224548,0,0,1.5179238319396973,0,0,0.9172800183296204
0.885224794,0,0,1.678335428237915,0,0,0.9937199950218201
0.886225744,0,0,1.5658079385757446,0,0,0.6879600286483765
0.887224675,0,0,1.455674648284912,0,0,0
0.888224977,0,0,1.699883222579956,0,0,0
0.889224779,0,0,1.4317326545715332,0,0,0.8408399820327759
0.890225451,0,0,1.338358759880066,0,0,0.4586400091648102
0.891224272,0,0,1.8555063009262085,0,0,0.9937199950218201
0.892224425,0,0,1.889025092124939,0,0,2.3696401119232178
0.893457187,0,0,1.889025092124939,0,0,1.8345600366592407
0.894223844,0,0,1.9512743949890137,0,0,1.6816799640655518
0.895222608,0,0,2.011129379272461,0,0,2.6754000186920166
0.896222429,0,0,1.9512743949890137,0,0,1.9109998941421509
0.897232286,0,0,2.27209734916687,0,0,1.9109998941421509
0.898223958,0,0,2.6671407222747803,0,0,1.9109998941421509
0.899222057,0,0,2.4851813316345215,0,0,1.070159912109375
0.900222284,0,0,2.580949544906616,0,0,1.1466000080108643
0.90122216,0,0,2.403778553009033,0,0,1.758120059967041
0.902222536,0,0,1.7190368175506592,0,0,0.3822000026702881
0.903221912,0,0,2.0039467811584473,0,0,0.305759996175766
0.904222214,0,0,2.0685901641845703,0,0,0.9172800183296204
0.905222293,0,0,1.702277421951294,0,0,0.7644000053405762
0.906222817,0,0,1.8387469053268433,0,0,1.223039984703064
0.907222341,0,0,1.6400281190872192,0,0,1.9109998941421509
0.908222199,0,0,1.1683704853057861,0,0,1.2994799613952637
0.90922226,0,0,1.1492167711257935,0,0,1.1466000080108643
0.910222821,0,0,1.7334020137786865,0,0,1.605239987373352
0.911222104,0,0,2.2385785579681396,0,0,1.6816799640655518
0.912222184,0,0,2.2912509441375732,0,0,1.223039984703064
0.913222412,0,0,2.6168625354766846,0,0,1.5288000106811523
0.91422575,0,0,2.7293899059295654,0,0,1.9109998941421509
0.915225108,0,0,2.1164743900299072,0,0,1.452359914779663
0.916225039,0,0,1.7812861204147339,0,0,1.2994799613952637
0.917224841,0,0,1.6663644313812256,0,0,1.2994799613952637
0.918225995,0,0,1.7046716213226318,0,0,0.7644000053405762
0.919224945,0,0,1.821987509727478,0,0,1.2994799613952637
0.920224895,0,0,1.8555063009262085,0,0,0.611519992351532
0.921233474,0,0,2.387019157409668,0,0,1.452359914779663
0.922226221,0,0,2.140416383743286,0,0,1.6816799640655518
0.923225004,0,0,1.534683346748352,0,0,1.2994799613952637
0.924224509,0,0,1.2952631711959839,0,0,1.223039984703064
0.925225089,0,0,1.6041151285171509,0,0,1.2994799613952637
0.926225539,0,0,1.9847931861877441,0,0,0.9937199950218201
0.927224952,0,0,2.2409727573394775,0,0,1.223039984703064
0.928224902,0,0,2.3750481605529785,0,0,1.6816799640655518
0.929224815,0,0,2.4420857429504395,0,0,1.2994799613952637
0.930233802,0,0,2.3247697353363037,0,0,1.452359914779663
0.931226159,0,0,1.7286136150360107,0,0,1.375920057296753
0.932225609,0,0,1.316810965538025,0,0,1.2994799613952637
0.9332253,0,0,1.357512354850769,0,0,0.9937199950218201
0.93422675,0,0,1.7357962131500244,0,0,0.4586400091648102
0.935225367,0,0,1.9321208000183105,0,0,0.611519992351532
0.936225224,0,0,2.164358377456665,0,0,1.5288000106811523
0.937225174,0,0,1.9081788063049316,0,0,1.1466000080108643
0.938226253,0,0,1.8171991109848022,0,0,1.223039984703064
0.939225074,0,0,2.0901381969451904,0,0,1.9874399900436401
0.940225265,0,0,1.8962076902389526,0,0,1.1466000080108643
0.941225048,0,0,1.8171991109848022,0,0,1.605239987373352
0.942225942,0,0,1.7142484188079834,0,0,1.758120059967041
0.9432253,0,0,2.1140801906585693,0,0,1.375920057296753
0.944225027,0,0,2.499546527862549,0,0,1.9109998941421509
0.945224811,0,0,2.609679937362671,0,0,1.6816799640655518
0.94622589,0,0,2.410961151123047,0,0,1.758120059967041
0.947225396,0,0,2.006340980529785,0,0,1.9874399900436401
0.948225216,0,0,1.6328455209732056,0,0,0.9937199950218201
0.94922524,0,0,1.944091796875,0,0,1.1466000080108643
0.950226135,0,0,2.1284453868865967,0,0,0.9172800183296204
0.951225214,0,0,1.944091796875,0,0,0.7644000053405762
0.952224997,0,0,1.4676456451416016,0,0,0.9172800183296204
0.953225262,0,0,1.414973258972168,0,0,0.8408399820327759
0.954226046,0,0,1.7190368175506592,0,0,1.452359914779663
0.955225255,0,0,1.889025092124939,0,0,1.223039984703064
0.956225186,0,0,1.9249382019042969,0,0,1.452359914779663
0.957225173,0,0,1.9800047874450684,0,0,1.8345600366592407
0.958226345,0,0,1.821987509727478,0,0,1.6816799640655518
0.9594797,0,0,1.821987509727478,0,0,1.5288000106811523
0.960232042,0,0,2.2601263523101807,0,0,1.8345600366592407
0.96122651,0,0,2.6024973392486572,0,0,1.375920057296753
0.962224071,0,0,2.695871114730835,0,0,1.9109998941421509
0.963222725,0,0,2.360682964324951,0,0,1.9874399900436401
0.964223082,0,0,2.006340980529785,0,0,1.452359914779663
0.965223051,0,0,1.6711528301239014,0,0,1.2994799613952637
0.966226186,0,0,1.4053963422775269,0,0,0.9172800183296204
0.967224766,0,0,1.5969325304031372,0,0,1.1466000080108643
0.968224882,0,0,2.0877439975738525,0,0,0.8408399820327759
0.969225091,0,0,2.319981336593628,0,0,1.1466000080108643
0.970226097,0,0,2.1068975925445557,0,0,1.605239987373352
0.971224806,0,0,1.7262194156646729,0,0,1.223039984703064
0.972225256,0,0,1.6112977266311646,0,0,1.223039984703064
0.973224632,0,0,1.3048399686813354,0,0,1.070159912109375
0.974226026,0,0,1.2737152576446533,0,0,0.5350799560546875
0.975224699,0,0,1.6615760326385498,0,0,0.8408399820327759
0.976224704,0,0,2.1787235736846924,0,0,1.223039984703064
0.977224339,0,0,2.31758713722229,0,0,1.5288000106811523
0.978225511,0,0,2.2026655673980713,0,0,2.06387996673584
0.979224573,0,0,1.886630892753601,0,0,1.9109998941421509
0.98022456,0,0,1.6519991159439087,0,0,1.452359914779663
0.981224565,0,0,1.5179238319396973,0,0,1.223039984703064
0.982225608,0,0,1.6304513216018677,0,0,0.9172800183296204
0.983224595,0,0,2.054224967956543,0,0,1.1466000080108643
0.984224619,0,0,2.408566951751709,0,0,1.1466000080108643
0.985240087,0,0,2.542642116546631,0,0,1.605239987373352
0.986225963,0,0,2.451662540435791,0,0,2.14031982421875
0.987224617,0,0,2.207453966140747,0,0,2.06387996673584
0.988224548,0,0,1.9345149993896484,0,0,2.06387996673584
0.989224072,0,0,1.6400281190872192,0,0,1.605239987373352
0.990225448,0,0,1.6496049165725708,0,0,0.8408399820327759
0.991224583,0,0,1.8339585065841675,0,0,0.6879600286483765
0.992224756,0,0,1.922544002532959,0,0,0.6879600286483765
0.993226391,0,0,2.0853497982025146,0,0,0.7644000053405762
0.994230674,0,0,2.126051187515259,0,0,0.9172800183296204
0.995224513,0,0,1.7094600200653076,0,0,1.605239987373352
0.997698647,0,0,1.7094600200653076,0,0,1.605239987373352
0.997877108,0,0,1.7094600200653076,0,0,1.758120059967041
0.998246733,0,0,1.6735470294952393,0,0,1.5288000106811523
0.999274868,0,0,1.6136919260025024,0,0,1.5288000106811523
1.000286669,0,0,1.702277421951294,0,0,1.070159912109375
1.001294675,0,0,1.9776105880737305,0,0,1.223039984703064
1.002337272,0,0,2.205059766769409,0,0,1.5288000106811523
1.003282445,0,0,2.3104045391082764,0,0,1.375920057296753
1.004282173,0,0,2.2457611560821533,0,0,1.223039984703064
1.005260031,0,0,2.126051187515259,0,0,1.375920057296753
1.00625737,0,0,2.0398597717285156,0,0,1.223039984703064
1.007266486,0,0,1.8842366933822632,0,0,1.1466000080108643
1.008315972,0,0,1.6112977266311646,0,0,1.223039984703064
1.009286182,0,0,1.6831238269805908,0,0,0.9937199950218201
1.010262151,0,0,1.6496049165725708,0,0,0.8408399820327759
1.011292878,0,0,1.7501614093780518,0,0,0.611519992351532
1.012317883,0,0,1.9249382019042969,0,0,1.5288000106811523
1.013373147,0,0,1.9249382019042969,0,0,1.375920057296753
1.014272395,0,0,1.9943699836730957,0,0,1.452359914779663
1.015268345,0,0,2.0590133666992188,0,0,1.452359914779663
1.016247777,0,0,1.941697597503662,0,0,1.2994799613952637
1.017276874,0,0,1.886630892753601,0,0,1.375920057296753
1.018287602,0,0,1.6136919260025024,0,0,0.9172800183296204
1.019243571,0,0,1.7142484188079834,0,0,1.070159912109375
1.020254114,0,0,2.0231003761291504,0,0,1.1466000080108643
1.021248193,0,0,1.9512743949890137,0,0,1.375920057296753
1.022409808,0,0,1.9512743949890137,0,0,1.605239987373352
1.023268834,0,0,1.7166426181793213,0,0,1.1466000080108643
1.024235543,0,0,1.5897499322891235,0,0,0.9937199950218201
1.025315159,0,0,1.6855180263519287,0,0,1.223039984703064
1.026239554,0,0,1.7286136150360107,0,0,0.7644000053405762
1.027231023,0,0,1.7573440074920654,0,0,1.375920057296753
1.028231769,0,0,1.946485996246338,0,0,0.9937199950218201
1.029230552,0,0,2.145204782485962,0,0,2.06387996673584
1.030953641,0,0,2.145204782485962,0,0,1.452359914779663
1.031253119,0,0,1.9943699836730957,0,0,1.758120059967041
1.032261809,0,0,1.9776105880737305,0,0,2.06387996673584
1.033239167,0,0,1.8148049116134644,0,0,1.605239987373352
1.03423895,0,0,2.070984363555908,0,0,1.1466000080108643
1.035232808,0,0,2.2697031497955322,0,0,1.1466000080108643
1.036232499,0,0,2.499546527862549,0,0,1.375920057296753
1.037233356,0,0,2.557007312774658,0,0,1.223039984703064
1.038231047,0,0,2.5043349266052246,0,0,1.375920057296753
1.039232071,0,0,2.008735179901123,0,0,1.8345600366592407
1.040391389,0,0,2.008735179901123,0,0,1.452359914779663
1.041263081,0,0,1.7094600200653076,0,0,1.223039984703064
1.042257494,0,0,1.6496049165725708,0,0,1.375920057296753
1.043253315,0,0,1.7717092037200928,0,0,0.8408399820327759
1.044287579,0,0,1.845929503440857,0,0,1.452359914779663
1.045296973,0,0,1.9297266006469727,0,0,1.223039984703064
1.046286553,0,0,1.9321208000183105,0,0,1.070159912109375
1.047269318,0,0,1.8770540952682495,0,0,1.452359914779663
1.048291397,0,0,1.8483237028121948,0,0,1.070159912109375
1.049373606,0,0,1.8483237028121948,0,0,1.375920057296753
1.050292149,0,0,1.9057846069335938,0,0,1.6816799640655518
1.051277636,0,0,1.98958158493042,0,0,1.223039984703064
1.052254198,0,0,2.0374655723571777,0,0,1.758120059967041
1.053265166,0,0,2.2673089504241943,0,0,1.6816799640655518
1.054270153,0,0,2.2361843585968018,0,0,1.8345600366592407
1.055263677,0,0,2.078166961669922,0,0,1.9109998941421509
1.056247016,0,0,2.03507137298584,0,0,1.5288000106811523
1.057256299,0,0,1.8938134908676147,0,0,1.1466000080108643
1.058248935,0,0,1.8291701078414917,0,0,0.9172800183296204
1.059275699,0,0,1.9057846069335938,0,0,0.611519992351532
1.06027439,0,0,2.0207061767578125,0,0,0.9937199950218201
1.061264173,0,0,2.0231003761291504,0,0,0.9937199950218201
1.062281401,0,0,2.0685901641845703,0,0,1.375920057296753
1.063273999,0,0,1.9847931861877441,0,0,1.6816799640655518
1.064267171,0,0,1.9249382019042969,0,0,1.605239987373352
1.065273769,0,0,1.944091796875,0,0,1.758120059967041
1.066276127,0,0,1.8602946996688843,0,0,1.6816799640655518
1.067264799,0,0,1.8339585065841675,0,0,1.375920057296753
1.06827423,0,0,1.821987509727478,0,0,0.8408399820327759
1.069263218,0,0,1.9943699836730957,0,0,0.9937199950218201
1.070226335,0,0,2.1284453868865967,0,0,1.1466000080108643
1.071223951,0,0,2.3104045391082764,0,0,1.2994799613952637
1.072224105,0,0,2.0805611610412598,0,0,1.223039984703064
1.073316572,0,0,2.0805611610412598,0,0,1.5288000106811523
1.074229005,0,0,1.800439715385437,0,0,0.9172800183296204
1.075223233,0,0,1.5394717454910278,0,0,1.2994799613952637
1.076223572,0,0,1.3239935636520386,0,0,0.8408399820327759
1.077223633,0,0,1.0630255937576294,0,0,0.9172800183296204
1.078225008,0,0,1.3048399686813354,0,0,0.4586400091648102
1.079223292,0,0,1.824381709098816,0,0,0.6879600286483765
1.080223723,0,0,2.3942017555236816,0,0,1.5288000106811523
1.081223451,0,0,2.6599581241607666,0,0,1.9874399900436401
1.082226827,0,0,2.4588451385498047,0,0,2.2167599201202393
1.083224795,0,0,2.1811177730560303,0,0,2.2932000160217285
1.084224042,0,0,1.742978811264038,0,0,1.8345600366592407
1.085223621,0,0,1.5921441316604614,0,0,1.375920057296753
1.086224608,0,0,2.073378562927246,0,0,1.375920057296753
1.087223892,0,0,2.47560453414917,0,0,1.1466000080108643
1.088235878,0,0,2.4157495498657227,0,0,1.2994799613952637
1.089224458,0,0,2.2649147510528564,0,0,1.375920057296753
1.090224186,0,0,1.9249382019042969,0,0,1.2994799613952637
1.091224043,0,0,1.558625340461731,0,0,1.1466000080108643
1.092232512,0,0,1.6831238269805908,0,0,0.9172800183296204
1.093224665,0,0,1.9297266006469727,0,0,1.452359914779663
1.094228967,0,0,1.9632453918457031,0,0,1.2994799613952637
1.095223769,0,0,1.9512743949890137,0,0,1.452359914779663
1.096223441,0,0,1.9321208000183105,0,0,1.5288000106811523
1.097223965,0,0,2.032677173614502,0,0,1.452359914779663
1.098224397,0,0,1.9536685943603516,0,0,1.452359914779663
1.099223458,0,0,1.6759412288665771,0,0,0.9172800183296204
1.1002231120000001,0,0,1.5873557329177856,0,0,0.9172800183296204
1.101223043,0,0,1.3910311460494995,0,0,0.9172800183296204
1.10222466,0,0,1.8291701078414917,0,0,0.9172800183296204
1.103223813,0,0,2.3487119674682617,0,0,1.375920057296753
1.104223634,0,0,2.231395959854126,0,0,1.452359914779663
1.10522338,0,0,2.2840683460235596,0,0,2.446079969406128
1.106227756,0,0,1.9033904075622559,0,0,1.9109998941421509
1.107226391,0,0,1.802833914756775,0,0,1.5288000106811523
1.108225952,0,0,1.9560627937316895,0,0,2.2932000160217285
1.109226309,0,0,1.7334020137786865,0,0,1.070159912109375
1.110226556,0,0,1.86508309841156,0,0,1.452359914779663
1.111226024,0,0,2.030282974243164,0,0,1.375920057296753
1.112226085,0,0,2.3798365592956543,0,0,0.8408399820327759
1.113226146,0,0,2.5498247146606445,0,0,1.8345600366592407
1.114226281,0,0,2.4205379486083984,0,0,1.223039984703064
1.1152258800000001,0,0,2.276885747909546,0,0,1.5288000106811523
1.116225978,0,0,2.0638017654418945,0,0,1.605239987373352
1.1172260569999999,0,0,1.5155296325683594,0,0,0.4586400091648102
1.118227044,0,0,1.237802267074585,0,0,1.070159912109375
1.119226031,0,0,1.1683704853057861,0,0,0.6879600286483765
1.120225963,0,0,1.6376339197158813,0,0,0.305759996175766
1.121225783,0,0,2.0853497982025146,0,0,1.223039984703064
1.122226326,0,0,2.097320795059204,0,0,1.375920057296753
1.123225942,0,0,2.298433542251587,0,0,1.9109998941421509
1.12422604,0,0,2.3726539611816406,0,0,2.06387996673584
1.125225879,0,0,2.1930887699127197,0,0,2.446079969406128
1.126226848,0,0,2.054224967956543,0,0,1.9874399900436401
1.127226224,0,0,1.886630892753601,0,0,1.452359914779663
1.128225914,0,0,2.250549554824829,0,0,1.223039984703064
1.129226068,0,0,2.4468741416931152,0,0,1.2994799613952637
1.13022687,0,0,2.387019157409668,0,0,0.9172800183296204
1.131225968,0,0,2.6216509342193604,0,0,0.9937199950218201
1.132225936,0,0,2.051830768585205,0,0,1.1466000080108643
1.133226275,0,0,1.0582371950149536,0,0,0.6879600286483765
1.134227133,0,0,0.6607996821403503,0,0,0.4586400091648102
1.135226009,0,0,0.9361328482627869,0,0,0
1.136226033,0,0,1.357512354850769,0,0,0.6879600286483765
1.137226038,0,0,1.6735470294952393,0,0,0.6879600286483765
1.138226859,0,0,2.4684219360351563,0,0,1.9109998941421509
1.139225753,0,0,2.5450363159179688,0,0,2.446079969406128
1.140225388,0,0,1.9249382019042969,0,0,2.446079969406128
1.141225949,0,0,1.6136919260025024,0,0,2.2932000160217285
1.142226899,0,0,1.9823989868164063,0,0,2.2167599201202393
1.143225627,0,0,2.205059766769409,0,0,2.06387996673584
1.144225558,0,0,2.561795711517334,0,0,1.375920057296753
1.145225823,0,0,3.0885202884674072,0,0,1.5288000106811523
1.146226977,0,0,2.609679937362671,0,0,1.6816799640655518
1.147226075,0,0,1.922544002532959,0,0,0.2293200045824051
1.148226136,0,0,1.8626888990402222,0,0,1.1466000080108643
1.149225771,0,0,1.6160861253738403,0,0,0.9937199950218201
1.1502269059999999,0,0,1.4939818382263184,0,0,0.4586400091648102
1.151225967,0,0,1.8411411046981812,0,0,1.223039984703064
1.1522258619999999,0,0,1.7286136150360107,0,0,2.14031982421875
1.153225812,0,0,1.5155296325683594,0,0,0.8408399820327759
1.154226688,0,0,2.027888774871826,0,0,1.9109998941421509
1.155225804,0,0,2.2026655673980713,0,0,2.522519826889038
1.1562261249999999,0,0,1.8387469053268433,0,0,1.605239987373352
1.157225889,0,0,2.4229321479797363,0,0,1.605239987373352
1.158226969,0,0,2.4827871322631836,0,0,2.2932000160217285
1.159226178,0,0,1.9249382019042969,0,0,0.611519992351532
1.16022585,0,0,2.3247697353363037,0,0,1.605239987373352
1.161225837,0,0,2.1116859912872314,0,0,1.8345600366592407
1.162226769,0,0,2.1068975925445557,0,0,0.611519992351532
1.163226052,0,0,2.3965959548950195,0,0,1.9109998941421509
1.164225984,0,0,1.702277421951294,0,0,1.758120059967041
1.165225471,0,0,1.2952631711959839,0,0,0.305759996175766
1.166226958,0,0,1.5849615335464478,0,0,1.605239987373352
1.1672260190000001,0,0,1.1204863786697388,0,0,1.1466000080108643
1.168225969,0,0,1.5083470344543457,0,0,9.402119636535645
1.169225789,0,0,1.8579005002975464,0,0,1.5288000106811523
1.170226646,0,0,1.6065093278884888,0,0,0.7644000053405762
1.171225911,0,0,1.9081788063049316,0,0,1.2994799613952637
1.172225658,0,0,1.8698714971542358,0,0,1.5288000106811523
1.173225626,0,0,2.212242364883423,0,0,0.9937199950218201
1.174226817,0,0,2.784456491470337,0,0,2.5989599227905273
1.175226081,0,0,2.3487119674682617,0,0,2.446079969406128
1.176226068,0,0,2.3104045391082764,0,0,2.446079969406128
1.177225778,0,0,2.121262788772583,0,0,2.904719829559326
1.178226913,0,0,1.7693150043487549,0,0,1.1466000080108643
1.179225974,0,0,2.389413356781006,0,0,1.758120059967041
1.180225702,0,0,1.723825216293335,0,0,0.6879600286483765
1.181225818,0,0,1.7142484188079834,0,0,9.631440162658691
1.182226898,0,0,1.6519991159439087,0,0,1.452359914779663
1.183225366,0,0,1.525106430053711,0,0,9.019920349121094
1.184226094,0,0,3.0789434909820557,0,0,2.06387996673584
1.185225952,0,0,2.6431987285614014,0,0,2.06387996673584
1.186227068,0,0,2.2409727573394775,0,0,1.223039984703064
1.1872254070000001,0,0,2.1571757793426514,0,0,3.3633599281311035
1.188226172,0,0,1.3096283674240112,0,0,0.4586400091648102
1.189225992,0,0,1.1971008777618408,0,0,1.6816799640655518
1.190226905,0,0,0.4644751250743866,0,0,0.305759996175766
1.191226059,0,0,0.4189853072166443,0,0,8.331960678100586
1.192225638,0,0,0.9265560507774353,0,0,0
1.19322594,0,0,1.9081788063049316,0,0,-1.6816799640655518
1.194226816,0,0,2.9305028915405273,0,0,1.6816799640655518
1.195225785,0,0,2.319981336593628,0,0,0.9172800183296204
1.196226216,0,0,1.8914192914962769,0,0,2.06387996673584
1.197225851,0,0,0.768538773059845,0,0,2.2932000160217285
1.198226931,0,0,0.06224924325942993,0,0,0.3822000026702881
1.199225955,0,0,-0.21787235140800476,0,0,0.7644000053405762
1.200225701,0,0,-0.3687070608139038,0,0,8.40839958190918
1.201226114,0,0,0.5770025849342346,0,0,9.325679779052734
1.202226934,0,0,1.2282254695892334,0,0,-29.582279205322266
1.203226051,0,0,2.9975404739379883,0,0,0
1.2042258160000001,0,0,3.40216064453125,0,0,3.210479974746704
1.205225636,0,0,2.851494312286377,0,0,2.3696401119232178
1.206226882,0,0,2.4181437492370605,0,0,3.3633599281311035
1.207226147,0,0,1.1061211824417114,0,0,1.6816799640655518
1.20822543,0,0,1.0127472877502441,0,0,1.223039984703064
1.209225566,0,0,0.6943184733390808,0,0,0.611519992351532
1.210226867,0,0,0.8044517636299133,0,0,8.714159965515137
1.211226058,0,0,1.2282254695892334,0,0,0.2293200045824051
1.212225823,0,0,1.647210717201233,0,0,-30.499561309814453
1.213225791,0,0,2.935291290283203,0,0,1.2994799613952637
1.214226741,0,0,2.183511972427368,0,0,1.5288000106811523
1.21522621,0,0,1.9632453918457031,0,0,1.1466000080108643
1.216225975,0,0,1.1779472827911377,0,0,2.2932000160217285
1.217225795,0,0,0.7398083209991455,0,0,0.0764399990439415
1.218227004,0,0,0.7158663272857666,0,0,0.9172800183296204
1.219226028,0,0,0.10534487664699554,0,0,9.402119636535645
1.220226108,0,0,0.667982280254364,0,0,9.631440162658691
1.221225836,0,0,0.6153098344802856,0,0,0
1.222226656,0,0,1.6927006244659424,0,0,9.478560447692871
1.223225884,0,0,2.33913516998291,0,0,2.3696401119232178
1.224225852,0,0,2.1763293743133545,0,0,0.8408399820327759
1.225225987,0,0,2.4372973442077637,0,0,2.3696401119232178
1.22622703,0,0,1.656787633895874,0,0,2.446079969406128
1.227226035,0,0,1.6831238269805908,0,0,0.7644000053405762
1.228225967,0,0,1.3287819623947144,0,0,1.605239987373352
1.229226009,0,0,0.8307880163192749,0,0,9.096360206604004
1.230225848,0,0,1.0127472877502441,0,0,0.6879600286483765
1.231225891,0,0,1.01753568649292,0,0,8.867039680480957
1.232226026,0,0,2.3582887649536133,0,0,0.5350799560546875
1.233226106,0,0,2.499546527862549,0,0,1.9109998941421509
1.234226074,0,0,2.473210334777832,0,0,1.2994799613952637
1.235225469,0,0,2.2026655673980713,0,0,3.210479974746704
1.236225604,0,0,0.9241618514060974,0,0,0.5350799560546875
1.237338126,0,0,0.9241618514060974,0,0,1.1466000080108643
1.238399761,0,0,-0.05267243832349777,0,0,0.6879600286483765
1.239262398,0,0,0.05027823522686958,0,0,8.331960678100586
1.240228478,0,0,0.27054479718208313,0,0,8.867039680480957
1.241226539,0,0,1.2737152576446533,0,0,8.331960678100586
1.2422294520000001,0,0,2.5689783096313477,0,0,1.758120059967041
1.243226291,0,0,2.140416383743286,0,0,0.9937199950218201
1.244225981,0,0,2.4157495498657227,0,0,2.2932000160217285
1.245226098,0,0,1.5658079385757446,0,0,2.6754000186920166
1.246227233,0,0,1.3048399686813354,0,0,1.070159912109375
1.247225868,0,0,0.8044517636299133,0,0,2.06387996673584
1.2482256330000001,0,0,-0.043095629662275314,0,0,0
1.249226083,0,0,0.31124621629714966,0,0,0
1.2502269959999999,0,0,0.6536170840263367,0,0,9.402119636535645
1.25122552,0,0,2.319981336593628,0,0,9.631440162658691
1.252225525,0,0,3.2130186557769775,0,0,2.3696401119232178
1.253225938,0,0,3.0382418632507324,0,0,0.9172800183296204
1.254227185,0,0,2.9664158821105957,0,0,3.516240119934082
1.2552258379999999,0,0,1.800439715385437,0,0,2.6754000186920166
1.256226103,0,0,1.522712230682373,0,0,2.2932000160217285
1.257226016,0,0,0.35673606395721436,0,0,1.223039984703064
1.258227207,0,0,-0.3495534360408783,0,0,9.019920349121094
1.259238008,0,0,-0.17238251864910126,0,0,-29.582279205322266
1.260226496,0,0,0.6584054827690125,0,0,-1.758120059967041
1.261226094,0,0,2.650381326675415,0,0,9.478560447692871
1.262226247,0,0,2.5761611461639404,0,0,0.7644000053405762
1.263225883,0,0,2.7102363109588623,0,0,1.9109998941421509
1.264225962,0,0,2.121262788772583,0,0,2.5989599227905273
1.265226208,0,0,0.9696516990661621,0,0,1.070159912109375
1.266227047,0,0,0.6631938815116882,0,0,1.9109998941421509
1.267225886,0,0,-0.38067805767059326,0,0,0
1.26822604,0,0,-0.043095629662275314,0,0,9.096360206604004
1.269225897,0,0,-0.1149216815829277,0,0,-29.888038635253906
1.270226884,0,0,1.5921441316604614,0,0,-1.5288000106811523
1.271225982,0,0,2.9975404739379883,0,0,1.223039984703064
1.272225951,0,0,3.0310592651367188,0,0,1.1466000080108643
1.2732253820000001,0,0,3.07415509223938,0,0,2.3696401119232178
1.27422698,0,0,1.7764976024627686,0,0,2.06387996673584
1.27522593,0,0,1.3742717504501343,0,0,1.605239987373352
1.276225917,0,0,0.5746083855628967,0,0,1.6816799640655518
1.277226015,0,0,0.10295066982507706,0,0,8.561279296875
1.278226558,0,0,0.5410895943641663,0,0,0.2293200045824051
1.279225471,0,0,0.7829039692878723,0,0,-30.499561309814453
1.2802256060000001,0,0,2.784456491470337,0,0,0.9937199950218201
1.281559626,0,0,2.784456491470337,0,0,0.9937199950218201
1.282253413,0,0,2.87064790725708,0,0,0.8408399820327759
1.283248863,0,0,2.6024973392486572,0,0,2.828279972076416
1.284226758,0,0,1.7070658206939697,0,0,1.2994799613952637
1.2852257630000001,0,0,1.338358759880066,0,0,2.3696401119232178
1.286231621,0,0,0.13168109953403473,0,0,0.0764399990439415
1.287226163,0,0,-0.06464344263076782,0,0,0
1.2882259280000001,0,0,-0.09816227108240128,0,0,0.0764399990439415
1.289225711,0,0,0.7469909191131592,0,0,-1.8345600366592407
1.290227217,0,0,2.406172752380371,0,0,1.070159912109375
1.2912262970000001,0,0,2.5905263423919678,0,0,0.8408399820327759
1.292225746,0,0,2.889801502227783,0,0,1.223039984703064
1.293227993,0,0,1.98958158493042,0,0,2.522519826889038
1.294236424,0,0,1.5729905366897583,0,0,1.223039984703064
1.295225763,0,0,0.9145850539207458,0,0,1.758120059967041
1.296235268,0,0,-0.10773907601833344,0,0,-9.631440162658691
1.297228811,0,0,0.20111294090747833,0,0,0
1.298227483,0,0,0.272938996553421,0,0,-29.888038635253906
1.2992262110000001,0,0,1.7980455160140991,0,0,0
1.300225883,0,0,2.652775526046753,0,0,1.8345600366592407
1.301225963,0,0,2.516305923461914,0,0,0.6879600286483765
1.302226246,0,0,2.63362193107605,0,0,3.0576000213623047
1.303226048,0,0,1.7908629179000854,0,0,1.070159912109375
1.3042260909999999,0,0,2.1930887699127197,0,0,1.223039984703064
1.305225892,0,0,1.50355863571167,0,0,2.06387996673584
1.306226157,0,0,0.993593692779541,0,0,0.2293200045824051
1.3072254220000001,0,0,0.2825157940387726,0,0,1.070159912109375
1.308225779,0,0,-0.0071826050989329815,0,0,-30.499561309814453
1.309225803,0,0,1.216254472732544,0,0,0.611519992351532
1.31022642,0,0,1.4724340438842773,0,0,0
1.311225796,0,0,2.145204782485962,0,0,0.0764399990439415
1.312226079,0,0,2.537853717803955,0,0,1.9874399900436401
1.313225955,0,0,1.9393033981323242,0,0,0.5350799560546875
1.31422759,0,0,1.9249382019042969,0,0,2.14031982421875
1.315225837,0,0,0.6057330369949341,0,0,1.070159912109375
1.316225898,0,0,0.3974374830722809,0,0,0.5350799560546875
1.317225885,0,0,-0.23942017555236816,0,0,0.6879600286483765
1.318227001,0,0,0.8379706144332886,0,0,-30.499561309814453
1.319225673,0,0,2.3247697353363037,0,0,1.2994799613952637
1.320225957,0,0,2.205059766769409,0,0,0.3822000026702881
1.321225796,0,0,3.00711727142334,0,0,2.446079969406128
1.322227023,0,0,2.2649147510528564,0,0,1.6816799640655518
1.323226159,0,0,2.051830768585205,0,0,1.1466000080108643
1.324225701,0,0,1.2473790645599365,0,0,2.2167599201202393
1.325225855,0,0,0.6033388376235962,0,0,0
1.326226842,0,0,0.751779317855835,0,0,0.6879600286483765
1.327226014,0,0,0.8667010068893433,0,0,9.631440162658691
1.328225797,0,0,2.0207061767578125,0,0,9.402119636535645
1.329225803,0,0,1.9488801956176758,0,0,1.605239987373352
1.330226975,0,0,2.03507137298584,0,0,0.4586400091648102
1.331226166,0,0,2.2242133617401123,0,0,2.446079969406128
1.332225468,0,0,1.5179238319396973,0,0,0.8408399820327759
1.333225973,0,0,1.6352397203445435,0,0,1.605239987373352
1.334227164,0,0,0.569819986820221,0,0,0.6879600286483765
1.335225743,0,0,0.7230489253997803,0,0,0
1.336225823,0,0,0.2322375625371933,0,0,0.152879998087883
1.337226088,0,0,0.9888052940368652,0,0,8.331960678100586
1.338227241,0,0,2.4684219360351563,0,0,1.452359914779663
1.339226043,0,0,2.2194249629974365,0,0,0.5350799560546875
1.340225808,0,0,2.427720546722412,0,0,0.9172800183296204
1.341225962,0,0,1.8962076902389526,0,0,3.0576000213623047
1.3422270969999999,0,0,1.237802267074585,0,0,0.5350799560546875
1.343226065,0,0,0.7781155705451965,0,0,1.5288000106811523
1.344225904,0,0,0.20111294090747833,0,0,-29.582279205322266
1.345226021,0,0,0.608127236366272,0,0,0.4586400091648102
1.346226804,0,0,0.3758896589279175,0,0,-0.4586400091648102
1.347225921,0,0,2.207453966140747,0,0,9.478560447692871
1.348225982,0,0,2.8562827110290527,0,0,2.14031982421875
1.349225876,0,0,2.738966703414917,0,0,0.8408399820327759
1.350225623,0,0,2.6791117191314697,0,0,2.6754000186920166
1.351225869,0,0,1.659181833267212,0,0,2.14031982421875
1.352226004,0,0,1.0319008827209473,0,0,1.452359914779663
1.353225176,0,0,0.395043283700943,0,0,1.223039984703064
1.354226793,0,0,0.12928688526153564,0,0,0
1.355225743,0,0,0.31364041566848755,0,0,0.2293200045824051
1.356225896,0,0,0.9648633003234863,0,0,8.561279296875
1.3572259199999999,0,0,2.8443117141723633,0,0,1.223039984703064
1.358226944,0,0,2.4827871322631836,0,0,1.2994799613952637
1.35922582,0,0,2.346317768096924,0,0,1.375920057296753
1.3602260849999999,0,0,1.7836803197860718,0,0,2.522519826889038
1.361226035,0,0,1.0271124839782715,0,0,0.7644000053405762
1.362227781,0,0,0.8451532125473022,0,0,1.2994799613952637
1.363225935,0,0,0.23702596127986908,0,0,0.611519992351532
1.364225922,0,0,0.6368576288223267,0,0,0.305759996175766
1.365225946,0,0,0.5219359993934631,0,0,0.152879998087883
1.366226915,0,0,1.8363527059555054,0,0,-29.582279205322266
1.367226068,0,0,2.808398485183716,0,0,2.446079969406128
1.36822587,0,0,2.276885747909546,0,0,0.8408399820327759
1.369226079,0,0,2.188300371170044,0,0,1.9109998941421509
1.370227066,0,0,1.3311761617660522,0,0,1.5288000106811523
1.371225905,0,0,1.194706678390503,0,0,0.152879998087883
1.372225596,0,0,0.9744400978088379,0,0,1.070159912109375
1.37322799,0,0,0.6919242739677429,0,0,9.478560447692871
1.374227107,0,0,1.194706678390503,0,0,0.7644000053405762
1.375225427,0,0,1.5682021379470825,0,0,0.0764399990439415
1.376225877,0,0,2.9041666984558105,0,0,0.5350799560546875
1.3772260680000001,0,0,2.403778553009033,0,0,2.2932000160217285
1.378226777,0,0,1.7597382068634033,0,0,0.6879600286483765
1.3792259310000001,0,0,1.3886369466781616,0,0,2.446079969406128
1.380225714,0,0,0.7038952708244324,0,0,0.3822000026702881
1.381226053,0,0,0.9193734526634216,0,0,0
1.382226836,0,0,0.5746083855628967,0,0,0
1.383225694,0,0,0.9888052940368652,0,0,9.172800064086914
1.3842258840000001,0,0,1.0893617868423462,0,0,0.611519992351532
1.385225816,0,0,1.7046716213226318,0,0,-29.582279205322266
1.386237914,0,0,2.7485435009002686,0,0,1.8345600366592407
1.387227401,0,0,1.7836803197860718,0,0,1.758120059967041
1.388226036,0,0,1.8291701078414917,0,0,2.06387996673584
1.389225857,0,0,0.9983820915222168,0,0,1.758120059967041
1.390227269,0,0,0.8738836050033569,0,0,0.3822000026702881
1.391226016,0,0,0.9217676520347595,0,0,1.452359914779663
1.392225892,0,0,0.7134721279144287,0,0,8.867039680480957
1.393225305,0,0,1.1348515748977661,0,0,0.3822000026702881
1.394226995,0,0,1.170764684677124,0,0,9.478560447692871
1.395226001,0,0,2.959233283996582,0,0,0.0764399990439415
1.396225914,0,0,2.8203697204589844,0,0,2.5989599227905273
1.397225364,0,0,2.3319525718688965,0,0,0.4586400091648102
1.3982267400000001,0,0,2.0614075660705566,0,0,2.6754000186920166
1.399225967,0,0,0.9672574996948242,0,0,1.6816799640655518
1.400225843,0,0,0.993593692779541,0,0,0.8408399820327759
1.401225886,0,0,0.5099649429321289,0,0,0.9172800183296204
1.4022267990000001,0,0,0.33039984107017517,0,0,9.631440162658691
1.403225767,0,0,0.38546648621559143,0,0,0
1.404225662,0,0,0.9552865028381348,0,0,-1.223039984703064
1.405225908,0,0,2.9544448852539063,0,0,1.223039984703064
1.406227154,0,0,2.6671407222747803,0,0,1.1466000080108643
1.407225678,0,0,2.9735984802246094,0,0,1.2994799613952637
1.408225887,0,0,2.2433669567108154,0,0,3.210479974746704
1.409226189,0,0,0.7015010714530945,0,0,0.611519992351532
1.41022738,0,0,0.8379706144332886,0,0,1.2994799613952637
1.411225867,0,0,-0.08379705995321274,0,0,0
1.412225984,0,0,0.2537853717803955,0,0,9.478560447692871
1.413225693,0,0,0.26096799969673157,0,0,9.019920349121094
1.414226143,0,0,1.8962076902389526,0,0,9.325679779052734
1.415225296,0,0,2.940079689025879,0,0,2.06387996673584
1.416225783,0,0,2.7437551021575928,0,0,0.9172800183296204
1.417225845,0,0,2.698265314102173,0,0,2.522519826889038
1.4182265539999999,0,0,1.41257905960083,0,0,2.446079969406128
1.419225578,0,0,0.8690952062606812,0,0,0.6879600286483765
1.420225861,0,0,0.40222588181495667,0,0,1.5288000106811523
1.4212259409999999,0,0,-0.014365210197865963,0,0,9.096360206604004
1.422226909,0,0,0.6631938815116882,0,0,0.305759996175766
1.423226026,0,0,0.9241618514060974,0,0,-1.223039984703064
1.424225735,0,0,2.6599581241607666,0,0,0.9937199950218201
1.4252258150000001,0,0,2.8203697204589844,0,0,1.8345600366592407
1.4262268200000001,0,0,2.741360902786255,0,0,0.8408399820327759
1.427225881,0,0,2.535459518432617,0,0,2.828279972076416
1.428225942,0,0,1.1061211824417114,0,0,0.9172800183296204
1.429241688,0,0,0.871489405632019,0,0,0.9937199950218201
1.430227602,0,0,-0.07900865375995636,0,0,0.305759996175766
1.431225811,0,0,-0.002394201699644327,0,0,8.790599822998047
1.432225872,0,0,0.45250412821769714,0,0,0.0764399990439415
1.433231433,0,0,1.5634137392044067,0,0,-1.1466000080108643
1.43422742,0,0,3.1962592601776123,0,0,2.2167599201202393
1.435225888,0,0,2.7269957065582275,0,0,1.1466000080108643
1.436225264,0,0,2.6623523235321045,0,0,1.9874399900436401
1.437225937,0,0,1.8195933103561401,0,0,2.751840114593506
1.438226905,0,0,0.706289529800415,0,0,0.5350799560546875
1.439226225,0,0,0.49559974670410156,0,0,1.1466000080108643
1.440230064,0,0,-0.2585737705230713,0,0,-29.888038635253906
1.441225922,0,0,0.12449848651885986,0,0,0
1.442227686,0,0,0.7948749661445618,0,0,8.790599822998047
1.443225673,0,0,2.628833532333374,0,0,-29.582279205322266
1.444225735,0,0,3.4787750244140625,0,0,2.446079969406128
1.4452259619999999,0,0,2.87064790725708,0,0,1.375920057296753
1.446226246,0,0,2.451662540435791,0,0,3.4398000240325928
1.447225955,0,0,0.8044517636299133,0,0,1.452359914779663
1.448225849,0,0,0.608127236366272,0,0,0.9172800183296204
1.449226003,0,0,0.3064578175544739,0,0,0.9172800183296204
1.450226916,0,0,0.5937620401382446,0,0,-30.19379997253418
1.451226162,0,0,1.4939818382263184,0,0,0
1.452225853,0,0,3.1651346683502197,0,0,8.867039680480957
1.453225988,0,0,2.6623523235321045,0,0,1.070159912109375
1.454225882,0,0,2.7126305103302,0,0,1.452359914779663
1.455225925,0,0,1.8818424940109253,0,0,1.375920057296753
1.456225893,0,0,0.706289529800415,0,0,3.2869198322296143
1.457225825,0,0,0.6655880808830261,0,0,0.305759996175766
1.4582265159999999,0,0,-0.14365209639072418,0,0,1.2994799613952637
1.459225854,0,0,0.2298433631658554,0,0,9.402119636535645
1.460225897,0,0,0.5722141861915588,0,0,0
1.461225421,0,0,1.86508309841156,0,0,9.019920349121094
1.462226538,0,0,2.920926094055176,0,0,9.019920349121094
1.463225839,0,0,2.58813214302063,0,0,2.14031982421875
1.464225938,0,0,2.715024709701538,0,0,0.9172800183296204
1.4652259619999999,0,0,1.4772224426269531,0,0,2.522519826889038
1.466226893,0,0,0.8236053586006165,0,0,2.522519826889038
1.467226065,0,0,0.40940847992897034,0,0,0.305759996175766
1.468226015,0,0,-0.31124621629714966,0,0,1.6816799640655518
1.469226187,0,0,0.6967126727104187,0,0,7.9497599601745605
1.4702260630000001,0,0,1.216254472732544,0,0,9.707880020141602
1.4712258280000001,0,0,2.8993782997131348,0,0,9.019920349121094
1.472225852,0,0,2.913743495941162,0,0,0.7644000053405762
1.473225802,0,0,2.849100112915039,0,0,2.06387996673584
1.474227011,0,0,2.389413356781006,0,0,1.5288000106811523
1.475225832,0,0,0.9361328482627869,0,0,3.4398000240325928
1.4762258560000001,0,0,0.8475474119186401,0,0,1.2994799613952637
1.477226046,0,0,0.023942016065120697,0,0,1.375920057296753
1.478226996,0,0,-0.10534487664699554,0,0,0.6879600286483765
1.4792257979999999,0,0,0.21308395266532898,0,0,-30.19379997253418
1.4802259150000001,0,0,1.403002142906189,0,0,9.096360206604004
1.481225717,0,0,2.9041666984558105,0,0,8.17908000946045
1.482226741,0,0,2.894589900970459,0,0,1.6816799640655518
1.483225635,0,0,2.9496564865112305,0,0,1.070159912109375
1.4842259740000001,0,0,1.7477672100067139,0,0,2.5989599227905273
1.48522585,0,0,0.9672574996948242,0,0,3.3633599281311035
1.486227041,0,0,0.5770025849342346,0,0,1.452359914779663
1.4872261390000001,0,0,-0.4668693244457245,0,0,2.2932000160217285
1.488225885,0,0,0.07900865375995636,0,0,9.478560447692871
1.4892259829999999,0,0,0.8068459630012512,0,0,-1.070159912109375
1.490226192,0,0,2.892195701599121,0,0,-30.499561309814453
1.491225976,0,0,3.7397429943084717,0,0,0
1.49222587,0,0,3.2848446369171143,0,0,1.605239987373352
1.493225913,0,0,3.179499864578247,0,0,1.375920057296753
1.494227159,0,0,1.2665326595306396,0,0,3.6691200733184814
1.495229313,0,0,0.507570743560791,0,0,2.2932000160217285
1.496226077,0,0,-0.3734954595565796,0,0,1.6816799640655518
1.4972363419999999,0,0,-0.9409212470054626,0,0,0.7644000053405762
1.49822694,0,0,-0.0933738648891449,0,0,8.561279296875
1.499226187,0,0,1.1085153818130493,0,0,8.867039680480957
1.500225988,0,0,3.2537200450897217,0,0,7.79688024520874
1.501225494,0,0,3.3207578659057617,0,0,0.152879998087883
1.502226148,0,0,3.0885202884674072,0,0,0.8408399820327759
1.503225912,0,0,1.7693150043487549,0,0,2.446079969406128
1.504225862,0,0,0.21547815203666687,0,0,3.0576000213623047
1.505225386,0,0,-0.016759412363171577,0,0,0.152879998087883
1.506233688,0,0,-1.1659762859344482,0,0,1.1466000080108643
1.507228064,0,0,-0.7757213711738586,0,0,8.867039680480957
1.50822681,0,0,-0.12689268589019775,0,0,-31.722599029541016
1.5092266680000002,0,0,1.1228805780410767,0,0,8.40839958190918
1.510226692,0,0,2.4181437492370605,0,0,7.567559719085693
1.511226457,0,0,1.8722656965255737,0,0,0.4586400091648102
1.512226944,0,0,1.6831238269805908,0,0,0.6879600286483765
1.5132264119999999,0,0,0.7158663272857666,0,0,0.9172800183296204
1.514227232,0,0,0.10534487664699554,0,0,2.06387996673584
1.5152262749999998,0,0,0.8355764150619507,0,0,0.152879998087883
1.5162263729999998,0,0,0.24660277366638184,0,0,1.375920057296753
1.5172264709999999,0,0,0.33279404044151306,0,0,0.3822000026702881
1.518227366,0,0,1.158793568611145,0,0,-1.070159912109375
1.519226575,0,0,1.400607943534851,0,0,0.6879600286483765
1.520226358,0,0,2.365471363067627,0,0,-29.888038635253906
1.5212265120000001,0,0,2.2457611560821533,0,0,0.5350799560546875
1.522227258,0,0,1.4460978507995605,0,0,2.14031982421875
1.52322606,0,0,1.292868971824646,0,0,0.152879998087883
1.524226399,0,0,0.569819986820221,0,0,1.605239987373352
1.5252263670000001,0,0,0.363918662071228,0,0,0.3822000026702881
1.526227132,0,0,0.8259995579719543,0,0,-29.582279205322266
1.527226508,0,0,0.1173158809542656,0,0,0.305759996175766
1.528226476,0,0,0.10773907601833344,0,0,-1.605239987373352
1.5292263149999998,0,0,0.5003881454467773,0,0,8.714159965515137
1.5302270249999999,0,0,0.49559974670410156,0,0,-30.19379997253418
1.531226567,0,0,1.213860273361206,0,0,9.325679779052734
1.5322524610000001,0,0,1.2090718746185303,0,0,0.0764399990439415
1.533256448,0,0,0.9648633003234863,0,0,0.4586400091648102
1.5342315279999998,0,0,0.790086567401886,0,0,1.605239987373352
1.535226663,0,0,0.7350199222564697,0,0,0.9937199950218201
1.536226428,0,0,0.7469909191131592,0,0,1.2994799613952637
1.537226341,0,0,1.192312479019165,0,0,1.1466000080108643
1.538227309,0,0,1.522712230682373,0,0,0.0764399990439415
1.539226222,0,0,1.3503297567367554,0,0,1.223039984703064
1.5402264319999999,0,0,0.9983820915222168,0,0,0.305759996175766
1.5412264740000001,0,0,1.2641384601593018,0,0,0
1.5422273130000002,0,0,1.4867992401123047,0,0,0.4586400091648102
1.54322617,0,0,1.139639973640442,0,0,0.305759996175766
1.544225898,0,0,1.3766659498214722,0,0,9.478560447692871
1.545226441,0,0,1.1635819673538208,0,0,0
1.5462274649999999,0,0,0.363918662071228,0,0,0.6879600286483765
1.5472263590000002,0,0,0.181959331035614,0,0,-9.784319877624512
1.548225976,0,0,0.2082955539226532,0,0,9.631440162658691
1.5492266670000001,0,0,0.395043283700943,0,0,0.0764399990439415
1.550227246,0,0,0.9050082564353943,0,0,9.478560447692871
1.551226492,0,0,1.3192051649093628,0,0,0
1.552226442,0,0,1.3766659498214722,0,0,0.305759996175766
1.5532263739999999,0,0,0.6224924325942993,0,0,0
1.554227194,0,0,0.14365209639072418,0,0,1.452359914779663
1.555226311,0,0,0.8834604024887085,0,0,0
1.556226279,0,0,1.05105459690094,0,0,9.478560447692871
1.557226414,0,0,1.0893617868423462,0,0,0.9172800183296204
1.558227476,0,0,1.235408067703247,0,0,0.305759996175766
1.5592264070000001,0,0,1.3503297567367554,0,0,0.611519992351532
1.560226375,0,0,0.8188169598579407,0,0,0.8408399820327759
1.561242566,0,0,0.6368576288223267,0,0,0.611519992351532
1.562230294,0,0,0.8882488012313843,0,0,0.5350799560546875
1.563226207,0,0,1.2090718746185303,0,0,0.611519992351532
1.564226509,0,0,1.1061211824417114,0,0,0.4586400091648102
1.565226496,0,0,1.4652514457702637,0,0,0.4586400091648102
1.566227094,0,0,1.8052281141281128,0,0,0.5350799560546875
1.567226488,0,0,1.3239935636520386,0,0,0.5350799560546875
1.5682262900000001,0,0,0.5506663918495178,0,0,0.2293200045824051
1.569225962,0,0,-0.10534487664699554,0,0,0.3822000026702881
1.570227097,0,0,0.3998316824436188,0,0,9.019920349121094
1.571226418,0,0,1.1324573755264282,0,0,9.096360206604004
1.572226386,0,0,1.192312479019165,0,0,-0.305759996175766
1.5732264470000001,0,0,1.1037269830703735,0,0,0.0764399990439415
1.574227268,0,0,0.8595184087753296,0,0,1.1466000080108643
1.5752263100000001,0,0,0.5147533416748047,0,0,0.611519992351532
1.576226353,0,0,0.12928688526153564,0,0,0.611519992351532
1.577226451,0,0,0.33518823981285095,0,0,0.5350799560546875
1.5782273820000001,0,0,0.6057330369949341,0,0,0
1.579226351,0,0,1.501164436340332,0,0,0
1.580226227,0,0,2.030282974243164,0,0,0
1.581226547,0,0,1.9823989868164063,0,0,0.7644000053405762
1.582227423,0,0,1.8770540952682495,0,0,0.8408399820327759
1.583226354,0,0,1.2641384601593018,0,0,0.9172800183296204
1.58422649,0,0,0.5482721924781799,0,0,0.9172800183296204
1.585226458,0,0,0.038307227194309235,0,0,0.4586400091648102
1.5862273519999999,0,0,-0.12928688526153564,0,0,0
1.5872263210000002,0,0,-0.004788403399288654,0,0,9.019920349121094
1.588226419,0,0,0.7924807667732239,0,0,8.790599822998047
1.5892263880000002,0,0,1.6543933153152466,0,0,-30.499561309814453
1.5902273930000002,0,0,1.601720929145813,0,0,0.152879998087883
1.591225954,0,0,1.3096283674240112,0,0,0.152879998087883
1.5922265150000001,0,0,0.6009446382522583,0,0,0.9937199950218201
1.593228817,0,0,0.2753331959247589,0,0,0.9937199950218201
1.594229063,0,0,0.5937620401382446,0,0,0.3822000026702881
1.595226347,0,0,0.7493851184844971,0,0,0.9172800183296204
1.59622626,0,0,0.9672574996948242,0,0,0.4586400091648102
1.5972263949999999,0,0,1.2449848651885986,0,0,0.5350799560546875
1.598227308,0,0,1.3431471586227417,0,0,0.611519992351532
1.599226443,0,0,1.6543933153152466,0,0,0.8408399820327759
1.600234226,0,0,1.7693150043487549,0,0,0.9172800183296204
1.601227306,0,0,1.316810965538025,0,0,0.9937199950218201
1.602227367,0,0,1.01753568649292,0,0,1.070159912109375
1.603226243,0,0,0.8379706144332886,0,0,0.3822000026702881
1.604226563,0,0,0.6488286852836609,0,0,0.305759996175766
1.6052740490000001,0,0,0.6727706789970398,0,0,9.325679779052734
1.6062442780000001,0,0,0.6823474764823914,0,0,-29.888038635253906
1.607227635,0,0,0.7637503147125244,0,0,-29.582279205322266
1.608226567,0,0,0.8403648138046265,0,0,0
1.609226165,0,0,0.5961562395095825,0,0,0.0764399990439415
1.610228078,0,0,0.3447650372982025,0,0,0.2293200045824051
1.611225935,0,0,0.3734954595565796,0,0,0
1.612226607,0,0,0.524330198764801,0,0,0.0764399990439415
1.6132257239999999,0,0,1.1492167711257935,0,0,0.3822000026702881
1.614228748,0,0,1.2689268589019775,0,0,0.611519992351532
1.615226679,0,0,1.3263877630233765,0,0,0.8408399820327759
1.6162264629999998,0,0,1.2665326595306396,0,0,0.8408399820327759
1.6172265239999999,0,0,0.9002198576927185,0,0,0.8408399820327759
1.618227326,0,0,0.9169792532920837,0,0,0.9172800183296204
1.619226609,0,0,1.161187767982483,0,0,0.5350799560546875
1.620226411,0,0,1.335964560508728,0,0,0.2293200045824051
1.621226453,0,0,1.558625340461731,0,0,0.5350799560546875
1.6222274030000001,0,0,1.5155296325683594,0,0,0.305759996175766
1.623226575,0,0,1.2665326595306396,0,0,0.305759996175766
1.624226044,0,0,0.9696516990661621,0,0,0.4586400091648102
1.6252394749999999,0,0,0.6105214357376099,0,0,0.305759996175766
1.6262287770000001,0,0,0.5530605912208557,0,0,9.478560447692871
1.627226375,0,0,0.5674257874488831,0,0,0.0764399990439415
1.628226307,0,0,0.6584054827690125,0,0,9.631440162658691
1.629226405,0,0,0.9648633003234863,0,0,0
1.630227447,0,0,1.0606313943862915,0,0,0.305759996175766
1.63122586,0,0,1.170764684677124,0,0,0.6879600286483765
1.632248847,0,0,1.0199298858642578,0,0,0.6879600286483765
1.6332269080000001,0,0,0.9816226959228516,0,0,0.8408399820327759
1.634229007,0,0,0.7876923680305481,0,0,0.8408399820327759
1.635226364,0,0,0.8355764150619507,0,0,0.305759996175766
1.636226425,0,0,1.039083480834961,0,0,0
1.637226505,0,0,1.170764684677124,0,0,0
1.638227343,0,0,1.2401964664459229,0,0,0.2293200045824051
1.6392261449999999,0,0,1.1468225717544556,0,0,0.2293200045824051
1.640226466,0,0,1.1276689767837524,0,0,0.6879600286483765
1.641226379,0,0,0.9385270476341248,0,0,0.5350799560546875
1.64222731,0,0,0.6799532771110535,0,0,0.7644000053405762
1.643226316,0,0,0.6320692300796509,0,0,0.3822000026702881
1.6442265059999999,0,0,0.7206547260284424,0,0,0.2293200045824051
1.645226364,0,0,0.9361328482627869,0,0,0
1.646227425,0,0,1.2066776752471924,0,0,0.152879998087883
1.647226393,0,0,1.3096283674240112,0,0,0
1.648226417,0,0,1.290474772453308,0,0,0.305759996175766
1.649226515,0,0,1.0797849893569946,0,0,0.4586400091648102
1.6502273170000001,0,0,0.8690952062606812,0,0,0.3822000026702881
1.65122636,0,0,0.8212111592292786,0,0,0.4586400091648102
1.652225902,0,0,0.751779317855835,0,0,0
1.6532262229999999,0,0,0.8092401623725891,0,0,9.631440162658691
1.6542272649999998,0,0,0.9624691009521484,0,0,0
1.6552262340000001,0,0,0.9911994934082031,0,0,0.305759996175766
1.656225813,0,0,1.0414776802062988,0,0,0
1.6572262819999999,0,0,0.8523358106613159,0,0,0.2293200045824051
1.65822738,0,0,0.8379706144332886,0,0,0.305759996175766
1.65922633,0,0,1.1180921792984009,0,0,0.0764399990439415
1.660226521,0,0,0.8595184087753296,0,0,0.6879600286483765
1.661226322,0,0,0.751779317855835,0,0,0.611519992351532
1.662226661,0,0,1.0558429956436157,0,0,0.6879600286483765
1.663226389,0,0,1.256955862045288,0,0,0.6879600286483765
1.664226561,0,0,1.5825673341751099,0,0,0.5350799560546875
1.665226178,0,0,1.316810965538025,0,0,1.1466000080108643
1.666227535,0,0,1.0247182846069336,0,0,0.611519992351532
1.667226541,0,0,0.9385270476341248,0,0,0.305759996175766
1.6682263800000001,0,0,0.9768342971801758,0,0,0.4586400091648102
1.6692262740000001,0,0,1.235408067703247,0,0,0.0764399990439415
1.670227243,0,0,1.45806884765625,0,0,0.2293200045824051
1.6712263040000002,0,0,1.3000515699386597,0,0,0.5350799560546875
1.672226346,0,0,1.1420341730117798,0,0,0.152879998087883
1.67322937,0,0,0.9409212470054626,0,0,0.4586400091648102
1.674227431,0,0,0.6272808313369751,0,0,0
1.67522627,0,0,0.2801215946674347,0,0,0.6879600286483765
1.676226331,0,0,0.5482721924781799,0,0,-0.4586400091648102
1.677225763,0,0,0.6584054827690125,0,0,-29.582279205322266
1.678227083,0,0,0.9768342971801758,0,0,0
1.6792266439999999,0,0,1.213860273361206,0,0,9.172800064086914
1.6802262049999999,0,0,0.9696516990661621,0,0,0.2293200045824051
1.681226618,0,0,0.8954314589500427,0,0,0.2293200045824051
1.6822272900000002,0,0,0.6440402865409851,0,0,0.4586400091648102
1.683226296,0,0,0.5123591423034668,0,0,0.2293200045824051
1.6842264500000002,0,0,0.6129156351089478,0,0,0.0764399990439415
1.685226307,0,0,0.7134721279144287,0,0,0.2293200045824051
1.686227183,0,0,0.9097966551780701,0,0,0.0764399990439415
1.687226448,0,0,1.05105459690094,0,0,0.611519992351532
1.688226342,0,0,1.1037269830703735,0,0,0
1.689237847,0,0,1.1994950771331787,0,0,0.305759996175766
1.6902291680000001,0,0,0.9576807022094727,0,0,0.9937199950218201
1.6912262660000001,0,0,0.7445967197418213,0,0,0.0764399990439415
1.692226179,0,0,0.7781155705451965,0,0,0.152879998087883
1.6932261469999998,0,0,0.7422025203704834,0,0,0.0764399990439415
1.694227246,0,0,0.7230489253997803,0,0,0
1.695232158,0,0,0.7852981686592102,0,0,0.152879998087883
1.696227312,0,0,0.8259995579719543,0,0,0
1.697226503,0,0,0.6943184733390808,0,0,0.305759996175766
1.6982276189999999,0,0,0.7757213711738586,0,0,0.3822000026702881
1.699225921,0,0,0.8834604024887085,0,0,0.4586400091648102
1.700226538,0,0,1.161187767982483,0,0,0.5350799560546875
1.701226284,0,0,1.290474772453308,0,0,0.6879600286483765
1.702226512,0,0,1.3503297567367554,0,0,0.6879600286483765
1.7032263140000001,0,0,1.316810965538025,0,0,0.7644000053405762
1.7042264120000001,0,0,1.2449848651885986,0,0,0.7644000053405762
1.705226547,0,0,0.8834604024887085,0,0,0.611519992351532
1.70622659,0,0,0.7757213711738586,0,0,0.0764399990439415
1.707226354,0,0,0.7661445140838623,0,0,0.0764399990439415
1.708226286,0,0,0.5985504388809204,0,0,-29.582279205322266
1.709226328,0,0,0.9313444495201111,0,0,0
1.710226575,0,0,1.192312479019165,0,0,0.0764399990439415
1.711226321,0,0,1.3120225667953491,0,0,0.0764399990439415
1.712226364,0,0,1.1659762859344482,0,0,0.8408399820327759
1.7132265169999998,0,0,0.9433154463768005,0,0,0.6879600286483765
1.714226134,0,0,0.6536170840263367,0,0,0.4586400091648102
1.715226399,0,0,0.5195417404174805,0,0,0.611519992351532
1.716226497,0,0,0.4429273009300232,0,0,0.0764399990439415
1.717225947,0,0,0.6967126727104187,0,0,9.325679779052734
1.718226971,0,0,1.2641384601593018,0,0,-9.784319877624512
1.719226013,0,0,1.7764976024627686,0,0,0.0764399990439415
1.720225871,0,0,1.843535304069519,0,0,0.9937199950218201
1.72122621,0,0,1.3431471586227417,0,0,1.070159912109375
1.722227585,0,0,0.5291185975074768,0,0,0.8408399820327759
1.7232264609999999,0,0,-0.08140286058187485,0,0,0.6879600286483765
1.724226448,0,0,-0.08619125932455063,0,0,0
1.725226139,0,0,0.15322890877723694,0,0,9.096360206604004
1.726227293,0,0,1.1061211824417114,0,0,-29.888038635253906
1.727226354,0,0,1.900996208190918,0,0,9.402119636535645
1.72822647,0,0,1.802833914756775,0,0,0
1.7292263650000002,0,0,1.2832920551300049,0,0,1.070159912109375
1.7302271299999998,0,0,0.5722141861915588,0,0,0.9937199950218201
1.731226339,0,0,-0.016759412363171577,0,0,0.611519992351532
1.732226252,0,0,0.011971008032560349,0,0,0.305759996175766
1.733226405,0,0,0.6536170840263367,0,0,-29.888038635253906
1.734226837,0,0,1.4293384552001953,0,0,-0.2293200045824051
1.735226435,0,0,1.7980455160140991,0,0,0
1.736226404,0,0,1.5203180313110352,0,0,0.305759996175766
1.737226502,0,0,0.8786720037460327,0,0,0.8408399820327759
1.738227618,0,0,0.4812345504760742,0,0,0.8408399820327759
1.739237679,0,0,0.45250412821769714,0,0,0.152879998087883
1.74029698,0,0,0.6344634294509888,0,0,0.305759996175766
1.7412807080000001,0,0,1.072602391242981,0,0,9.402119636535645
1.742258307,0,0,1.0295066833496094,0,0,0.5350799560546875
1.743249886,0,0,1.0869675874710083,0,0,0.305759996175766
1.744227763,0,0,1.5945383310317993,0,0,0.152879998087883
1.745226879,0,0,1.5298948287963867,0,0,0.6879600286483765
1.746226625,0,0,1.1875240802764893,0,0,0.9172800183296204
1.7472263350000001,0,0,0.8738836050033569,0,0,0.2293200045824051
1.748226507,0,0,0.48602294921875,0,0,0.5350799560546875
1.7492265310000001,0,0,0.7805097699165344,0,0,0.0764399990439415
1.7502267219999998,0,0,1.05105459690094,0,0,-29.582279205322266
1.75122632,0,0,1.2401964664459229,0,0,0.0764399990439415
1.752226473,0,0,1.0295066833496094,0,0,0
1.753242701,0,0,0.3663128614425659,0,0,0.611519992351532
1.75422867,0,0,0.3519476354122162,0,0,0
1.7552264709999998,0,0,0.6200982332229614,0,0,9.631440162658691
1.7562263470000001,0,0,0.37828385829925537,0,0,0
1.7572262969999999,0,0,0.47884035110473633,0,0,0
1.7582264319999998,0,0,0.5195417404174805,0,0,0
1.759226253,0,0,0.871489405632019,0,0,0.0764399990439415
1.760225777,0,0,1.5203180313110352,0,0,0.0764399990439415
1.7612261340000002,0,0,1.4891934394836426,0,0,0.9937199950218201
1.7622253620000001,0,0,1.2497732639312744,0,0,1.6816799640655518
1.763223219,0,0,1.4724340438842773,0,0,1.1466000080108643
1.764223077,0,0,1.0007762908935547,0,0,1.5288000106811523
1.765223749,0,0,1.0271124839782715,0,0,0.9937199950218201
1.7662250689999999,0,0,0.8188169598579407,0,0,0.7644000053405762
1.767223779,0,0,0.9409212470054626,0,0,-29.888038635253906
1.768223543,0,0,1.479616641998291,0,0,-29.888038635253906
1.769223475,0,0,1.235408067703247,0,0,9.478560447692871
1.77022448,0,0,1.0582371950149536,0,0,-0.152879998087883
1.7712300600000002,0,0,0.7829039692878723,0,0,0
1.772243528,0,0,0.22505496442317963,0,0,0
1.773224367,0,0,0.05267243832349777,0,0,0
1.774225502,0,0,-0.05985504388809204,0,0,0.152879998087883
1.775223804,0,0,0.06224924325942993,0,0,0
1.7762235880000001,0,0,0.8212111592292786,0,0,0
1.777223593,0,0,1.292868971824646,0,0,0.9172800183296204
1.778223765,0,0,1.845929503440857,0,0,1.2994799613952637
1.7792235669999998,0,0,2.10210919380188,0,0,1.223039984703064
1.78022348,0,0,1.3239935636520386,0,0,1.758120059967041
1.7812236339999998,0,0,1.0199298858642578,0,0,1.2994799613952637
1.782223676,0,0,0.9840168952941895,0,0,0.4586400091648102
1.7832507560000002,0,0,1.137245774269104,0,0,0
1.784257854,0,0,1.4077905416488647,0,0,0
1.785226748,0,0,1.1635819673538208,0,0,0
1.7862431060000001,0,0,0.950498104095459,0,0,9.402119636535645
1.7872270000000001,0,0,0.6248866319656372,0,0,0.0764399990439415
1.788223672,0,0,-0.021547814831137657,0,0,0
1.789223604,0,0,-0.08619125932455063,0,0,9.631440162658691
1.790227757,0,0,0.44771572947502136,0,0,9.478560447692871
1.791226207,0,0,0.667982280254364,0,0,0
1.792226213,0,0,1.2641384601593018,0,0,0
1.7932259959999999,0,0,1.4293384552001953,0,0,0.3822000026702881
1.794226076,0,0,1.0342950820922852,0,0,1.1466000080108643
1.795225822,0,0,0.7757213711738586,0,0,1.1466000080108643
1.796226031,0,0,1.1324573755264282,0,0,0.7644000053405762
1.797225981,0,0,1.280897855758667,0,0,0.4586400091648102
1.798226302,0,0,1.05105459690094,0,0,0.8408399820327759
1.799225881,0,0,1.3527239561080933,0,0,9.478560447692871
1.800226109,0,0,1.41257905960083,0,0,0
1.801225948,0,0,0.8690952062606812,0,0,0.8408399820327759
1.8022269720000001,0,0,1.0773907899856567,0,0,9.019920349121094
1.803226237,0,0,1.0773907899856567,0,0,0.2293200045824051
1.804225927,0,0,0.6488286852836609,0,0,0.9172800183296204
1.805225989,0,0,0.790086567401886,0,0,0
1.806227105,0,0,0.5626373887062073,0,0,0.4586400091648102
1.80722537,0,0,-0.014365210197865963,0,0,1.223039984703064
1.808226042,0,0,0.7637503147125244,0,0,9.019920349121094
1.809226048,0,0,1.048660397529602,0,0,-29.888038635253906
1.810226998,0,0,0.9911994934082031,0,0,0.8408399820327759
1.811225874,0,0,1.5873557329177856,0,0,-1.223039984703064
1.812225953,0,0,1.2090718746185303,0,0,1.223039984703064
1.813225885,0,0,0.933738648891449,0,0,1.452359914779663
1.814227168,0,0,1.6280571222305298,0,0,9.402119636535645
1.815226173,0,0,1.0534487962722778,0,0,2.2932000160217285
1.8162257899999998,0,0,1.1324573755264282,0,0,1.2994799613952637
1.8172426289999999,0,0,1.139639973640442,0,0,0
1.818227449,0,0,0.2825157940387726,0,0,1.758120059967041
1.81922577,0,0,0.768538773059845,0,0,0
1.8202259600000001,0,0,0.6584054827690125,0,0,-1.605239987373352
1.8212259469999998,0,0,0.3974374830722809,0,0,-30.19379997253418
1.8222271559999998,0,0,1.170764684677124,0,0,8.331960678100586
1.8232257729999999,0,0,0.48602294921875,0,0,0.4586400091648102
1.8242258900000001,0,0,0.9911994934082031,0,0,9.325679779052734
1.8252254319999999,0,0,1.4053963422775269,0,0,0.305759996175766
1.826227067,0,0,0.8738836050033569,0,0,1.605239987373352
1.827225814,0,0,1.4724340438842773,0,0,0.7644000053405762
1.828225486,0,0,0.5315127968788147,0,0,2.522519826889038
1.829225658,0,0,0.181959331035614,0,0,0.3822000026702881
1.830227238,0,0,0.689530074596405,0,0,0
1.831226188,0,0,0.36152446269989014,0,0,1.452359914779663
1.832225823,0,0,1.5849615335464478,0,0,7.567559719085693
1.8332259020000001,0,0,1.5945383310317993,0,0,1.9109998941421509
1.83422676,0,0,2.0374655723571777,0,0,-30.19379997253418
1.835225988,0,0,2.3582887649536133,0,0,0.611519992351532
1.836226012,0,0,1.8483237028121948,0,0,2.5989599227905273
1.8372260169999999,0,0,1.6615760326385498,0,0,0.6879600286483765
1.8382268000000002,0,0,0.7829039692878723,0,0,2.9811599254608154
1.839225917,0,0,0.45489832758903503,0,0,1.223039984703064
1.840225793,0,0,0.4668693244457245,0,0,0.2293200045824051
1.841225928,0,0,0.7996633648872375,0,0,0.7644000053405762
1.8422269340000001,0,0,1.1252747774124146,0,0,-30.19379997253418
1.843225736,0,0,1.50355863571167,0,0,1.223039984703064
1.844225889,0,0,2.9472622871398926,0,0,9.478560447692871
1.8452261349999999,0,0,2.911349296569824,0,0,2.6754000186920166
1.8462269,0,0,3.0861260890960693,0,0,1.8345600366592407
1.847226128,0,0,2.0590133666992188,0,0,1.9109998941421509
1.8482259669999999,0,0,0.5578489899635315,0,0,2.904719829559326
1.849225621,0,0,0.2106897532939911,0,0,0.152879998087883
1.850226385,0,0,-0.26575639843940735,0,0,0.9172800183296204
1.8512260569999999,0,0,0.49559974670410156,0,0,9.325679779052734
1.852225785,0,0,1.0773907899856567,0,0,8.561279296875
1.8532257909999998,0,0,1.8770540952682495,0,0,0
1.8542269999999998,0,0,3.114856481552124,0,0,9.096360206604004
1.8552259869999999,0,0,2.7437551021575928,0,0,2.446079969406128
1.8562258630000001,0,0,2.7078421115875244,0,0,1.223039984703064
1.857226109,0,0,0.9385270476341248,0,0,2.751840114593506
1.858226929,0,0,0.1173158809542656,0,0,1.6816799640655518
1.8592260459999999,0,0,0.19393034279346466,0,0,0.0764399990439415
1.860225885,0,0,0.2059013396501541,0,0,0.6879600286483765
1.86122565,0,0,1.37906014919281,0,0,8.40839958190918
1.862226859,0,0,1.6687586307525635,0,0,0.6879600286483765
1.863226013,0,0,2.8395233154296875,0,0,0.0764399990439415
1.8642258520000001,0,0,2.983175277709961,0,0,1.070159912109375
1.865225987,0,0,2.5546131134033203,0,0,2.828279972076416
1.8662267890000002,0,0,1.8770540952682495,0,0,1.5288000106811523
1.867225905,0,0,0.38307225704193115,0,0,2.446079969406128
1.868225318,0,0,0.3878606855869293,0,0,0
1.869225694,0,0,0.26575639843940735,0,0,0
1.870226792,0,0,0.912190854549408,0,0,8.561279296875
1.8712257239999999,0,0,1.4867992401123047,0,0,-1.1466000080108643
1.8722255620000001,0,0,1.4676456451416016,0,0,0.305759996175766
1.873225975,0,0,2.564189910888672,0,0,9.402119636535645
1.8742269070000002,0,0,2.0374655723571777,0,0,2.14031982421875
1.875225986,0,0,2.1284453868865967,0,0,1.6816799640655518
1.876226122,0,0,0.8547300100326538,0,0,1.9874399900436401
1.877225942,0,0,0.023942016065120697,0,0,2.751840114593506
1.878226892,0,0,0.3423708379268646,0,0,-0.5350799560546875
1.879225694,0,0,0.47884035110473633,0,0,0.8408399820327759
1.880225996,0,0,1.6376339197158813,0,0,-1.605239987373352
1.881231964,0,0,1.8818424940109253,0,0,0.9172800183296204
1.8822270620000001,0,0,2.7509377002716064,0,0,0
1.883225975,0,0,3.4787750244140625,0,0,0.9172800183296204
1.8842259810000002,0,0,2.9712042808532715,0,0,3.0576000213623047
1.8852258750000002,0,0,2.650381326675415,0,0,1.5288000106811523
1.8862267689999999,0,0,0.7876923680305481,0,0,3.0576000213623047
1.887225979,0,0,0.27054479718208313,0,0,1.6816799640655518
1.88822578,0,0,-0.0071826050989329815,0,0,0.2293200045824051
1.8892258229999999,0,0,0.10773907601833344,0,0,9.402119636535645
1.890226292,0,0,0.8619126081466675,0,0,8.40839958190918
1.891225667,0,0,1.137245774269104,0,0,0
1.8922257839999999,0,0,2.7269957065582275,0,0,8.40839958190918
1.893228012,0,0,2.808398485183716,0,0,1.5288000106811523
1.894227462,0,0,3.1268274784088135,0,0,1.2994799613952637
1.895229541,0,0,2.1092917919158936,0,0,1.9874399900436401
1.896225991,0,0,0.48602294921875,0,0,3.134040117263794
1.897226978,0,0,0.1149216815829277,0,0,0.9937199950218201
1.898226076,0,0,-0.33997663855552673,0,0,1.605239987373352
1.899225878,0,0,0.2992752194404602,0,0,9.478560447692871
1.900225791,0,0,0.912190854549408,0,0,9.096360206604004
1.901225797,0,0,1.9512743949890137,0,0,9.325679779052734
1.9022260800000002,0,0,3.184288263320923,0,0,0
1.9032259,0,0,3.1531636714935303,0,0,1.9874399900436401
1.904225813,0,0,3.337517261505127,0,0,1.605239987373352
1.905225745,0,0,1.7142484188079834,0,0,3.2869198322296143
1.9062260279999999,0,0,0.7110779285430908,0,0,2.446079969406128
1.907225848,0,0,0.14604631066322327,0,0,0.611519992351532
1.908225761,0,0,-0.2513911724090576,0,0,1.223039984703064
1.909225859,0,0,0.49799394607543945,0,0,9.096360206604004
1.910226106,0,0,0.790086567401886,0,0,9.631440162658691
1.911226,0,0,2.3104045391082764,0,0,-0.9937199950218201
1.912225783,0,0,2.8155810832977295,0,0,1.1466000080108643
1.9132258819999999,0,0,3.2345664501190186,0,0,0.7644000053405762
1.914227183,0,0,3.098097085952759,0,0,1.1466000080108643
1.915225356,0,0,1.036689281463623,0,0,3.0576000213623047
1.916226046,0,0,0.3447650372982025,0,0,0.6879600286483765
1.91722583,0,0,-0.33518823981285095,0,0,1.223039984703064
1.9182269459999999,0,0,-0.21308395266532898,0,0,0
1.9192257480000001,0,0,0.3208230137825012,0,0,9.325679779052734
1.920225828,0,0,1.0630255937576294,0,0,0.0764399990439415
1.9212257959999999,0,0,2.58813214302063,0,0,8.484840393066406
1.922227135,0,0,2.846705913543701,0,0,1.070159912109375
1.92322577,0,0,3.318363666534424,0,0,1.2994799613952637
1.924226053,0,0,2.190694570541382,0,0,2.6754000186920166
1.9252258370000002,0,0,0.7924807667732239,0,0,2.6754000186920166
1.926226953,0,0,0.5817909836769104,0,0,0.5350799560546875
1.92722594,0,0,0.1364694982767105,0,0,1.223039984703064
1.928226057,0,0,0.8427590131759644,0,0,9.325679779052734
1.929225748,0,0,1.0295066833496094,0,0,0
1.930226475,0,0,2.0254945755004883,0,0,9.478560447692871
1.9312259250000001,0,0,2.784456491470337,0,0,0.3822000026702881
1.932225764,0,0,2.8107926845550537,0,0,2.06387996673584
1.93322514,0,0,2.896984100341797,0,0,0.9172800183296204
1.9342271640000002,0,0,1.237802267074585,0,0,3.0576000213623047
1.935226096,0,0,0.7661445140838623,0,0,1.223039984703064
1.9362255830000001,0,0,0.4572925269603729,0,0,0.9172800183296204
1.937225385,0,0,0.395043283700943,0,0,0.3822000026702881
1.938227131,0,0,0.8738836050033569,0,0,9.019920349121094
1.939225803,0,0,1.1013327836990356,0,0,0
1.940225994,0,0,2.3056161403656006,0,0,-30.19379997253418
1.941225925,0,0,2.1787235736846924,0,0,0.9172800183296204
1.942226931,0,0,2.4420857429504395,0,0,0.9937199950218201
1.9432267319999998,0,0,1.9919757843017578,0,0,1.2994799613952637
1.944225812,0,0,0.4141969084739685,0,0,3.0576000213623047
1.945243558,0,0,0.5602431893348694,0,0,0.7644000053405762
1.9462293050000001,0,0,0.27054479718208313,0,0,1.1466000080108643
1.9472259950000002,0,0,0.9864110946655273,0,0,9.096360206604004
1.948225945,0,0,1.1563993692398071,0,0,0.305759996175766
1.949225821,0,0,1.867477297782898,0,0,0
1.950227105,0,0,2.5977089405059814,0,0,0
1.9512259429999999,0,0,2.5330653190612793,0,0,2.2932000160217285
1.952225893,0,0,2.7437551021575928,0,0,1.070159912109375
1.953225899,0,0,1.2282254695892334,0,0,2.9811599254608154
1.954226886,0,0,0.6392518281936646,0,0,2.3696401119232178
1.955225854,0,0,0.7781155705451965,0,0,0.152879998087883
1.956225786,0,0,0.6871358752250671,0,0,1.452359914779663
1.957225977,0,0,1.45806884765625,0,0,-0.7644000053405762
1.958226593,0,0,1.5538369417190552,0,0,0.5350799560546875
1.9592259140000001,0,0,2.3295583724975586,0,0,-0.3822000026702881
1.9602257889999999,0,0,2.3080103397369385,0,0,0.8408399820327759
1.961225684,0,0,2.2194249629974365,0,0,1.1466000080108643
1.962226856,0,0,1.987187385559082,0,0,1.1466000080108643
1.963225843,0,0,0.43335050344467163,0,0,2.6754000186920166
1.964225774,0,0,0.5099649429321289,0,0,0.7644000053405762
1.965225706,0,0,0.3878606855869293,0,0,0.7644000053405762
1.9662268410000001,0,0,0.8882488012313843,0,0,0.152879998087883
1.967225865,0,0,1.357512354850769,0,0,-0.4586400091648102
1.9682259260000001,0,0,1.702277421951294,0,0,0.7644000053405762
1.969226098,0,0,2.6240451335906982,0,0,0
1.970226456,0,0,2.212242364883423,0,0,2.14031982421875
1.971225924,0,0,2.410961151123047,0,0,0.9937199950218201
1.972226004,0,0,1.335964560508728,0,0,2.2932000160217285
1.97322738,0,0,0.5817909836769104,0,0,2.522519826889038
1.974227052,0,0,0.9026140570640564,0,0,0
1.9752259460000001,0,0,0.6272808313369751,0,0,1.605239987373352
1.976225544,0,0,1.2713210582733154,0,0,9.478560447692871
1.977225717,0,0,1.3048399686813354,0,0,0.2293200045824051
1.978226907,0,0,1.8387469053268433,0,0,0.3822000026702881
1.979225783,0,0,2.322375535964966,0,0,0
1.980225215,0,0,2.3271639347076416,0,0,2.06387996673584
1.981226017,0,0,2.693476915359497,0,0,1.1466000080108643
1.9822269289999999,0,0,1.3862427473068237,0,0,2.9811599254608154
1.9832259909999999,0,0,1.094150185585022,0,0,0.9172800183296204
1.984225959,0,0,0.7134721279144287,0,0,0.611519992351532
1.9852259829999999,0,0,0.3447650372982025,0,0,0.6879600286483765
1.986227026,0,0,0.849941611289978,0,0,-0.9172800183296204
1.987225976,0,0,0.993593692779541,0,0,0.611519992351532
1.988225981,0,0,2.142810583114624,0,0,-0.5350799560546875
1.989225802,0,0,2.0159177780151367,0,0,0.9172800183296204
1.9902259,0,0,2.4229321479797363,0,0,1.375920057296753
1.9912259049999999,0,0,1.9823989868164063,0,0,0.8408399820327759
1.9922258739999998,0,0,0.5817909836769104,0,0,2.3696401119232178
1.993225916,0,0,0.9481038451194763,0,0,0
1.994226996,0,0,0.5985504388809204,0,0,1.8345600366592407
1.995225983,0,0,1.1659762859344482,0,0,0
1.996226136,0,0,1.3192051649093628,0,0,0
1.997225549,0,0,1.6711528301239014,0,0,0.9172800183296204
1.998226351,0,0,2.3127987384796143,0,0,0.152879998087883
1.999225357,0,0,2.1930887699127197,0,0,2.3696401119232178
2.000225492,0,0,2.6647465229034424,0,0,0.611519992351532
2.001225183,0,0,1.3263877630233765,0,0,2.522519826889038
2.002242243,0,0,0.5482721924781799,0,0,0.6879600286483765
2.003270971,0,0,0.8403648138046265,0,0,0.0764399990439415
2.004229032,0,0,0.6919242739677429,0,0,0.611519992351532
2.005226334,0,0,1.314416766166687,0,0,8.867039680480957
2.006263525,0,0,1.41257905960083,0,0,0.9172800183296204
2.007231438,0,0,2.1332337856292725,0,0,0.0764399990439415
2.008225906,0,0,1.9608511924743652,0,0,1.1466000080108643
2.009242856,0,0,2.0661959648132324,0,0,1.9874399900436401
2.010227973,0,0,1.6903064250946045,0,0,1.070159912109375
2.011225756,0,0,0.33758243918418884,0,0,2.446079969406128
2.012232151,0,0,0.6631938815116882,0,0,-0.152879998087883
2.013226804,0,0,0.8212111592292786,0,0,0.152879998087883
2.014226773,0,0,1.2737152576446533,0,0,-9.554999351501465
2.01522613,0,0,1.7405846118927002,0,0,-0.305759996175766
2.016225877,0,0,1.6903064250946045,0,0,1.070159912109375
2.017226178,0,0,2.3774423599243164,0,0,0.4586400091648102
2.018227128,0,0,1.9153614044189453,0,0,1.9109998941421509
2.019225671,0,0,2.298433542251587,0,0,1.1466000080108643
2.020225973,0,0,1.137245774269104,0,0,2.2932000160217285
2.021227738,0,0,1.8148049116134644,0,0,-0.3822000026702881
2.025640995,0,0,1.8148049116134644,0,0,-0.3822000026702881
2.0258054,0,0,1.8148049116134644,0,0,0.6879600286483765
2.025968232,0,0,1.802833914756775,0,0,0.6879600286483765
2.026131026,0,0,1.802833914756775,0,0,1.375920057296753
2.026293394,0,0,2.205059766769409,0,0,0.8408399820327759
2.027235215,0,0,2.205059766769409,0,0,1.5288000106811523
2.028225091,0,0,2.054224967956543,0,0,2.446079969406128
2.0292503,0,0,1.9488801956176758,0,0,1.1466000080108643
2.030346564,0,0,0.4572925269603729,0,0,2.904719829559326
2.031237163,0,0,0.7326257228851318,0,0,0.3822000026702881
2.03223165,0,0,0.5793967843055725,0,0,0.0764399990439415
2.033307858,0,0,1.1252747774124146,0,0,0
2.034288494,0,0,1.867477297782898,0,0,8.484840393066406
2.035258666,0,0,1.2737152576446533,0,0,0.611519992351532
2.036226265,0,0,2.2577321529388428,0,0,9.478560447692871
2.0372254,0,0,1.601720929145813,0,0,1.9109998941421509
2.038235572,0,0,1.9560627937316895,0,0,1.223039984703064
2.039225263,0,0,1.1683704853057861,0,0,1.9874399900436401
2.040224194,0,0,0.15083470940589905,0,0,2.446079969406128
2.041224348,0,0,0.33518823981285095,0,0,-29.582279205322266
2.042226724,0,0,0.6727706789970398,0,0,1.1466000080108643
2.043224748,0,0,1.2713210582733154,0,0,-0.5350799560546875
2.044232365,0,0,2.1499931812286377,0,0,9.478560447692871
2.04522537,0,0,2.1547815799713135,0,0,1.605239987373352
2.046234894,0,0,2.8179752826690674,0,0,0
2.04722764,0,0,2.4181437492370605,0,0,2.06387996673584
2.048227368,0,0,2.516305923461914,0,0,1.375920057296753
2.049384835,0,0,0.6440402865409851,0,0,2.751840114593506
2.050236231,0,0,0.10773907601833344,0,0,0.9172800183296204
2.051227089,0,0,0.4381389021873474,0,0,0
2.052228409,0,0,0.5841852426528931,0,0,0.611519992351532
2.0532271,0,0,1.3263877630233765,0,0,-1.1466000080108643
2.054227383,0,0,1.3862427473068237,0,0,0.5350799560546875
2.055227518,0,0,2.5665841102600098,0,0,0
2.056228301,0,0,2.425326347351074,0,0,0.8408399820327759
2.057226418,0,0,2.3271639347076416,0,0,1.9874399900436401
2.058231572,0,0,2.2816741466522217,0,0,1.1466000080108643
2.059232818,0,0,0.1412578970193863,0,0,2.9811599254608154
2.060227583,0,0,0.5578489899635315,0,0,9.325679779052734
2.06122907,0,0,-0.12210428714752197,0,0,0.9172800183296204
2.0622832779999998,0,0,0.993593692779541,0,0,-0.611519992351532
2.06328021,0,0,1.5322890281677246,0,0,-0.6879600286483765
2.064725395,0,0,2.0039467811584473,0,0,1.2994799613952637
2.065356794,0,0,2.6240451335906982,0,0,0.305759996175766
2.066273837,0,0,2.473210334777832,0,0,2.2167599201202393
2.067264399,0,0,2.7102363109588623,0,0,1.758120059967041
2.068308515,0,0,1.4101848602294922,0,0,3.210479974746704
2.069909772,0,0,0.2561795711517334,0,0,2.5989599227905273
2.070239804,0,0,0.5099649429321289,0,0,-0.9937199950218201
2.072976473,0,0,1.623268723487854,0,0,-0.9937199950218201
2.0731511559999998,0,0,1.623268723487854,0,0,-2.3696401119232178
2.073320968,0,0,1.8531121015548706,0,0,0.4586400091648102
2.074492508,0,0,2.367865562438965,0,0,0
2.075258184,0,0,2.5977089405059814,0,0,0.7644000053405762
2.076344503,0,0,2.3127987384796143,0,0,2.14031982421875
2.077284491,0,0,2.2649147510528564,0,0,1.375920057296753
2.078267478,0,0,0.1173158809542656,0,0,3.0576000213623047
2.079543628,0,0,-0.047884032130241394,0,0,0
2.0806030030000002,0,0,-0.16759411990642548,0,0,0.0764399990439415
2.081263606,0,0,0.7158663272857666,0,0,0
2.082262111,0,0,1.6328455209732056,0,0,-0.5350799560546875
2.083749759,0,0,2.0207061767578125,0,0,0.0764399990439415
2.084307548,0,0,3.138798475265503,0,0,0
2.085269331,0,0,2.827552318572998,0,0,2.06387996673584
2.086267078,0,0,2.5761611461639404,0,0,2.06387996673584
2.087254028,0,0,1.414973258972168,0,0,2.751840114593506
2.088247163,0,0,-0.021547814831137657,0,0,2.5989599227905273
2.089273298,0,0,0.0454898327589035,0,0,0.0764399990439415
2.0902638590000002,0,0,0.07661445438861847,0,0,0.611519992351532
2.091243235,0,0,1.0845733880996704,0,0,-1.375920057296753
2.092224352,0,0,1.9919757843017578,0,0,-1.1466000080108643
2.093224098,0,0,2.432508945465088,0,0,0.0764399990439415
2.094226567,0,0,3.023876667022705,0,0,0.9172800183296204
2.095227221,0,0,2.5737667083740234,0,0,2.6754000186920166
2.096223837,0,0,2.140416383743286,0,0,1.8345600366592407
2.097225121,0,0,0.6847416758537292,0,0,3.134040117263794
2.098226885,0,0,0.10295066982507706,0,0,1.9109998941421509
2.099224076,0,0,0.15322890877723694,0,0,0
2.100223785,0,0,0.17717093229293823,0,0,0.6879600286483765
2.101223846,0,0,1.460463047027588,0,0,-1.8345600366592407
2.102224852,0,0,1.7812861204147339,0,0,0.0764399990439415
2.103223746,0,0,2.7054479122161865,0,0,0
2.104223715,0,0,3.002328872680664,0,0,0.9172800183296204
2.105223628,0,0,2.607285737991333,0,0,2.5989599227905273
2.106226152,0,0,1.845929503440857,0,0,2.5989599227905273
2.107223361,0,0,0.08619125932455063,0,0,3.2869198322296143
2.108223959,0,0,0.16998831927776337,0,0,0.152879998087883
2.109223724,0,0,0.05746084079146385,0,0,0.8408399820327759
2.110230526,0,0,0.8403648138046265,0,0,9.019920349121094
2.111237383,0,0,1.7908629179000854,0,0,-1.223039984703064
2.112224796,0,0,1.9584569931030273,0,0,0
2.113223561,0,0,3.1866824626922607,0,0,-0.8408399820327759
2.114224103,0,0,2.75812029838562,0,0,2.14031982421875
