Time,AccelX1,AccelY1,AccelZ1,AccelX2,AccelY2,AccelZ2
0.000176239,0,0,1.644816517829895,0,0,0.611519992351532
0.00049518,0,0,1.644816517829895,0,0,0.9172800183296204
0.000702474,0,0,1.644816517829895,0,0,0.305759996175766
0.001038045,0,0,1.5275006294250488,0,0,0.7644000053405762
0.001367782,0,0,1.5275006294250488,0,0,1.1466000080108643
0.001701538,0,0,1.5275006294250488,0,0,0.611519992351532
0.002036609,0,0,1.5275006294250488,0,0,0.4586400091648102
0.002367531,0,0,1.5275006294250488,0,0,0.152879998087883
0.002703991,0,0,1.5275006294250488,0,0,0.8408399820327759
0.00303484,0,0,1.5275006294250488,0,0,0.152879998087883
0.003367318,0,0,1.3670891523361206,0,0,0.6879600286483765
0.00370774,0,0,1.3670891523361206,0,0,1.223039984703064
0.004039663,0,0,1.3670891523361206,0,0,0.6879600286483765
0.004372418,0,0,1.3670891523361206,0,0,0.611519992351532
0.004700693,0,0,1.3670891523361206,0,0,1.375920057296753
0.005044041,0,0,1.3670891523361206,0,0,2.2167599201202393
0.005381464,0,0,1.3670891523361206,0,0,0.3822000026702881
0.00570972,0,0,1.3335703611373901,0,0,0.611519992351532
0.006035272,0,0,1.3335703611373901,0,0,1.223039984703064
0.006369991,0,0,1.3335703611373901,0,0,0.611519992351532
0.006700561,0,0,1.3335703611373901,0,0,0.4586400091648102
0.007039706,0,0,1.3335703611373901,0,0,1.375920057296753
0.007367258,0,0,1.3335703611373901,0,0,1.070159912109375
0.007700403,0,0,1.3335703611373901,0,0,0.2293200045824051
0.008034288,0,0,1.3335703611373901,0,0,0.305759996175766
0.008366989,0,0,1.290474772453308,0,0,0.7644000053405762
0.008705096,0,0,1.290474772453308,0,0,0.9172800183296204
0.00903713,0,0,1.290474772453308,0,0,0.8408399820327759
0.009367534,0,0,1.290474772453308,0,0,0.5350799560546875
0.00970029,0,0,1.290474772453308,0,0,0.8408399820327759
0.010033824,0,0,1.290474772453308,0,0,0.9172800183296204
0.010374357,0,0,1.290474772453308,0,0,1.070159912109375
0.010701224,0,0,1.3287819623947144,0,0,0.9937199950218201
0.011052554,0,0,1.3287819623947144,0,0,0.9172800183296204
0.011368236,0,0,1.3287819623947144,0,0,1.2994799613952637
0.011700399,0,0,1.3287819623947144,0,0,0.8408399820327759
0.012034729,0,0,1.3287819623947144,0,0,0.3822000026702881
0.012367096,0,0,1.3287819623947144,0,0,0.4586400091648102
0.012705185,0,0,1.3287819623947144,0,0,1.223039984703064
0.013034034,0,0,1.3120225667953491,0,0,0.9937199950218201
0.013366901,0,0,1.3120225667953491,0,0,0.8408399820327759
0.01370036,0,0,1.3120225667953491,0,0,0.7644000053405762
0.014033912,0,0,1.3120225667953491,0,0,0.7644000053405762
0.014368502,0,0,1.3120225667953491,0,0,0.6879600286483765
0.014700443,0,0,1.3120225667953491,0,0,0
0.015033995,0,0,1.3120225667953491,0,0,0.0764399990439415
0.015367065,0,0,1.4963760375976563,0,0,0
0.015700451,0,0,1.4963760375976563,0,0,0
0.016034503,0,0,1.4963760375976563,0,0,-0.3822000026702881
0.016366926,0,0,1.4963760375976563,0,0,-0.152879998087883
0.016704922,0,0,1.4963760375976563,0,0,0.9172800183296204
0.017035993,0,0,1.4963760375976563,0,0,9.019920349121094
0.017367082,0,0,1.4963760375976563,0,0,1.223039984703064
0.017700449,0,0,1.5729905366897583,0,0,0.305759996175766
0.018033705,0,0,1.5729905366897583,0,0,0.2293200045824051
0.018369127,0,0,1.5729905366897583,0,0,0.305759996175766
0.018700531,0,0,1.5729905366897583,0,0,0.7644000053405762
0.019034954,0,0,1.5729905366897583,0,0,0.7644000053405762
0.019367358,0,0,1.5729905366897583,0,0,0.7644000053405762
0.019700336,0,0,1.5729905366897583,0,0,0.9937199950218201
0.020034555,0,0,1.6304513216018677,0,0,0.9937199950218201
0.020367163,0,0,1.6304513216018677,0,0,0.9172800183296204
0.020707344,0,0,1.6304513216018677,0,0,0.8408399820327759
0.021035008,0,0,1.6304513216018677,0,0,0.9937199950218201
0.021367838,0,0,1.6304513216018677,0,0,1.452359914779663
0.021712445,0,0,1.6304513216018677,0,0,1.070159912109375
0.022035757,0,0,1.6304513216018677,0,0,0.7644000053405762
0.022369661,0,0,1.6304513216018677,0,0,0.9172800183296204
0.022702694,0,0,1.7334020137786865,0,0,1.223039984703064
0.02303358,0,0,1.7334020137786865,0,0,1.6816799640655518
0.023369095,0,0,1.7334020137786865,0,0,1.2994799613952637
0.023700425,0,0,1.7334020137786865,0,0,1.2994799613952637
0.024034681,0,0,1.7334020137786865,0,0,0.9172800183296204
0.024367066,0,0,1.7334020137786865,0,0,1.1466000080108643
0.024700341,0,0,1.7334020137786865,0,0,0.6879600286483765
0.025039985,0,0,1.5634137392044067,0,0,0.5350799560546875
0.025367445,0,0,1.5634137392044067,0,0,0.7644000053405762
0.025700516,0,0,1.5634137392044067,0,0,0.2293200045824051
0.026033642,0,0,1.5634137392044067,0,0,0.152879998087883
0.026366916,0,0,1.5634137392044067,0,0,0.305759996175766
0.026702172,0,0,1.5634137392044067,0,0,0.5350799560546875
0.027033632,0,0,1.5634137392044067,0,0,0.152879998087883
0.027368869,0,0,1.414973258972168,0,0,0.2293200045824051
0.027700421,0,0,1.414973258972168,0,0,1.452359914779663
0.028033695,0,0,1.414973258972168,0,0,0
0.028366877,0,0,1.414973258972168,0,0,0.305759996175766
0.0287003,0,0,1.414973258972168,0,0,0.9172800183296204
0.029039852,0,0,1.414973258972168,0,0,0.9937199950218201
0.029372589,0,0,1.414973258972168,0,0,0.8408399820327759
0.029700975,0,0,1.316810965538025,0,0,0.4586400091648102
0.030037545,0,0,1.316810965538025,0,0,1.070159912109375
0.030367246,0,0,1.316810965538025,0,0,0.6879600286483765
0.030700594,0,0,1.316810965538025,0,0,0.4586400091648102
0.031041943,0,0,1.316810965538025,0,0,0.9172800183296204
0.031367124,0,0,1.316810965538025,0,0,0.9172800183296204
0.031712343,0,0,1.316810965538025,0,0,1.070159912109375
0.032034414,0,0,1.316810965538025,0,0,0.7644000053405762
0.032366929,0,0,1.2449848651885986,0,0,0.6879600286483765
0.032705352,0,0,1.2449848651885986,0,0,0.6879600286483765
0.033035274,0,0,1.2449848651885986,0,0,0.8408399820327759
0.033367363,0,0,1.2449848651885986,0,0,1.070159912109375
0.033702545,0,0,1.2449848651885986,0,0,1.070159912109375
0.034033875,0,0,1.2449848651885986,0,0,1.223039984703064
0.034367983,0,0,1.2449848651885986,0,0,0.9172800183296204
0.034700479,0,0,1.3455413579940796,0,0,0.9172800183296204
0.035033735,0,0,1.3455413579940796,0,0,1.223039984703064
0.035369324,0,0,1.3455413579940796,0,0,1.1466000080108643
0.03570058,0,0,1.3455413579940796,0,0,1.1466000080108643
0.036033614,0,0,1.3455413579940796,0,0,1.375920057296753
0.036370592,0,0,1.3455413579940796,0,0,0.0764399990439415
0.036700311,0,0,1.3455413579940796,0,0,1.223039984703064
0.037039715,0,0,1.436521053314209,0,0,0
0.037367026,0,0,1.436521053314209,0,0,1.605239987373352
0.037700412,0,0,1.436521053314209,0,0,1.8345600366592407
0.038034205,0,0,1.436521053314209,0,0,1.605239987373352
0.038366923,0,0,1.436521053314209,0,0,-0.2293200045824051
0.038703531,0,0,1.436521053314209,0,0,0.9937199950218201
0.039033842,0,0,1.436521053314209,0,0,0.2293200045824051
0.039366932,0,0,1.436521053314209,0,0,0.6879600286483765
0.039700188,0,0,1.5825673341751099,0,0,0.8408399820327759
0.040033758,0,0,1.5825673341751099,0,0,0.9172800183296204
0.04037007,0,0,1.5825673341751099,0,0,0.7644000053405762
0.040702714,0,0,1.5825673341751099,0,0,0.6879600286483765
0.041042563,0,0,1.5825673341751099,0,0,0.5350799560546875
0.041386707,0,0,1.5825673341751099,0,0,0.7644000053405762
0.041707056,0,0,1.5825673341751099,0,0,0.9937199950218201
0.042035164,0,0,1.5658079385757446,0,0,0.7644000053405762
0.042371882,0,0,1.5658079385757446,0,0,0.7644000053405762
0.042703361,0,0,1.5658079385757446,0,0,0.9172800183296204
0.04306782,0,0,1.5658079385757446,0,0,1.223039984703064
0.043372928,0,0,1.5658079385757446,0,0,0.9937199950218201
0.043705313,0,0,1.5658079385757446,0,0,0.9172800183296204
0.044035032,0,0,1.5658079385757446,0,0,0.611519992351532
0.044368251,0,0,1.4939818382263184,0,0,0.305759996175766
0.044704822,0,0,1.4939818382263184,0,0,0.4586400091648102
0.045034966,0,0,1.4939818382263184,0,0,0.305759996175766
0.045368259,0,0,1.4939818382263184,0,0,0.5350799560546875
0.045701571,0,0,1.4939818382263184,0,0,0.5350799560546875
0.046034975,0,0,1.4939818382263184,0,0,0.611519992351532
0.046373601,0,0,1.4939818382263184,0,0,0.4586400091648102
0.046701709,0,0,1.745373010635376,0,0,0.305759996175766
0.047034872,0,0,1.745373010635376,0,0,0.9172800183296204
0.04736798,0,0,1.745373010635376,0,0,1.223039984703064
0.047701698,0,0,1.745373010635376,0,0,1.8345600366592407
0.048037399,0,0,1.745373010635376,0,0,1.2994799613952637
0.048368414,0,0,1.745373010635376,0,0,0.611519992351532
0.048701707,0,0,1.745373010635376,0,0,0.7644000053405762
0.049037074,0,0,1.745373010635376,0,0,0
0.049374218,0,0,1.556231141090393,0,0,0
0.049705752,0,0,1.556231141090393,0,0,1.1466000080108643
0.050035175,0,0,1.556231141090393,0,0,1.9874399900436401
0.050368375,0,0,1.556231141090393,0,0,1.1466000080108643
0.050704538,0,0,1.556231141090393,0,0,0.7644000053405762
0.051035276,0,0,1.556231141090393,0,0,0.6879600286483765
0.051369772,0,0,1.556231141090393,0,0,1.070159912109375
0.051705954,0,0,1.4245500564575195,0,0,1.223039984703064
0.052035302,0,0,1.4245500564575195,0,0,1.1466000080108643
0.052371206,0,0,1.4245500564575195,0,0,0.611519992351532
0.052701777,0,0,1.4245500564575195,0,0,0.7644000053405762
0.053035088,0,0,1.4245500564575195,0,0,0.9172800183296204
0.0533714,0,0,1.4245500564575195,0,0,0.9937199950218201
0.053701915,0,0,1.4245500564575195,0,0,0.5350799560546875
0.0540403,0,0,1.3551181554794312,0,0,1.223039984703064
0.054368279,0,0,1.3551181554794312,0,0,0.6879600286483765
0.054701683,0,0,1.3551181554794312,0,0,0.7644000053405762
0.055035179,0,0,1.3551181554794312,0,0,0.5350799560546875
0.05536825,0,0,1.3551181554794312,0,0,1.1466000080108643
0.055704895,0,0,1.3551181554794312,0,0,1.223039984703064
0.056034947,0,0,1.3551181554794312,0,0,0.611519992351532
0.056368332,0,0,1.3096283674240112,0,0,0.3822000026702881
0.056703514,0,0,1.3096283674240112,0,0,0.305759996175766
0.057034992,0,0,1.3096283674240112,0,0,0
0.057373785,0,0,1.3096283674240112,0,0,0.4586400091648102
0.057701485,0,0,1.3096283674240112,0,0,0.6879600286483765
0.058034723,0,0,1.3096283674240112,0,0,0.2293200045824051
0.058370293,0,0,1.3096283674240112,0,0,0
0.058701586,0,0,1.3263877630233765,0,0,-0.305759996175766
0.059038379,0,0,1.3263877630233765,0,0,0.5350799560546875
0.059370357,0,0,1.3263877630233765,0,0,0.2293200045824051
0.059706317,0,0,1.3263877630233765,0,0,0
0.060059665,0,0,1.3263877630233765,0,0,1.223039984703064
0.060377495,0,0,1.3263877630233765,0,0,2.3696401119232178
0.060703677,0,0,1.3263877630233765,0,0,0
0.061038007,0,0,1.3646949529647827,0,0,0.611519992351532
0.061367448,0,0,1.3646949529647827,0,0,0.9172800183296204
0.061703963,0,0,1.3646949529647827,0,0,1.1466000080108643
0.062037682,0,0,1.3646949529647827,0,0,1.1466000080108643
0.062367623,0,0,1.3646949529647827,0,0,0.5350799560546875
0.062703694,0,0,1.3646949529647827,0,0,0.611519992351532
0.063033857,0,0,1.3646949529647827,0,0,1.223039984703064
0.063369094,0,0,1.3646949529647827,0,0,1.1466000080108643
0.063700646,0,0,1.4389152526855469,0,0,1.223039984703064
0.064033958,0,0,1.4389152526855469,0,0,0.7644000053405762
0.064369121,0,0,1.4389152526855469,0,0,0.8408399820327759
0.064700581,0,0,1.4389152526855469,0,0,0.611519992351532
0.065039318,0,0,1.4389152526855469,0,0,0.9937199950218201
0.065368444,0,0,1.4389152526855469,0,0,0.9937199950218201
0.065701626,0,0,1.4389152526855469,0,0,0.7644000053405762
0.066039845,0,0,1.534683346748352,0,0,0.4586400091648102
0.066368471,0,0,1.534683346748352,0,0,0.3822000026702881
0.066701616,0,0,1.534683346748352,0,0,0.6879600286483765
0.067034705,0,0,1.534683346748352,0,0,0.6879600286483765
0.067368368,0,0,1.534683346748352,0,0,0.2293200045824051
0.067704976,0,0,1.534683346748352,0,0,1.605239987373352
0.068035102,0,0,1.534683346748352,0,0,1.2994799613952637
0.068368247,0,0,1.4891934394836426,0,0,0.2293200045824051
0.068702429,0,0,1.4891934394836426,0,0,0
0.06903611,0,0,1.4891934394836426,0,0,0.6879600286483765
0.06937457,0,0,1.4891934394836426,0,0,1.375920057296753
0.069722844,0,0,1.4891934394836426,0,0,0.611519992351532
0.070066174,0,0,1.4891934394836426,0,0,-0.152879998087883
0.070389911,0,0,1.4891934394836426,0,0,1.223039984703064
0.070718371,0,0,1.6615760326385498,0,0,0.7644000053405762
0.071060775,0,0,1.6615760326385498,0,0,1.070159912109375
0.071394346,0,0,1.6615760326385498,0,0,1.8345600366592407
0.071712083,0,0,1.6615760326385498,0,0,0.9172800183296204
0.072036746,0,0,1.6615760326385498,0,0,0.8408399820327759
0.072377206,0,0,1.6615760326385498,0,0,0.7644000053405762
0.072702277,0,0,1.6615760326385498,0,0,0.6879600286483765
0.073035403,0,0,1.5849615335464478,0,0,0.7644000053405762
0.07337364,0,0,1.5849615335464478,0,0,1.1466000080108643
0.073701674,0,0,1.5849615335464478,0,0,1.070159912109375
0.074035022,0,0,1.5849615335464478,0,0,0.9172800183296204
0.074372926,0,0,1.5849615335464478,0,0,0.3822000026702881
0.074701553,0,0,1.5849615335464478,0,0,1.070159912109375
0.075034882,0,0,1.5849615335464478,0,0,1.070159912109375
0.075368527,0,0,1.3838485479354858,0,0,0.9172800183296204
0.075701413,0,0,1.3838485479354858,0,0,1.070159912109375
0.076038576,0,0,1.3838485479354858,0,0,0.9172800183296204
0.076368239,0,0,1.3838485479354858,0,0,0.7644000053405762
0.076701551,0,0,1.3838485479354858,0,0,0.9172800183296204
0.077037362,0,0,1.3838485479354858,0,0,0.9172800183296204
0.07736834,0,0,1.3838485479354858,0,0,0.6879600286483765
0.077706614,0,0,1.3838485479354858,0,0,1.1466000080108643
0.078035093,0,0,1.3742717504501343,0,0,1.2994799613952637
0.078368311,0,0,1.3742717504501343,0,0,0.305759996175766
0.078701641,0,0,1.3742717504501343,0,0,0
0.079035101,0,0,1.3742717504501343,0,0,0.2293200045824051
0.079371023,0,0,1.3742717504501343,0,0,1.223039984703064
0.079701687,0,0,1.3742717504501343,0,0,0.4586400091648102
0.080035406,0,0,1.3742717504501343,0,0,0.305759996175766
0.080368328,0,0,1.2521674633026123,0,0,0.5350799560546875
0.080701677,0,0,1.2521674633026123,0,0,0.7644000053405762
0.081036803,0,0,1.2521674633026123,0,0,0.5350799560546875
0.081368262,0,0,1.2521674633026123,0,0,0.152879998087883
0.081707055,0,0,1.2521674633026123,0,0,1.605239987373352
0.082034996,0,0,1.2521674633026123,0,0,0.152879998087883
0.082368271,0,0,1.2521674633026123,0,0,-0.8408399820327759
0.082704415,0,0,1.2737152576446533,0,0,9.249239921569824
0.083035227,0,0,1.2737152576446533,0,0,0.611519992351532
0.083371279,0,0,1.2737152576446533,0,0,0.9172800183296204
0.08370159,0,0,1.2737152576446533,0,0,1.1466000080108643
0.084036198,0,0,1.2737152576446533,0,0,0.9937199950218201
0.084368398,0,0,1.2737152576446533,0,0,0.7644000053405762
0.084701562,0,0,1.2737152576446533,0,0,0.8408399820327759
0.085040021,0,0,1.3670891523361206,0,0,0.5350799560546875
0.085368536,0,0,1.3670891523361206,0,0,0.7644000053405762
0.085739625,0,0,1.3670891523361206,0,0,0.9172800183296204
0.086037178,0,0,1.3670891523361206,0,0,0.9172800183296204
0.086368582,0,0,1.3670891523361206,0,0,0.6879600286483765
0.086706467,0,0,1.3670891523361206,0,0,0.5350799560546875
0.087034853,0,0,1.3670891523361206,0,0,0.9937199950218201
0.087370405,0,0,1.4676456451416016,0,0,0.9172800183296204
0.087711272,0,0,1.4676456451416016,0,0,0.6879600286483765
0.088041657,0,0,1.4676456451416016,0,0,1.223039984703064
0.088373765,0,0,1.4676456451416016,0,0,0.152879998087883
0.088706965,0,0,1.4676456451416016,0,0,0.152879998087883
0.089038277,0,0,1.4676456451416016,0,0,0.8408399820327759
0.08937007,0,0,1.4676456451416016,0,0,0.611519992351532
0.089708399,0,0,1.5179238319396973,0,0,0.5350799560546875
0.0900421,0,0,1.5179238319396973,0,0,0.305759996175766
0.090369504,0,0,1.5179238319396973,0,0,1.070159912109375
0.090705074,0,0,1.5179238319396973,0,0,0.8408399820327759
0.091035238,0,0,1.5179238319396973,0,0,0.9937199950218201
0.091368438,0,0,1.5179238319396973,0,0,0.4586400091648102
0.091705712,0,0,1.5179238319396973,0,0,1.605239987373352
0.092035061,0,0,1.5179238319396973,0,0,0.9937199950218201
0.09241465,0,0,1.5155296325683594,0,0,1.223039984703064
0.09270235,0,0,1.5155296325683594,0,0,0
0.093040458,0,0,1.5155296325683594,0,0,0
0.093372158,0,0,1.5155296325683594,0,0,2.2932000160217285
0.09370084,0,0,1.5155296325683594,0,0,0
0.094033763,0,0,1.5155296325683594,0,0,0.9937199950218201
0.094367685,0,0,1.5155296325683594,0,0,0.7644000053405762
0.09470046,0,0,1.6687586307525635,0,0,0.5350799560546875
0.095036419,0,0,1.6687586307525635,0,0,0.4586400091648102
0.095367064,0,0,1.6687586307525635,0,0,1.070159912109375
0.095700505,0,0,1.6687586307525635,0,0,0.6879600286483765
0.096039687,0,0,1.6687586307525635,0,0,0.7644000053405762
0.096373591,0,0,1.6687586307525635,0,0,0.5350799560546875
0.096707291,0,0,1.6687586307525635,0,0,0.8408399820327759
0.09704451,0,0,1.5610195398330688,0,0,0.9937199950218201
0.097368655,0,0,1.5610195398330688,0,0,0.5350799560546875
0.097701781,0,0,1.5610195398330688,0,0,0.611519992351532
0.098041259,0,0,1.5610195398330688,0,0,1.452359914779663
0.098376237,0,0,1.5610195398330688,0,0,0.4586400091648102
0.098702789,0,0,1.5610195398330688,0,0,-0.305759996175766
0.099037767,0,0,1.5610195398330688,0,0,0.2293200045824051
0.099368412,0,0,1.3718775510787964,0,0,0.9937199950218201
0.099702223,0,0,1.3718775510787964,0,0,1.223039984703064
0.100035313,0,0,1.3718775510787964,0,0,1.070159912109375
0.100368679,0,0,1.3718775510787964,0,0,0.9172800183296204
0.100705769,0,0,1.3718775510787964,0,0,0.4586400091648102
0.101035376,0,0,1.3718775510787964,0,0,0.9937199950218201
0.10136828,0,0,1.3718775510787964,0,0,1.223039984703064
0.101701629,0,0,1.3479355573654175,0,0,0.9172800183296204
0.102035329,0,0,1.3479355573654175,0,0,1.605239987373352
0.102374048,0,0,1.3479355573654175,0,0,0.8408399820327759
0.102701915,0,0,1.3479355573654175,0,0,1.758120059967041
0.103035337,0,0,1.3479355573654175,0,0,1.8345600366592407
0.103374112,0,0,1.3479355573654175,0,0,1.8345600366592407
0.103702275,0,0,1.3479355573654175,0,0,2.446079969406128
0.104038438,0,0,1.3072341680526733,0,0,1.8345600366592407
0.10436862,0,0,1.3072341680526733,0,0,1.9109998941421509
0.10470182,0,0,1.3072341680526733,0,0,1.9109998941421509
0.10503741,0,0,1.3072341680526733,0,0,0.9172800183296204
0.105368462,0,0,1.3072341680526733,0,0,0.8408399820327759
0.105706144,0,0,1.3072341680526733,0,0,0.9172800183296204
0.10603527,0,0,1.3072341680526733,0,0,0.7644000053405762
0.106368489,0,0,1.2952631711959839,0,0,0.7644000053405762
0.106703596,0,0,1.2952631711959839,0,0,0.611519992351532
0.107035037,0,0,1.2952631711959839,0,0,0.7644000053405762
0.10737446,0,0,1.2952631711959839,0,0,0.6879600286483765
0.107701845,0,0,1.2952631711959839,0,0,0.5350799560546875
0.108035157,0,0,1.2952631711959839,0,0,1.452359914779663
0.108370524,0,0,1.2952631711959839,0,0,1.1466000080108643
0.108701854,0,0,1.335964560508728,0,0,0.4586400091648102
0.10903711,0,0,1.335964560508728,0,0,0.3822000026702881
0.109368958,0,0,1.335964560508728,0,0,0.305759996175766
0.10970201,0,0,1.335964560508728,0,0,0.4586400091648102
0.110036914,0,0,1.335964560508728,0,0,0.7644000053405762
0.110368226,0,0,1.335964560508728,0,0,0.3822000026702881
0.110705111,0,0,1.335964560508728,0,0,0.2293200045824051
0.111035293,0,0,1.4963760375976563,0,0,0.5350799560546875
0.111368456,0,0,1.4963760375976563,0,0,0.611519992351532
0.111704805,0,0,1.4963760375976563,0,0,0.5350799560546875
0.11203519,0,0,1.4963760375976563,0,0,0.4586400091648102
0.11237489,0,0,1.4963760375976563,0,0,0.9172800183296204
0.112701924,0,0,1.4963760375976563,0,0,1.223039984703064
0.113035569,0,0,1.4963760375976563,0,0,0.6879600286483765
0.113373843,0,0,1.6496049165725708,0,0,0
0.113704136,0,0,1.6496049165725708,0,0,1.223039984703064
0.114035281,0,0,1.6496049165725708,0,0,1.375920057296753
0.1143685,0,0,1.6496049165725708,0,0,1.223039984703064
0.114702385,0,0,1.6496049165725708,0,0,1.2994799613952637
0.115037789,0,0,1.6496049165725708,0,0,1.452359914779663
0.115368563,0,0,1.6496049165725708,0,0,1.375920057296753
0.115702264,0,0,1.6496049165725708,0,0,0.8408399820327759
0.116037927,0,0,1.6065093278884888,0,0,0.9172800183296204
0.116368664,0,0,1.6065093278884888,0,0,0.4586400091648102
0.116704994,0,0,1.6065093278884888,0,0,0.611519992351532
0.117035195,0,0,1.6065093278884888,0,0,0.6879600286483765
0.117368506,0,0,1.6065093278884888,0,0,1.1466000080108643
0.117706966,0,0,1.6065093278884888,0,0,0.3822000026702881
0.11803561,0,0,1.6065093278884888,0,0,1.070159912109375
0.118368588,0,0,1.6519991159439087,0,0,1.1466000080108643
0.11870177,0,0,1.6519991159439087,0,0,0.4586400091648102
0.119035248,0,0,1.6519991159439087,0,0,0.2293200045824051
0.119373671,0,0,1.6519991159439087,0,0,0.8408399820327759
0.119702038,0,0,1.6519991159439087,0,0,0.9937199950218201
0.120035183,0,0,1.6519991159439087,0,0,0.8408399820327759
0.120368327,0,0,1.6519991159439087,0,0,0.8408399820327759
0.120701805,0,0,1.6184803247451782,0,0,0.9172800183296204
0.121038506,0,0,1.6184803247451782,0,0,0.9172800183296204
0.121368613,0,0,1.6184803247451782,0,0,0.611519992351532
0.121701703,0,0,1.6184803247451782,0,0,0.7644000053405762
0.122037144,0,0,1.6184803247451782,0,0,0.9172800183296204
0.122368455,0,0,1.6184803247451782,0,0,0.611519992351532
0.122706026,0,0,1.6184803247451782,0,0,0.7644000053405762
0.123049411,0,0,1.4413094520568848,0,0,0.3822000026702881
0.123368982,0,0,1.4413094520568848,0,0,0.2293200045824051
0.12370333,0,0,1.4413094520568848,0,0,0.6879600286483765
0.124037345,0,0,1.4413094520568848,0,0,0.0764399990439415
0.124374268,0,0,1.4413094520568848,0,0,0.305759996175766
0.124701839,0,0,1.4413094520568848,0,0,0.2293200045824051
0.125035335,0,0,1.4413094520568848,0,0,0.4586400091648102
0.12537048,0,0,1.314416766166687,0,0,0.2293200045824051
0.125701736,0,0,1.314416766166687,0,0,0.9937199950218201
0.126038084,0,0,1.314416766166687,0,0,0.8408399820327759
0.126368581,0,0,1.314416766166687,0,0,1.5288000106811523
0.126701763,0,0,1.314416766166687,0,0,0.6879600286483765
0.127037,0,0,1.314416766166687,0,0,0.611519992351532
0.127368478,0,0,1.314416766166687,0,0,0.5350799560546875
0.127703252,0,0,1.2665326595306396,0,0,0.611519992351532
0.128035212,0,0,1.2665326595306396,0,0,0.9172800183296204
0.128368394,0,0,1.2665326595306396,0,0,1.1466000080108643
0.128703409,0,0,1.2665326595306396,0,0,0.4586400091648102
0.129035294,0,0,1.2665326595306396,0,0,0.305759996175766
0.129375235,0,0,1.2665326595306396,0,0,0.305759996175766
0.129702843,0,0,1.2665326595306396,0,0,0.8408399820327759
0.130035414,0,0,1.2665326595306396,0,0,1.070159912109375
0.130374725,0,0,1.2856862545013428,0,0,0.6879600286483765
0.130701685,0,0,1.2856862545013428,0,0,0.611519992351532
0.131035144,0,0,1.2856862545013428,0,0,1.1466000080108643
0.131370493,0,0,1.2856862545013428,0,0,0.9937199950218201
0.131701804,0,0,1.2856862545013428,0,0,0.8408399820327759
0.132038541,0,0,1.2856862545013428,0,0,0.9172800183296204
0.132368594,0,0,1.2856862545013428,0,0,1.223039984703064
0.132701627,0,0,1.3670891523361206,0,0,0.9937199950218201
0.13303842,0,0,1.3670891523361206,0,0,0.9172800183296204
0.133367361,0,0,1.3670891523361206,0,0,0.7644000053405762
0.133703821,0,0,1.3670891523361206,0,0,0.7644000053405762
0.134033984,0,0,1.3670891523361206,0,0,0.3822000026702881
0.134370795,0,0,1.3670891523361206,0,0,0.4586400091648102
0.134702533,0,0,1.3670891523361206,0,0,0.7644000053405762
0.135033807,0,0,1.5059528350830078,0,0,0.2293200045824051
0.135372341,0,0,1.5059528350830078,0,0,0.4586400091648102
0.135700949,0,0,1.5059528350830078,0,0,0
0.13604976,0,0,1.5059528350830078,0,0,0.5350799560546875
0.136388071,0,0,1.5059528350830078,0,0,0.7644000053405762
0.136723123,0,0,1.5059528350830078,0,0,0.9937199950218201
0.137043639,0,0,1.5059528350830078,0,0,1.2994799613952637
0.13737445,0,0,1.556231141090393,0,0,9.172800064086914
0.137701502,0,0,1.556231141090393,0,0,0.8408399820327759
0.138033665,0,0,1.556231141090393,0,0,0.8408399820327759
0.138369847,0,0,1.556231141090393,0,0,1.223039984703064
0.138700455,0,0,1.556231141090393,0,0,0.7644000053405762
0.139033989,0,0,1.556231141090393,0,0,0
0.139367115,0,0,1.556231141090393,0,0,0.2293200045824051
0.13970026,0,0,1.5634137392044067,0,0,1.070159912109375
0.140035608,0,0,1.5634137392044067,0,0,1.2994799613952637
0.140366771,0,0,1.5634137392044067,0,0,1.070159912109375
0.140705435,0,0,1.5634137392044067,0,0,0.8408399820327759
0.141036394,0,0,1.5634137392044067,0,0,1.070159912109375
0.141372465,0,0,1.5634137392044067,0,0,1.070159912109375
0.141700313,0,0,1.5634137392044067,0,0,0.6879600286483765
0.142033754,0,0,1.5634137392044067,0,0,0.8408399820327759
0.142367566,0,0,1.522712230682373,0,0,1.1466000080108643
0.142702859,0,0,1.522712230682373,0,0,1.223039984703064
0.143037448,0,0,1.522712230682373,0,0,0.7644000053405762
0.143367204,0,0,1.522712230682373,0,0,0.9172800183296204
0.143700237,0,0,1.522712230682373,0,0,0.8408399820327759
0.144035493,0,0,1.522712230682373,0,0,1.2994799613952637
0.144382971,0,0,1.522712230682373,0,0,0.9172800183296204
0.144711116,0,0,1.5418659448623657,0,0,0.8408399820327759
0.145035261,0,0,1.5418659448623657,0,0,0.6879600286483765
0.145367091,0,0,1.5418659448623657,0,0,0.611519992351532
0.145702532,0,0,1.5418659448623657,0,0,0.5350799560546875
0.146033769,0,0,1.5418659448623657,0,0,0.6879600286483765
0.146369636,0,0,1.5418659448623657,0,0,0.7644000053405762
0.146700577,0,0,1.5418659448623657,0,0,0.6879600286483765
0.147033537,0,0,1.4245500564575195,0,0,0.2293200045824051
0.147368774,0,0,1.4245500564575195,0,0,0
0.147700159,0,0,1.4245500564575195,0,0,-0.3822000026702881
0.148033786,0,0,1.4245500564575195,0,0,-0.9172800183296204
0.148370097,0,0,1.4245500564575195,0,0,0.0764399990439415
0.148700279,0,0,1.4245500564575195,0,0,0.7644000053405762
0.149039924,0,0,1.4245500564575195,0,0,0.0764399990439415
0.149366994,0,0,1.4317326545715332,0,0,0.305759996175766
0.149700195,0,0,1.4317326545715332,0,0,0.9172800183296204
0.150033136,0,0,1.4317326545715332,0,0,1.1466000080108643
0.150367095,0,0,1.4317326545715332,0,0,0.611519992351532
0.150703481,0,0,1.4317326545715332,0,0,0.8408399820327759
0.151033699,0,0,1.4317326545715332,0,0,0.9172800183296204
0.1513669,0,0,1.4317326545715332,0,0,1.070159912109375
0.151702045,0,0,1.3479355573654175,0,0,0.5350799560546875
0.152033634,0,0,1.3479355573654175,0,0,0.6879600286483765
0.152373056,0,0,1.3479355573654175,0,0,1.1466000080108643
0.152700386,0,0,1.3479355573654175,0,0,1.223039984703064
0.153034549,0,0,1.3479355573654175,0,0,0.9937199950218201
0.153369268,0,0,1.3479355573654175,0,0,0.8408399820327759
0.153700265,0,0,1.3479355573654175,0,0,1.223039984703064
0.154034058,0,0,1.290474772453308,0,0,1.5288000106811523
0.154367073,0,0,1.290474772453308,0,0,1.223039984703064
0.154700107,0,0,1.290474772453308,0,0,1.223039984703064
0.155037381,0,0,1.290474772453308,0,0,1.223039984703064
0.1553671,0,0,1.290474772453308,0,0,0.9937199950218201
0.155703874,0,0,1.290474772453308,0,0,1.070159912109375
0.156033574,0,0,1.290474772453308,0,0,0.611519992351532
0.156366978,0,0,1.290474772453308,0,0,0.611519992351532
0.15670529,0,0,1.3718775510787964,0,0,2.06387996673584
0.157036731,0,0,1.3718775510787964,0,0,1.5288000106811523
0.157368431,0,0,1.3718775510787964,0,0,0.611519992351532
0.157703817,0,0,1.3718775510787964,0,0,1.5288000106811523
0.158035202,0,0,1.3718775510787964,0,0,0.0764399990439415
0.15836868,0,0,1.3718775510787964,0,0,-0.152879998087883
0.158702306,0,0,1.3718775510787964,0,0,0.4586400091648102
0.159034914,0,0,1.4772224426269531,0,0,0.5350799560546875
0.159370244,0,0,1.4772224426269531,0,0,0
0.159701759,0,0,1.4772224426269531,0,0,0.8408399820327759
0.160038515,0,0,1.4772224426269531,0,0,1.070159912109375
0.160368438,0,0,1.4772224426269531,0,0,0.9172800183296204
0.160701934,0,0,1.4772224426269531,0,0,0.6879600286483765
0.161040783,0,0,1.4772224426269531,0,0,0.8408399820327759
0.161368557,0,0,1.5753847360610962,0,0,0.9172800183296204
0.161701794,0,0,1.5753847360610962,0,0,0.7644000053405762
0.162035365,0,0,1.5753847360610962,0,0,0.5350799560546875
0.162368602,0,0,1.5753847360610962,0,0,0.8408399820327759
0.162704969,0,0,1.5753847360610962,0,0,0.7644000053405762
0.163035096,0,0,1.5753847360610962,0,0,0.9937199950218201
0.163368388,0,0,1.5753847360610962,0,0,0.5350799560546875
0.163703866,0,0,1.5873557329177856,0,0,0.152879998087883
0.164035196,0,0,1.5873557329177856,0,0,1.1466000080108643
0.16437336,0,0,1.5873557329177856,0,0,0.8408399820327759
0.164701856,0,0,1.5873557329177856,0,0,1.223039984703064
0.165035371,0,0,1.5873557329177856,0,0,1.1466000080108643
0.165372905,0,0,1.5873557329177856,0,0,0.611519992351532
0.165708105,0,0,1.5873557329177856,0,0,0.9937199950218201
0.16603925,0,0,1.647210717201233,0,0,1.070159912109375
0.166368376,0,0,1.647210717201233,0,0,1.223039984703064
0.166701817,0,0,1.647210717201233,0,0,1.223039984703064
0.167036888,0,0,1.647210717201233,0,0,1.223039984703064
0.16736844,0,0,1.647210717201233,0,0,1.070159912109375
0.167705066,0,0,1.647210717201233,0,0,1.070159912109375
0.168035026,0,0,1.647210717201233,0,0,1.375920057296753
0.168368578,0,0,1.6376339197158813,0,0,1.375920057296753
0.168706223,0,0,1.6376339197158813,0,0,0.2293200045824051
0.169036164,0,0,1.6376339197158813,0,0,2.14031982421875
0.169368457,0,0,1.6376339197158813,0,0,1.1466000080108643
0.169702231,0,0,1.6376339197158813,0,0,1.1466000080108643
0.170035043,0,0,1.6376339197158813,0,0,1.452359914779663
0.170371632,0,0,1.6376339197158813,0,0,0.0764399990439415
0.170701721,0,0,1.3215993642807007,0,0,0.8408399820327759
0.171067088,0,0,1.3215993642807007,0,0,0.7644000053405762
0.171371233,0,0,1.3215993642807007,0,0,0.9172800183296204
0.171701914,0,0,1.3215993642807007,0,0,0.6879600286483765
0.172040967,0,0,1.3215993642807007,0,0,0.9172800183296204
0.172368426,0,0,1.3215993642807007,0,0,0.8408399820327759
0.17270183,0,0,1.3215993642807007,0,0,0.9172800183296204
0.173037234,0,0,1.3934253454208374,0,0,0.8408399820327759
0.173368564,0,0,1.3934253454208374,0,0,0.6879600286483765
0.17370219,0,0,1.3934253454208374,0,0,0.8408399820327759
0.174035094,0,0,1.3934253454208374,0,0,0.9172800183296204
0.174368332,0,0,1.3934253454208374,0,0,0.8408399820327759
0.174703458,0,0,1.3934253454208374,0,0,0.9172800183296204
0.175034955,0,0,1.3934253454208374,0,0,0.9172800183296204
0.175371803,0,0,1.37906014919281,0,0,0.6879600286483765
0.175703985,0,0,1.37906014919281,0,0,0.9937199950218201
0.176035037,0,0,1.37906014919281,0,0,0.305759996175766
0.176372793,0,0,1.37906014919281,0,0,0.7644000053405762
0.176701586,0,0,1.37906014919281,0,0,0.611519992351532
0.177035527,0,0,1.37906014919281,0,0,0.0764399990439415
0.177367505,0,0,1.37906014919281,0,0,0.9937199950218201
0.177700446,0,0,1.2545616626739502,0,0,0.7644000053405762
0.178037202,0,0,1.2545616626739502,0,0,0.2293200045824051
0.178367124,0,0,1.2545616626739502,0,0,0.6879600286483765
0.178700565,0,0,1.2545616626739502,0,0,1.9109998941421509
0.179035525,0,0,1.2545616626739502,0,0,2.06387996673584
0.179367021,0,0,1.2545616626739502,0,0,1.758120059967041
0.179706018,0,0,1.2545616626739502,0,0,0.6879600286483765
0.180033866,0,0,1.2545616626739502,0,0,1.375920057296753
0.180366937,0,0,1.3431471586227417,0,0,2.06387996673584
0.180702341,0,0,1.3431471586227417,0,0,2.14031982421875
0.181036356,0,0,1.3431471586227417,0,0,1.070159912109375
0.181371686,0,0,1.3431471586227417,0,0,2.06387996673584
0.181701942,0,0,1.3431471586227417,0,0,0.9172800183296204
0.182034976,0,0,1.3431471586227417,0,0,0.8408399820327759
0.182370009,0,0,1.3431471586227417,0,0,0.9937199950218201
0.182701673,0,0,1.3862427473068237,0,0,1.1466000080108643
0.18303841,0,0,1.3862427473068237,0,0,1.070159912109375
0.183368499,0,0,1.3862427473068237,0,0,0.9172800183296204
0.183701792,0,0,1.3862427473068237,0,0,0.9172800183296204
0.184039622,0,0,1.3862427473068237,0,0,0.9172800183296204
0.184368304,0,0,1.3862427473068237,0,0,0.6879600286483765
0.184701578,0,0,1.3862427473068237,0,0,0.9937199950218201
0.185035315,0,0,1.5466543436050415,0,0,0.9937199950218201
0.185368182,0,0,1.5466543436050415,0,0,0.7644000053405762
0.185706512,0,0,1.5466543436050415,0,0,0.6879600286483765
0.18603725,0,0,1.5466543436050415,0,0,0.6879600286483765
0.186368654,0,0,1.5466543436050415,0,0,0.7644000053405762
0.186703835,0,0,1.5466543436050415,0,0,0.5350799560546875
0.187035073,0,0,1.5466543436050415,0,0,0.3822000026702881
0.187373014,0,0,1.599326729774475,0,0,0.5350799560546875
0.187701659,0,0,1.599326729774475,0,0,0.4586400091648102
0.188035192,0,0,1.599326729774475,0,0,0.611519992351532
0.188370485,0,0,1.599326729774475,0,0,0.5350799560546875
0.188701611,0,0,1.599326729774475,0,0,0.4586400091648102
0.189038515,0,0,1.599326729774475,0,0,0.8408399820327759
0.189368549,0,0,1.599326729774475,0,0,0.3822000026702881
0.189701694,0,0,1.4915876388549805,0,0,-0.152879998087883
0.190037116,0,0,1.4915876388549805,0,0,-0.4586400091648102
0.190368502,0,0,1.4915876388549805,0,0,0.152879998087883
0.190704387,0,0,1.4915876388549805,0,0,1.605239987373352
0.191034439,0,0,1.4915876388549805,0,0,1.452359914779663
0.191368455,0,0,1.4915876388549805,0,0,1.605239987373352
0.191705044,0,0,1.4915876388549805,0,0,-0.4586400091648102
0.192035263,0,0,1.4915876388549805,0,0,1.5288000106811523
0.192368407,0,0,1.6639702320098877,0,0,0.6879600286483765
0.192703533,0,0,1.6639702320098877,0,0,1.1466000080108643
0.193035197,0,0,1.6639702320098877,0,0,1.375920057296753
0.193373638,0,0,1.6639702320098877,0,0,0.7644000053405762
0.193701727,0,0,1.6639702320098877,0,0,0.8408399820327759
0.194034927,0,0,1.6639702320098877,0,0,0.9937199950218201
0.194370739,0,0,1.6639702320098877,0,0,1.070159912109375
0.194701865,0,0,1.4676456451416016,0,0,1.1466000080108643
0.195038343,0,0,1.4676456451416016,0,0,1.375920057296753
0.195368284,0,0,1.4676456451416016,0,0,1.070159912109375
0.195701781,0,0,1.4676456451416016,0,0,1.1466000080108643
0.196036925,0,0,1.4676456451416016,0,0,0.611519992351532
0.196370607,0,0,1.4676456451416016,0,0,1.1466000080108643
0.196705344,0,0,1.4676456451416016,0,0,1.070159912109375
0.19703536,0,0,1.4532804489135742,0,0,0.8408399820327759
0.19736843,0,0,1.4532804489135742,0,0,0.6879600286483765
0.197706316,0,0,1.4532804489135742,0,0,1.070159912109375
0.198034961,0,0,1.4532804489135742,0,0,0.611519992351532
0.198368476,0,0,1.4532804489135742,0,0,0.5350799560546875
0.198702324,0,0,1.4532804489135742,0,0,0.8408399820327759
0.199034969,0,0,1.4532804489135742,0,0,1.070159912109375
0.199378539,0,0,1.3072341680526733,0,0,0.5350799560546875
0.199706129,0,0,1.3072341680526733,0,0,0.305759996175766
0.200034996,0,0,1.3072341680526733,0,0,0.3822000026702881
0.200370326,0,0,1.3072341680526733,0,0,0.4586400091648102
0.20070197,0,0,1.3072341680526733,0,0,0.611519992351532
0.201036874,0,0,1.3072341680526733,0,0,0.5350799560546875
0.201368501,0,0,1.3072341680526733,0,0,0
0.201701831,0,0,1.3072341680526733,0,0,-0.152879998087883
0.202037957,0,0,1.237802267074585,0,0,0.7644000053405762
0.202368287,0,0,1.237802267074585,0,0,-0.2293200045824051
0.202705691,0,0,1.237802267074585,0,0,-0.3822000026702881
0.203035243,0,0,1.237802267074585,0,0,0
0.203368462,0,0,1.237802267074585,0,0,0.9172800183296204
0.203707217,0,0,1.237802267074585,0,0,0.611519992351532
0.204035325,0,0,1.237802267074585,0,0,0.611519992351532
0.204368303,0,0,1.3623007535934448,0,0,1.5288000106811523
0.204702596,0,0,1.3623007535934448,0,0,0.9172800183296204
0.205035778,0,0,1.3623007535934448,0,0,0.9172800183296204
0.205372145,0,0,1.3623007535934448,0,0,0.9172800183296204
0.205701845,0,0,1.3623007535934448,0,0,0.8408399820327759
0.206035138,0,0,1.3623007535934448,0,0,0.9937199950218201
0.206370227,0,0,1.3623007535934448,0,0,1.070159912109375
0.206705391,0,0,1.4245500564575195,0,0,0.9937199950218201
0.207038887,0,0,1.4245500564575195,0,0,0.9937199950218201
0.207370532,0,0,1.4245500564575195,0,0,0.611519992351532
0.207701695,0,0,1.4245500564575195,0,0,0.8408399820327759
0.208037266,0,0,1.4245500564575195,0,0,0.7644000053405762
0.2083683,0,0,1.4245500564575195,0,0,0.9937199950218201
0.20870387,0,0,1.4245500564575195,0,0,0.4586400091648102
0.209036885,0,0,1.5825673341751099,0,0,1.375920057296753
0.209368289,0,0,1.5825673341751099,0,0,1.223039984703064
0.209704841,0,0,1.5825673341751099,0,0,0.3822000026702881
0.210035097,0,0,1.5825673341751099,0,0,0.3822000026702881
0.210368224,0,0,1.5825673341751099,0,0,0.611519992351532
0.210704665,0,0,1.5825673341751099,0,0,1.1466000080108643
0.211035124,0,0,1.5825673341751099,0,0,0.4586400091648102
0.211373565,0,0,1.6041151285171509,0,0,1.6816799640655518
0.211701728,0,0,1.6041151285171509,0,0,0.3822000026702881
0.21203504,0,0,1.6041151285171509,0,0,0.4586400091648102
0.212370722,0,0,1.6041151285171509,0,0,1.6816799640655518
0.212716459,0,0,1.6041151285171509,0,0,1.758120059967041
0.213045456,0,0,1.6041151285171509,0,0,0.9172800183296204
0.213375378,0,0,1.6041151285171509,0,0,1.605239987373352
0.213701893,0,0,1.5849615335464478,0,0,0.9172800183296204
0.214035057,0,0,1.5849615335464478,0,0,0.152879998087883
0.214373979,0,0,1.5849615335464478,0,0,1.070159912109375
0.214707642,0,0,1.5849615335464478,0,0,0.9172800183296204
0.215046565,0,0,1.5849615335464478,0,0,0.9172800183296204
0.215375802,0,0,1.5849615335464478,0,0,1.223039984703064
0.215702243,0,0,1.5849615335464478,0,0,0.6879600286483765
0.216035073,0,0,1.6687586307525635,0,0,0.6879600286483765
0.216370366,0,0,1.6687586307525635,0,0,0.9172800183296204
0.216701529,0,0,1.6687586307525635,0,0,0.9937199950218201
0.217042341,0,0,1.6687586307525635,0,0,0.9937199950218201
0.217368967,0,0,1.6687586307525635,0,0,0.7644000053405762
0.217701741,0,0,1.6687586307525635,0,0,0.2293200045824051
0.218038016,0,0,1.6687586307525635,0,0,0.4586400091648102
0.218368327,0,0,1.4413094520568848,0,0,0.8408399820327759
0.218705157,0,0,1.4413094520568848,0,0,0.4586400091648102
0.219035154,0,0,1.4413094520568848,0,0,1.223039984703064
0.21936828,0,0,1.4413094520568848,0,0,1.070159912109375
0.219734313,0,0,1.4413094520568848,0,0,0.3822000026702881
0.220047606,0,0,1.4413094520568848,0,0,0.5350799560546875
0.220378158,0,0,1.4413094520568848,0,0,1.1466000080108643
0.220714359,0,0,1.4101848602294922,0,0,0.9937199950218201
0.221036967,0,0,1.4101848602294922,0,0,1.223039984703064
0.221368463,0,0,1.4101848602294922,0,0,0.8408399820327759
0.221707608,0,0,1.4101848602294922,0,0,0.9937199950218201
0.222039512,0,0,1.4101848602294922,0,0,1.223039984703064
0.222384268,0,0,1.4101848602294922,0,0,0.9937199950218201
0.22270682,0,0,1.4101848602294922,0,0,0.5350799560546875
0.223035594,0,0,1.3072341680526733,0,0,1.375920057296753
0.223368517,0,0,1.3072341680526733,0,0,1.6816799640655518
0.223703587,0,0,1.3072341680526733,0,0,2.06387996673584
0.224034991,0,0,1.3072341680526733,0,0,1.452359914779663
0.224372247,0,0,1.3072341680526733,0,0,0.152879998087883
0.224701818,0,0,1.3072341680526733,0,0,0.611519992351532
0.225035241,0,0,1.3072341680526733,0,0,0.305759996175766
0.225373533,0,0,1.3072341680526733,0,0,0.7644000053405762
0.225701826,0,0,1.2761094570159912,0,0,0.7644000053405762
0.226035027,0,0,1.2761094570159912,0,0,0.9937199950218201
0.226370208,0,0,1.2761094570159912,0,0,0.7644000053405762
0.226701835,0,0,1.2761094570159912,0,0,0.7644000053405762
0.227040757,0,0,1.2761094570159912,0,0,0.7644000053405762
0.227373717,0,0,1.2761094570159912,0,0,0.4586400091648102
0.227702065,0,0,1.2761094570159912,0,0,0.4586400091648102
0.228037117,0,0,1.3263877630233765,0,0,0.7644000053405762
0.228368299,0,0,1.3263877630233765,0,0,0.6879600286483765
0.228705092,0,0,1.3263877630233765,0,0,0.305759996175766
0.229035052,0,0,1.3263877630233765,0,0,0.7644000053405762
0.229368363,0,0,1.3263877630233765,0,0,0.9172800183296204
0.229703082,0,0,1.3263877630233765,0,0,0.152879998087883
0.230034893,0,0,1.3263877630233765,0,0,0
0.230371871,0,0,1.460463047027588,0,0,0.611519992351532
0.230701627,0,0,1.460463047027588,0,0,0.8408399820327759
0.231035216,0,0,1.460463047027588,0,0,0.611519992351532
0.231373639,0,0,1.460463047027588,0,0,0.9937199950218201
0.231701895,0,0,1.460463047027588,0,0,0.8408399820327759
0.232035132,0,0,1.460463047027588,0,0,1.070159912109375
0.23236811,0,0,1.460463047027588,0,0,0.9172800183296204
0.23270157,0,0,1.6831238269805908,0,0,0.8408399820327759
0.233038455,0,0,1.6831238269805908,0,0,0.305759996175766
0.233368322,0,0,1.6831238269805908,0,0,1.375920057296753
0.233701763,0,0,1.6831238269805908,0,0,1.1466000080108643
0.234036778,0,0,1.6831238269805908,0,0,0.2293200045824051
0.234368368,0,0,1.6831238269805908,0,0,0.8408399820327759
0.234707475,0,0,1.6831238269805908,0,0,0.5350799560546875
0.235035824,0,0,1.6543933153152466,0,0,2.2167599201202393
0.235368894,0,0,1.6543933153152466,0,0,2.522519826889038
0.235703595,0,0,1.6543933153152466,0,0,1.5288000106811523
0.236035369,0,0,1.6543933153152466,0,0,2.2932000160217285
0.236368773,0,0,1.6543933153152466,0,0,0.9937199950218201
0.23670177,0,0,1.6543933153152466,0,0,0.8408399820327759
0.237035303,0,0,1.6543933153152466,0,0,0.9172800183296204
0.237370263,0,0,1.6041151285171509,0,0,0.9172800183296204
0.237703982,0,0,1.6041151285171509,0,0,0.6879600286483765
0.2380387,0,0,1.6041151285171509,0,0,0.9937199950218201
0.238368716,0,0,1.6041151285171509,0,0,0.9172800183296204
0.238701638,0,0,1.6041151285171509,0,0,0.3822000026702881
0.239040375,0,0,1.6041151285171509,0,0,0.8408399820327759
0.239368391,0,0,1.6041151285171509,0,0,1.375920057296753
0.239701813,0,0,1.7405846118927002,0,0,0.6879600286483765
0.24003568,0,0,1.7405846118927002,0,0,0.2293200045824051
0.240368343,0,0,1.7405846118927002,0,0,0.611519992351532
0.240704951,0,0,1.7405846118927002,0,0,0.8408399820327759
0.241036299,0,0,1.7405846118927002,0,0,0.9172800183296204
0.241368555,0,0,1.7405846118927002,0,0,0.6879600286483765
0.241706515,0,0,1.7405846118927002,0,0,1.223039984703064
0.242035234,0,0,1.5514427423477173,0,0,0.611519992351532
0.242368471,0,0,1.5514427423477173,0,0,0.3822000026702881
0.242703597,0,0,1.5514427423477173,0,0,0.0764399990439415
0.243035094,0,0,1.5514427423477173,0,0,0.305759996175766
0.243374053,0,0,1.5514427423477173,0,0,0.7644000053405762
0.243701791,0,0,1.5514427423477173,0,0,0.4586400091648102
0.244035102,0,0,1.5514427423477173,0,0,0.3822000026702881
0.244370562,0,0,1.5514427423477173,0,0,0.4586400091648102
0.244701762,0,0,1.4628572463989258,0,0,0.3822000026702881
0.245035666,0,0,1.4628572463989258,0,0,0.305759996175766
0.245368459,0,0,1.4628572463989258,0,0,1.2994799613952637
0.2457019,0,0,1.4628572463989258,0,0,1.758120059967041
0.24603673,0,0,1.4628572463989258,0,0,0.3822000026702881
0.246368375,0,0,1.4628572463989258,0,0,1.375920057296753
0.246705279,0,0,1.4628572463989258,0,0,1.1466000080108643
0.24703509,0,0,1.3551181554794312,0,0,0.611519992351532
0.24736829,0,0,1.3551181554794312,0,0,0.9172800183296204
0.247701824,0,0,1.3551181554794312,0,0,0.7644000053405762
0.248037469,0,0,1.3551181554794312,0,0,0.8408399820327759
0.248368539,0,0,1.3551181554794312,0,0,0.7644000053405762
0.248703425,0,0,1.3551181554794312,0,0,0.5350799560546875
0.249034959,0,0,1.3551181554794312,0,0,0.6879600286483765
0.249368437,0,0,1.3024457693099976,0,0,1.223039984703064
0.2497051,0,0,1.3024457693099976,0,0,0.9172800183296204
0.250035226,0,0,1.3024457693099976,0,0,0
0.2503735,0,0,1.3024457693099976,0,0,0.0764399990439415
0.250709941,0,0,1.3024457693099976,0,0,1.1466000080108643
0.251035586,0,0,1.3024457693099976,0,0,0.9172800183296204
0.251369101,0,0,1.3024457693099976,0,0,0.8408399820327759
0.251701765,0,0,1.3287819623947144,0,0,0.4586400091648102
0.252037798,0,0,1.3287819623947144,0,0,0.4586400091648102
0.252368332,0,0,1.3287819623947144,0,0,0.9937199950218201
0.252701792,0,0,1.3287819623947144,0,0,0.2293200045824051
0.253036881,0,0,1.3287819623947144,0,0,0.3822000026702881
0.253368192,0,0,1.3287819623947144,0,0,0.8408399820327759
0.253707541,0,0,1.3287819623947144,0,0,1.070159912109375
0.254035093,0,0,1.4293384552001953,0,0,0.7644000053405762
0.254368386,0,0,1.4293384552001953,0,0,0.305759996175766
0.254703308,0,0,1.4293384552001953,0,0,0.5350799560546875
0.255034971,0,0,1.4293384552001953,0,0,0.3822000026702881
0.255368801,0,0,1.4293384552001953,0,0,0.2293200045824051
0.255701835,0,0,1.4293384552001953,0,0,0.305759996175766
0.256035128,0,0,1.4293384552001953,0,0,0
0.25637018,0,0,1.4293384552001953,0,0,0.2293200045824051
0.256701732,0,0,1.5514427423477173,0,0,0
0.257038747,0,0,1.5514427423477173,0,0,0.152879998087883
0.257367114,0,0,1.5514427423477173,0,0,1.5288000106811523
0.257700426,0,0,1.5514427423477173,0,0,1.605239987373352
0.2580387,0,0,1.5514427423477173,0,0,0.9172800183296204
0.258369437,0,0,1.5514427423477173,0,0,0.7644000053405762
0.258700619,0,0,1.5514427423477173,0,0,0.8408399820327759
0.259033245,0,0,1.5705963373184204,0,0,0.6879600286483765
0.259367057,0,0,1.5705963373184204,0,0,1.5288000106811523
0.259703646,0,0,1.5705963373184204,0,0,0.9172800183296204
0.260033902,0,0,1.5705963373184204,0,0,0.2293200045824051
0.260367121,0,0,1.5705963373184204,0,0,0.611519992351532
0.260702154,0,0,1.5705963373184204,0,0,0.8408399820327759
0.261035855,0,0,1.5705963373184204,0,0,1.070159912109375
0.261371925,0,0,1.5705963373184204,0,0,1.070159912109375
0.261701607,0,0,1.5705963373184204,0,0,0.6879600286483765
0.262035104,0,0,1.5705963373184204,0,0,0.8408399820327759
0.262368508,0,0,1.5705963373184204,0,0,0.9937199950218201
0.262701801,0,0,1.5705963373184204,0,0,0.6879600286483765
0.263037927,0,0,1.5705963373184204,0,0,0.4586400091648102
0.263368331,0,0,1.5705963373184204,0,0,0.7644000053405762
0.263702216,0,0,1.6687586307525635,0,0,1.070159912109375
0.264035268,0,0,1.6687586307525635,0,0,0.7644000053405762
0.264368228,0,0,1.6687586307525635,0,0,0.4586400091648102
0.264703484,0,0,1.6687586307525635,0,0,0.9937199950218201
0.265035388,0,0,1.6687586307525635,0,0,0.611519992351532
0.265371477,0,0,1.6687586307525635,0,0,0.7644000053405762
0.265701826,0,0,1.6687586307525635,0,0,0.8408399820327759
0.26603497,0,0,1.5298948287963867,0,0,0.5350799560546875
0.266370596,0,0,1.5298948287963867,0,0,0.4586400091648102
0.266701741,0,0,1.5298948287963867,0,0,0.611519992351532
0.267035182,0,0,1.5298948287963867,0,0,0
0.267370734,0,0,1.5298948287963867,0,0,0.5350799560546875
0.267701916,0,0,1.5298948287963867,0,0,-0.305759996175766
0.268037487,0,0,1.5298948287963867,0,0,0.2293200045824051
0.268368391,0,0,1.3766659498214722,0,0,-0.8408399820327759
0.268705499,0,0,1.3766659498214722,0,0,9.631440162658691
0.269035643,0,0,1.3766659498214722,0,0,0.305759996175766
0.269368455,0,0,1.3766659498214722,0,0,1.2994799613952637
0.269711248,0,0,1.3766659498214722,0,0,0.9172800183296204
0.270035596,0,0,1.3766659498214722,0,0,0.305759996175766
0.270371815,0,0,1.3766659498214722,0,0,0.0764399990439415
0.270701719,0,0,1.3766659498214722,0,0,0.7644000053405762
0.271034901,0,0,1.3862427473068237,0,0,1.070159912109375
0.27137312,0,0,1.3862427473068237,0,0,0.9172800183296204
0.271701709,0,0,1.3862427473068237,0,0,0.6879600286483765
0.272043742,0,0,1.3862427473068237,0,0,0.9172800183296204
0.27236872,0,0,1.3862427473068237,0,0,0.6879600286483765
0.272701643,0,0,1.3862427473068237,0,0,0.8408399820327759
0.273040491,0,0,1.3862427473068237,0,0,0.5350799560546875
0.273368303,0,0,1.3287819623947144,0,0,1.1466000080108643
0.273701559,0,0,1.3287819623947144,0,0,1.375920057296753
0.274035722,0,0,1.3287819623947144,0,0,1.375920057296753
0.2743682,0,0,1.3287819623947144,0,0,0.9172800183296204
0.274703548,0,0,1.3287819623947144,0,0,0.9937199950218201
0.27503499,0,0,1.3287819623947144,0,0,1.2994799613952637
0.275368319,0,0,1.3287819623947144,0,0,1.1466000080108643
0.275703612,0,0,1.3623007535934448,0,0,1.452359914779663
0.276034924,0,0,1.3623007535934448,0,0,0.3822000026702881
0.276372068,0,0,1.3623007535934448,0,0,0.5350799560546875
0.27670175,0,0,1.3623007535934448,0,0,0.611519992351532
0.277035228,0,0,1.3623007535934448,0,0,0.611519992351532
0.277369947,0,0,1.3623007535934448,0,0,1.5288000106811523
0.277701518,0,0,1.3623007535934448,0,0,0.6879600286483765
0.278038218,0,0,1.455674648284912,0,0,1.2994799613952637
0.278370733,0,0,1.455674648284912,0,0,0.5350799560546875
0.278701637,0,0,1.455674648284912,0,0,0.611519992351532
0.279038986,0,0,1.455674648284912,0,0,0.0764399990439415
0.279368464,0,0,1.455674648284912,0,0,-0.4586400091648102
0.279705294,0,0,1.455674648284912,0,0,9.402119636535645
0.28003505,0,0,1.455674648284912,0,0,0.2293200045824051
0.280368398,0,0,1.5682021379470825,0,0,0.152879998087883
0.280702395,0,0,1.5682021379470825,0,0,0.3822000026702881
0.281034669,0,0,1.5682021379470825,0,0,0.9172800183296204
0.28136861,0,0,1.5682021379470825,0,0,0.6879600286483765
0.281700533,0,0,1.5682021379470825,0,0,0.7644000053405762
0.282033788,0,0,1.5682021379470825,0,0,0.8408399820327759
0.282369433,0,0,1.5682021379470825,0,0,0.6879600286483765
0.282700356,0,0,1.5298948287963867,0,0,0.9172800183296204
0.283037186,0,0,1.5298948287963867,0,0,0.6879600286483765
0.28336696,0,0,1.5298948287963867,0,0,0.9172800183296204
0.283700605,0,0,1.5298948287963867,0,0,1.223039984703064
0.284038231,0,0,1.5298948287963867,0,0,0.6879600286483765
0.284366968,0,0,1.5298948287963867,0,0,0.7644000053405762
0.284700558,0,0,1.5298948287963867,0,0,0.9937199950218201
0.285035425,0,0,1.5298948287963867,0,0,0.7644000053405762
0.285367995,0,0,1.5107412338256836,0,0,1.1466000080108643
0.285706418,0,0,1.5107412338256836,0,0,1.452359914779663
0.286034822,0,0,1.5107412338256836,0,0,1.2994799613952637
0.286368004,0,0,1.5107412338256836,0,0,0.9937199950218201
0.286701815,0,0,1.5107412338256836,0,0,1.1466000080108643
0.287034626,0,0,1.5107412338256836,0,0,1.1466000080108643
0.287373271,0,0,1.5107412338256836,0,0,0.4586400091648102
0.287701582,0,0,1.6831238269805908,0,0,0.9172800183296204
0.288035486,0,0,1.6831238269805908,0,0,0.305759996175766
0.288369076,0,0,1.6831238269805908,0,0,1.070159912109375
0.288701332,0,0,1.6831238269805908,0,0,0.2293200045824051
0.289038865,0,0,1.6831238269805908,0,0,1.1466000080108643
0.289371251,0,0,1.6831238269805908,0,0,0
0.289702155,0,0,1.6831238269805908,0,0,0.305759996175766
0.290036762,0,0,1.5275006294250488,0,0,0.8408399820327759
0.290368278,0,0,1.5275006294250488,0,0,0.3822000026702881
0.290707515,0,0,1.5275006294250488,0,0,9.478560447692871
0.291034956,0,0,1.5275006294250488,0,0,1.1466000080108643
0.291368304,0,0,1.5275006294250488,0,0,0.9937199950218201
0.291703708,0,0,1.5275006294250488,0,0,0.6879600286483765
0.292034835,0,0,1.5275006294250488,0,0,0.8408399820327759
0.292371535,0,0,1.3718775510787964,0,0,0.611519992351532
0.29270155,0,0,1.3718775510787964,0,0,0.8408399820327759
0.293035232,0,0,1.3718775510787964,0,0,0.4586400091648102
0.293376876,0,0,1.3718775510787964,0,0,0.6879600286483765
0.293700947,0,0,1.3718775510787964,0,0,1.2994799613952637
0.294035351,0,0,1.3718775510787964,0,0,1.223039984703064
0.294367144,0,0,1.3718775510787964,0,0,0.9937199950218201
0.294700326,0,0,1.4532804489135742,0,0,0.6879600286483765
0.295035378,0,0,1.4532804489135742,0,0,0.9937199950218201
0.295366949,0,0,1.4532804489135742,0,0,1.223039984703064
0.295703612,0,0,1.4532804489135742,0,0,1.375920057296753
0.296033664,0,0,1.4532804489135742,0,0,1.605239987373352
0.296367087,0,0,1.4532804489135742,0,0,1.070159912109375
0.296703213,0,0,1.4532804489135742,0,0,0.611519992351532
0.297036024,0,0,1.4532804489135742,0,0,0.9172800183296204
0.29737141,0,0,1.316810965538025,0,0,1.223039984703064
0.297701425,0,0,1.316810965538025,0,0,1.070159912109375
0.298034607,0,0,1.316810965538025,0,0,1.452359914779663
0.298372677,0,0,1.316810965538025,0,0,0
0.298701433,0,0,1.316810965538025,0,0,1.070159912109375
0.299034522,0,0,1.316810965538025,0,0,0.8408399820327759
0.299368538,0,0,1.316810965538025,0,0,0.9937199950218201
0.299703812,0,0,1.3431471586227417,0,0,0.3822000026702881
0.300039531,0,0,1.3431471586227417,0,0,0.9937199950218201
0.300368212,0,0,1.3431471586227417,0,0,0.4586400091648102
0.300701228,0,0,1.3431471586227417,0,0,0
0.301035465,0,0,1.3431471586227417,0,0,-0.305759996175766
0.301368054,0,0,1.3431471586227417,0,0,0.2293200045824051
0.301704088,0,0,1.3431471586227417,0,0,0.7644000053405762
0.30203477,0,0,1.3886369466781616,0,0,0.611519992351532
0.302368229,0,0,1.3886369466781616,0,0,0.4586400091648102
0.3027033,0,0,1.3886369466781616,0,0,0.7644000053405762
0.303034722,0,0,1.3886369466781616,0,0,0.3822000026702881
0.303372108,0,0,1.3886369466781616,0,0,0.3822000026702881
0.303701308,0,0,1.3886369466781616,0,0,0.8408399820327759
0.304034675,0,0,1.3886369466781616,0,0,0.9172800183296204
0.304369875,0,0,1.4748282432556152,0,0,0.7644000053405762
0.304701131,0,0,1.4748282432556152,0,0,0.4586400091648102
0.305040831,0,0,1.4748282432556152,0,0,0.4586400091648102
0.305368013,0,0,1.4748282432556152,0,0,0.9172800183296204
0.305701306,0,0,1.4748282432556152,0,0,1.070159912109375
0.306036803,0,0,1.4748282432556152,0,0,0.9937199950218201
0.30636817,0,0,1.4748282432556152,0,0,1.1466000080108643
0.306704777,0,0,1.5610195398330688,0,0,0.611519992351532
0.307034737,0,0,1.5610195398330688,0,0,1.070159912109375
0.307368048,0,0,1.5610195398330688,0,0,0.8408399820327759
0.307704101,0,0,1.5610195398330688,0,0,1.1466000080108643
0.308034819,0,0,1.5610195398330688,0,0,0.9172800183296204
0.308368038,0,0,1.5610195398330688,0,0,0.7644000053405762
0.308701498,0,0,1.5610195398330688,0,0,1.223039984703064
0.309034809,0,0,1.5610195398330688,0,0,1.223039984703064
0.309372547,0,0,1.5634137392044067,0,0,0
0.309701691,0,0,1.5634137392044067,0,0,1.223039984703064
0.310061743,0,0,1.5634137392044067,0,0,0.9937199950218201
0.31037774,0,0,1.5634137392044067,0,0,0.4586400091648102
0.310703311,0,0,1.5634137392044067,0,0,0.9937199950218201
0.311040844,0,0,1.5634137392044067,0,0,1.2994799613952637
0.3113691,0,0,1.5634137392044067,0,0,1.605239987373352
0.311701801,0,0,1.7262194156646729,0,0,1.5288000106811523
0.312037205,0,0,1.7262194156646729,0,0,2.06387996673584
0.312368275,0,0,1.7262194156646729,0,0,0.305759996175766
0.312702216,0,0,1.7262194156646729,0,0,0
0.313035565,0,0,1.7262194156646729,0,0,0.7644000053405762
0.313368154,0,0,1.7262194156646729,0,0,0.9937199950218201
0.313703576,0,0,1.7262194156646729,0,0,0.9937199950218201
0.314034906,0,0,1.522712230682373,0,0,1.070159912109375
0.314371255,0,0,1.522712230682373,0,0,0.9172800183296204
0.314715288,0,0,1.522712230682373,0,0,0.611519992351532
0.315036007,0,0,1.522712230682373,0,0,0.611519992351532
0.315372059,0,0,1.522712230682373,0,0,0.9172800183296204
0.315701463,0,0,1.522712230682373,0,0,0.9937199950218201
0.316038516,0,0,1.522712230682373,0,0,0.6879600286483765
0.316370401,0,0,1.335964560508728,0,0,0.8408399820327759
0.316701472,0,0,1.335964560508728,0,0,0.611519992351532
0.317036913,0,0,1.335964560508728,0,0,0.6879600286483765
0.31736815,0,0,1.335964560508728,0,0,0.9172800183296204
0.317704665,0,0,1.335964560508728,0,0,1.223039984703064
0.318035032,0,0,1.335964560508728,0,0,0.3822000026702881
0.318368047,0,0,1.335964560508728,0,0,0.8408399820327759
0.318703211,0,0,1.3934253454208374,0,0,0.305759996175766
0.319035003,0,0,1.3934253454208374,0,0,0.9937199950218201
0.3193715,0,0,1.3934253454208374,0,0,0.9172800183296204
0.319701626,0,0,1.3934253454208374,0,0,0.7644000053405762
0.320038493,0,0,1.3934253454208374,0,0,1.375920057296753
0.320382212,0,0,1.3934253454208374,0,0,1.452359914779663
0.320705672,0,0,1.3934253454208374,0,0,-0.305759996175766
0.321064927,0,0,1.3934253454208374,0,0,0.2293200045824051
0.32139122,0,0,1.2617442607879639,0,0,1.9874399900436401
0.321717735,0,0,1.2617442607879639,0,0,1.6816799640655518
0.322060084,0,0,1.2617442607879639,0,0,0.611519992351532
0.322388414,0,0,1.2617442607879639,0,0,-0.5350799560546875
0.322713929,0,0,1.2617442607879639,0,0,1.2994799613952637
0.323036981,0,0,1.2617442607879639,0,0,1.9874399900436401
0.323371089,0,0,1.2617442607879639,0,0,0.9172800183296204
0.323702048,0,0,1.2952631711959839,0,0,1.758120059967041
0.324038304,0,0,1.2952631711959839,0,0,0.8408399820327759
0.324370597,0,0,1.2952631711959839,0,0,0.9937199950218201
0.324701538,0,0,1.2952631711959839,0,0,0.5350799560546875
0.325039887,0,0,1.2952631711959839,0,0,0.6879600286483765
0.325368309,0,0,1.2952631711959839,0,0,0.9937199950218201
0.325701454,0,0,1.3048399686813354,0,0,0.9937199950218201
0.326034673,0,0,1.3048399686813354,0,0,0.9172800183296204
0.326368392,0,0,1.3048399686813354,0,0,0.8408399820327759
0.326705092,0,0,1.3048399686813354,0,0,0.9937199950218201
0.327035107,0,0,1.3048399686813354,0,0,0.8408399820327759
0.327368104,0,0,1.3048399686813354,0,0,0.611519992351532
0.327703859,0,0,1.3048399686813354,0,0,0.5350799560546875
0.328034912,0,0,1.3048399686813354,0,0,0.4586400091648102
0.328372334,0,0,1.5322890281677246,0,0,0.6879600286483765
0.328701701,0,0,1.5322890281677246,0,0,0.3822000026702881
0.329035142,0,0,1.5322890281677246,0,0,0.4586400091648102
0.329370435,0,0,1.5322890281677246,0,0,0.9172800183296204
0.329701746,0,0,1.5322890281677246,0,0,0
0.330038299,0,0,1.5322890281677246,0,0,0.9172800183296204
0.330368425,0,0,1.5322890281677246,0,0,0.9172800183296204
0.33070644,0,0,1.5131354331970215,0,0,0.4586400091648102
0.331037825,0,0,1.5131354331970215,0,0,-0.2293200045824051
0.331368322,0,0,1.5131354331970215,0,0,1.1466000080108643
0.33170417,0,0,1.5131354331970215,0,0,1.223039984703064
0.332035167,0,0,1.5131354331970215,0,0,1.1466000080108643
0.332368201,0,0,1.5131354331970215,0,0,0.6879600286483765
0.332704864,0,0,1.5131354331970215,0,0,0.152879998087883
0.333034935,0,0,1.4676456451416016,0,0,1.1466000080108643
0.33336832,0,0,1.4676456451416016,0,0,1.8345600366592407
0.333704576,0,0,1.4676456451416016,0,0,0
0.334034795,0,0,1.4676456451416016,0,0,2.06387996673584
0.334373551,0,0,1.4676456451416016,0,0,1.9874399900436401
0.334701677,0,0,1.4676456451416016,0,0,2.2932000160217285
0.335034859,0,0,1.4676456451416016,0,0,0.9172800183296204
0.335368966,0,0,1.6759412288665771,0,0,0.9937199950218201
0.335701685,0,0,1.6759412288665771,0,0,0.9937199950218201
0.336056348,0,0,1.6759412288665771,0,0,0.8408399820327759
0.336368715,0,0,1.6759412288665771,0,0,0.9172800183296204
0.336701527,0,0,1.6759412288665771,0,0,0.8408399820327759
0.337037042,0,0,1.6759412288665771,0,0,0.9937199950218201
0.337368261,0,0,1.6759412288665771,0,0,0.7644000053405762
0.337705017,0,0,1.4987702369689941,0,0,0.9172800183296204
0.338037106,0,0,1.4987702369689941,0,0,0.9937199950218201
0.338368269,0,0,1.4987702369689941,0,0,0.611519992351532
0.338703543,0,0,1.4987702369689941,0,0,0.6879600286483765
0.33903504,0,0,1.4987702369689941,0,0,0.6879600286483765
0.339370926,0,0,1.4987702369689941,0,0,0.5350799560546875
0.339701552,0,0,1.4987702369689941,0,0,0.6879600286483765
0.340034789,0,0,1.3527239561080933,0,0,0.7644000053405762
0.340372434,0,0,1.3527239561080933,0,0,1.605239987373352
0.340701597,0,0,1.3527239561080933,0,0,0.2293200045824051
0.341041149,0,0,1.3527239561080933,0,0,-0.2293200045824051
0.341368535,0,0,1.3527239561080933,0,0,0.152879998087883
0.341798197,0,0,1.3527239561080933,0,0,0.611519992351532
0.342042232,0,0,1.3527239561080933,0,0,0.8408399820327759
0.342368358,0,0,1.3407529592514038,0,0,0.2293200045824051
0.34270154,0,0,1.3407529592514038,0,0,0.3822000026702881
0.343036814,0,0,1.3407529592514038,0,0,0.152879998087883
0.343368348,0,0,1.3407529592514038,0,0,1.375920057296753
0.343706363,0,0,1.3407529592514038,0,0,-0.2293200045824051
0.344034841,0,0,1.3407529592514038,0,0,1.452359914779663
0.344368245,0,0,1.3407529592514038,0,0,1.5288000106811523
0.344703593,0,0,1.2186486721038818,0,0,0.3822000026702881
0.345035053,0,0,1.2186486721038818,0,0,1.223039984703064
0.345368494,0,0,1.2186486721038818,0,0,1.070159912109375
0.34570162,0,0,1.2186486721038818,0,0,1.8345600366592407
0.346034821,0,0,1.2186486721038818,0,0,1.1466000080108643
0.346370021,0,0,1.2186486721038818,0,0,1.2994799613952637
0.346701499,0,0,1.2186486721038818,0,0,1.223039984703064
0.347034884,0,0,1.2186486721038818,0,0,0.611519992351532
0.347371751,0,0,1.2880805730819702,0,0,0.5350799560546875
0.347701322,0,0,1.2880805730819702,0,0,0.9172800183296204
0.34804017,0,0,1.2880805730819702,0,0,0.9172800183296204
0.348368278,0,0,1.2880805730819702,0,0,0.8408399820327759
0.34870159,0,0,1.2880805730819702,0,0,0.6879600286483765
0.349034753,0,0,1.2880805730819702,0,0,0.9172800183296204
0.349373157,0,0,1.2880805730819702,0,0,0.7644000053405762
0.349708227,0,0,1.357512354850769,0,0,0.611519992351532
0.350034946,0,0,1.357512354850769,0,0,0.9937199950218201
0.350368165,0,0,1.357512354850769,0,0,1.5288000106811523
0.350703791,0,0,1.357512354850769,0,0,0.611519992351532
0.351034992,0,0,1.357512354850769,0,0,0
0.351374285,0,0,1.357512354850769,0,0,0.611519992351532
0.351701855,0,0,1.357512354850769,0,0,1.1466000080108643
0.352034778,0,0,1.5298948287963867,0,0,0.6879600286483765
0.352371404,0,0,1.5298948287963867,0,0,0.3822000026702881
0.352700271,0,0,1.5298948287963867,0,0,0.152879998087883
0.353039619,0,0,1.5298948287963867,0,0,0.2293200045824051
0.353368505,0,0,1.5298948287963867,0,0,0.305759996175766
0.353701594,0,0,1.5298948287963867,0,0,0.152879998087883
0.354040128,0,0,1.5298948287963867,0,0,1.2994799613952637
0.354368217,0,0,1.5897499322891235,0,0,0.8408399820327759
0.354701658,0,0,1.5897499322891235,0,0,0.611519992351532
0.355035192,0,0,1.5897499322891235,0,0,0.611519992351532
0.35536817,0,0,1.5897499322891235,0,0,1.375920057296753
0.355704092,0,0,1.5897499322891235,0,0,1.605239987373352
0.356034941,0,0,1.5897499322891235,0,0,1.9109998941421509
0.356368067,0,0,1.5897499322891235,0,0,1.605239987373352
0.356703341,0,0,1.525106430053711,0,0,1.070159912109375
0.35703519,0,0,1.525106430053711,0,0,0.6879600286483765
0.357374149,0,0,1.525106430053711,0,0,0.7644000053405762
0.357701553,0,0,1.525106430053711,0,0,0.9937199950218201
0.358034846,0,0,1.525106430053711,0,0,0.8408399820327759
0.358370621,0,0,1.525106430053711,0,0,0.9172800183296204
0.358701525,0,0,1.525106430053711,0,0,0.7644000053405762
0.359035317,0,0,1.6759412288665771,0,0,0.9937199950218201
0.359368184,0,0,1.6759412288665771,0,0,0.9937199950218201
0.359701663,0,0,1.6759412288665771,0,0,0.611519992351532
0.360037918,0,0,1.6759412288665771,0,0,0.611519992351532
0.360368119,0,0,1.6759412288665771,0,0,1.605239987373352
0.360705004,0,0,1.6759412288665771,0,0,0.611519992351532
0.361035056,0,0,1.6759412288665771,0,0,0.0764399990439415
0.361368238,0,0,1.6759412288665771,0,0,0.305759996175766
0.361709346,0,0,1.6759412288665771,0,0,0.9172800183296204
0.362035398,0,0,1.6759412288665771,0,0,0.9172800183296204
0.362368117,0,0,1.6759412288665771,0,0,0.611519992351532
0.36270115,0,0,1.6759412288665771,0,0,0.7644000053405762
0.363034906,0,0,1.6759412288665771,0,0,0.9172800183296204
0.36337157,0,0,1.6759412288665771,0,0,1.070159912109375
0.363701529,0,0,1.6759412288665771,0,0,0.611519992351532
0.364034803,0,0,1.403002142906189,0,0,0.152879998087883
0.364370041,0,0,1.403002142906189,0,0,0.9172800183296204
0.36470163,0,0,1.403002142906189,0,0,0.305759996175766
0.365041034,0,0,1.403002142906189,0,0,1.223039984703064
0.36536842,0,0,1.403002142906189,0,0,0
0.365701509,0,0,1.403002142906189,0,0,0
0.36603695,0,0,1.403002142906189,0,0,0.7644000053405762
0.366368113,0,0,1.4101848602294922,0,0,0.152879998087883
0.366701869,0,0,1.4101848602294922,0,0,0.305759996175766
0.367035014,0,0,1.4101848602294922,0,0,0
0.367368269,0,0,1.4101848602294922,0,0,1.1466000080108643
0.367703451,0,0,1.4101848602294922,0,0,0.611519992351532
0.368034966,0,0,1.4101848602294922,0,0,0.7644000053405762
0.368368167,0,0,1.4101848602294922,0,0,0.8408399820327759
0.368704552,0,0,1.280897855758667,0,0,0.611519992351532
0.369035123,0,0,1.280897855758667,0,0,0.6879600286483765
0.369369582,0,0,1.280897855758667,0,0,0.6879600286483765
0.369701523,0,0,1.280897855758667,0,0,0.9172800183296204
0.370034964,0,0,1.280897855758667,0,0,0.611519992351532
0.370370017,0,0,1.280897855758667,0,0,1.375920057296753
0.370701439,0,0,1.280897855758667,0,0,1.1466000080108643
0.371038454,0,0,1.3096283674240112,0,0,0
0.371368266,0,0,1.3096283674240112,0,0,0.4586400091648102
0.371701596,0,0,1.3096283674240112,0,0,0.9172800183296204
0.372041722,0,0,1.3096283674240112,0,0,0.8408399820327759
0.372368237,0,0,1.3096283674240112,0,0,0.8408399820327759
0.372701585,0,0,1.3096283674240112,0,0,0.6879600286483765
0.37303586,0,0,1.3096283674240112,0,0,0.9937199950218201
0.373368079,0,0,1.2952631711959839,0,0,0.5350799560546875
0.373704149,0,0,1.2952631711959839,0,0,0.7644000053405762
0.37403485,0,0,1.2952631711959839,0,0,0.3822000026702881
0.37436818,0,0,1.2952631711959839,0,0,0.9172800183296204
0.374706491,0,0,1.2952631711959839,0,0,1.375920057296753
0.375034895,0,0,1.2952631711959839,0,0,0.7644000053405762
0.37537441,0,0,1.2952631711959839,0,0,1.070159912109375
0.375701629,0,0,1.2952631711959839,0,0,0.611519992351532
0.376034848,0,0,1.414973258972168,0,0,0.6879600286483765
0.376370307,0,0,1.414973258972168,0,0,0.8408399820327759
0.376701526,0,0,1.414973258972168,0,0,0.7644000053405762
0.3770363,0,0,1.414973258972168,0,0,-0.2293200045824051
0.377368167,0,0,1.414973258972168,0,0,-0.2293200045824051
0.377701497,0,0,1.414973258972168,0,0,-0.2293200045824051
0.378037938,0,0,1.414973258972168,0,0,0
0.378368194,0,0,1.53707754611969,0,0,9.402119636535645
0.378704783,0,0,1.53707754611969,0,0,0.6879600286483765
0.379035113,0,0,1.53707754611969,0,0,0.6879600286483765
0.379368073,0,0,1.53707754611969,0,0,0.5350799560546875
0.379706866,0,0,1.53707754611969,0,0,0.7644000053405762
0.380034862,0,0,1.53707754611969,0,0,0.4586400091648102
0.38036797,0,0,1.53707754611969,0,0,1.223039984703064
0.380701411,0,0,1.4437036514282227,0,0,1.223039984703064
0.381035056,0,0,1.4437036514282227,0,0,0.5350799560546875
0.381370756,0,0,1.4437036514282227,0,0,0
0.381701586,0,0,1.4437036514282227,0,0,0.8408399820327759
0.382034749,0,0,1.4437036514282227,0,0,1.070159912109375
0.382372246,0,0,1.4437036514282227,0,0,0.9937199950218201
0.382701669,0,0,1.4437036514282227,0,0,0.8408399820327759
0.383047832,0,0,1.6519991159439087,0,0,0.9172800183296204
0.383368532,0,0,1.6519991159439087,0,0,1.1466000080108643
0.383701732,0,0,1.6519991159439087,0,0,0.9937199950218201
0.384036896,0,0,1.6519991159439087,0,0,0.611519992351532
0.384368096,0,0,1.6519991159439087,0,0,1.223039984703064
0.38470187,0,0,1.6519991159439087,0,0,1.5288000106811523
0.385035015,0,0,1.6519991159439087,0,0,1.2994799613952637
0.385368123,0,0,1.6041151285171509,0,0,0.7644000053405762
0.385703064,0,0,1.6041151285171509,0,0,1.2994799613952637
0.386034783,0,0,1.6041151285171509,0,0,0.5350799560546875
0.386371594,0,0,1.6041151285171509,0,0,0.4586400091648102
0.386701517,0,0,1.6041151285171509,0,0,0.5350799560546875
0.387034772,0,0,1.6041151285171509,0,0,0.5350799560546875
0.387372862,0,0,1.6041151285171509,0,0,1.758120059967041
0.387701525,0,0,1.4173674583435059,0,0,0.3822000026702881
0.388035151,0,0,1.4173674583435059,0,0,0.2293200045824051
0.388375851,0,0,1.4173674583435059,0,0,1.223039984703064
0.388702552,0,0,1.4173674583435059,0,0,0.5350799560546875
0.389038419,0,0,1.4173674583435059,0,0,0.0764399990439415
0.389368138,0,0,1.4173674583435059,0,0,0
0.389701412,0,0,1.4173674583435059,0,0,0.7644000053405762
0.390040557,0,0,1.4173674583435059,0,0,0.305759996175766
0.390368294,0,0,1.3862427473068237,0,0,0.8408399820327759
0.390701346,0,0,1.3862427473068237,0,0,1.375920057296753
0.391034806,0,0,1.3862427473068237,0,0,0.4586400091648102
0.391367932,0,0,1.3862427473068237,0,0,0
0.391704743,0,0,1.3862427473068237,0,0,0.4586400091648102
0.392034721,0,0,1.3862427473068237,0,0,0.9172800183296204
0.392368144,0,0,1.3862427473068237,0,0,0.8408399820327759
0.392706289,0,0,1.2330138683319092,0,0,0.305759996175766
0.393035026,0,0,1.2330138683319092,0,0,1.070159912109375
0.39337393,0,0,1.2330138683319092,0,0,0.9172800183296204
0.393701519,0,0,1.2330138683319092,0,0,1.070159912109375
0.394034553,0,0,1.2330138683319092,0,0,0.9172800183296204
0.394370012,0,0,1.2330138683319092,0,0,0.305759996175766
0.394701565,0,0,1.2330138683319092,0,0,0.9937199950218201
0.395035024,0,0,1.2617442607879639,0,0,0.9172800183296204
0.395368113,0,0,1.2617442607879639,0,0,0.6879600286483765
0.395701591,0,0,1.2617442607879639,0,0,0.8408399820327759
0.396036569,0,0,1.2617442607879639,0,0,0.9937199950218201
0.396368029,0,0,1.2617442607879639,0,0,1.375920057296753
0.396704933,0,0,1.2617442607879639,0,0,1.6816799640655518
0.397034856,0,0,1.2617442607879639,0,0,1.452359914779663
0.397368074,0,0,1.381454348564148,0,0,1.375920057296753
0.397706108,0,0,1.381454348564148,0,0,0.2293200045824051
0.398034771,0,0,1.381454348564148,0,0,1.5288000106811523
0.398368083,0,0,1.381454348564148,0,0,1.2994799613952637
0.398702246,0,0,1.381454348564148,0,0,1.758120059967041
0.399034687,0,0,1.381454348564148,0,0,0.152879998087883
0.399370776,0,0,1.381454348564148,0,0,1.1466000080108643
0.399701328,0,0,1.4772224426269531,0,0,0.0764399990439415
0.400035029,0,0,1.4772224426269531,0,0,0.3822000026702881
0.40036997,0,0,1.4772224426269531,0,0,1.8345600366592407
0.400701244,0,0,1.4772224426269531,0,0,1.2994799613952637
0.401040981,0,0,1.4772224426269531,0,0,0.305759996175766
0.401367867,0,0,1.4772224426269531,0,0,0
0.401701549,0,0,1.4772224426269531,0,0,0.9937199950218201
0.402036601,0,0,1.4772224426269531,0,0,0.9172800183296204
0.402368023,0,0,1.4460978507995605,0,0,0.9937199950218201
0.402701909,0,0,1.4460978507995605,0,0,0.5350799560546875
0.403037091,0,0,1.4460978507995605,0,0,0.7644000053405762
0.403368309,0,0,1.4460978507995605,0,0,0.7644000053405762
0.403703436,0,0,1.4460978507995605,0,0,0.9937199950218201
0.404034617,0,0,1.4460978507995605,0,0,0.5350799560546875
0.404371336,0,0,1.4460978507995605,0,0,0.6879600286483765
0.404701463,0,0,1.5298948287963867,0,0,0.8408399820327759
0.405035996,0,0,1.5298948287963867,0,0,0.9937199950218201
0.405373585,0,0,1.5298948287963867,0,0,0.8408399820327759
0.405701397,0,0,1.5298948287963867,0,0,0.4586400091648102
0.406034893,0,0,1.5298948287963867,0,0,0.7644000053405762
0.406368612,0,0,1.5298948287963867,0,0,0.6879600286483765
0.406701424,0,0,1.5298948287963867,0,0,1.2994799613952637
0.407038161,0,0,1.644816517829895,0,0,0.611519992351532
0.407368232,0,0,1.644816517829895,0,0,1.070159912109375
0.407701487,0,0,1.644816517829895,0,0,0.9937199950218201
0.408036669,0,0,1.644816517829895,0,0,0.305759996175766
0.40836811,0,0,1.644816517829895,0,0,1.1466000080108643
0.408707255,0,0,1.644816517829895,0,0,0.0764399990439415
0.409034937,0,0,1.644816517829895,0,0,0.9172800183296204
0.409368156,0,0,1.6831238269805908,0,0,1.223039984703064
0.409703726,0,0,1.6831238269805908,0,0,1.2994799613952637
0.410034741,0,0,1.6831238269805908,0,0,1.9109998941421509
0.410369145,0,0,1.6831238269805908,0,0,1.758120059967041
0.410701512,0,0,1.6831238269805908,0,0,1.605239987373352
0.411034787,0,0,1.6831238269805908,0,0,2.9811599254608154
0.411370024,0,0,1.6831238269805908,0,0,1.223039984703064
0.411701484,0,0,1.4269442558288574,0,0,0.4586400091648102
0.412034665,0,0,1.4269442558288574,0,0,0.6879600286483765
0.41237131,0,0,1.4269442558288574,0,0,0.9172800183296204
0.412701399,0,0,1.4269442558288574,0,0,0.7644000053405762
0.413040377,0,0,1.4269442558288574,0,0,1.070159912109375
0.413370485,0,0,1.4269442558288574,0,0,0.6879600286483765
0.41370163,0,0,1.4269442558288574,0,0,0.611519992351532
0.414035423,0,0,1.4077905416488647,0,0,0.8408399820327759
0.414368123,0,0,1.4077905416488647,0,0,0.5350799560546875
0.414704879,0,0,1.4077905416488647,0,0,0.9937199950218201
0.415034894,0,0,1.4077905416488647,0,0,1.070159912109375
0.415368057,0,0,1.4077905416488647,0,0,0.9937199950218201
0.415703443,0,0,1.4077905416488647,0,0,0.611519992351532
0.416034736,0,0,1.4077905416488647,0,0,0.9172800183296204
0.416371269,0,0,1.4077905416488647,0,0,1.070159912109375
0.416704192,0,0,1.2545616626739502,0,0,0.9172800183296204
0.417035133,0,0,1.2545616626739502,0,0,0.8408399820327759
0.417370481,0,0,1.2545616626739502,0,0,0.5350799560546875
0.417701497,0,0,1.2545616626739502,0,0,0.3822000026702881
0.418035197,0,0,1.2545616626739502,0,0,0.2293200045824051
0.418368175,0,0,1.2545616626739502,0,0,0.152879998087883
0.418701542,0,0,1.2545616626739502,0,0,0.4586400091648102
0.419036631,0,0,1.235408067703247,0,0,0.5350799560546875
0.419368017,0,0,1.235408067703247,0,0,0.3822000026702881
0.419705143,0,0,1.235408067703247,0,0,0
0.420034769,0,0,1.235408067703247,0,0,0.8408399820327759
0.420367932,0,0,1.235408067703247,0,0,0.9172800183296204
0.420706892,0,0,1.235408067703247,0,0,0.611519992351532
0.421036537,0,0,1.235408067703247,0,0,0.4586400091648102
0.421385329,0,0,1.290474772453308,0,0,1.9109998941421509
0.421726881,0,0,1.290474772453308,0,0,0.305759996175766
0.422054526,0,0,1.290474772453308,0,0,0.2293200045824051
0.422380856,0,0,1.290474772453308,0,0,0.9172800183296204
0.42272289,0,0,1.290474772453308,0,0,0.9172800183296204
0.423052183,0,0,1.290474772453308,0,0,0.305759996175766
0.423389309,0,0,1.290474772453308,0,0,0.611519992351532
0.423710824,0,0,1.455674648284912,0,0,0.9172800183296204
0.424035636,0,0,1.455674648284912,0,0,1.070159912109375
0.424378354,0,0,1.455674648284912,0,0,0.611519992351532
0.424717277,0,0,1.455674648284912,0,0,1.070159912109375
0.425047459,0,0,1.455674648284912,0,0,1.070159912109375
0.425374918,0,0,1.455674648284912,0,0,0.8408399820327759
0.425708119,0,0,1.455674648284912,0,0,1.070159912109375
0.426035411,0,0,1.5753847360610962,0,0,0.5350799560546875
0.426368241,0,0,1.5753847360610962,0,0,0.9172800183296204
0.426703368,0,0,1.5753847360610962,0,0,1.375920057296753
0.427035235,0,0,1.5753847360610962,0,0,0.9172800183296204
0.427371639,0,0,1.5753847360610962,0,0,0.611519992351532
0.427701691,0,0,1.5753847360610962,0,0,0.611519992351532
0.428034798,0,0,1.5753847360610962,0,0,0.6879600286483765
0.428371369,0,0,1.5753847360610962,0,0,1.070159912109375
0.42870131,0,0,1.6041151285171509,0,0,0.4586400091648102
0.429035214,0,0,1.6041151285171509,0,0,0.6879600286483765
0.429374303,0,0,1.6041151285171509,0,0,1.070159912109375
0.429702152,0,0,1.6041151285171509,0,0,0.2293200045824051
0.430035204,0,0,1.6041151285171509,0,0,0.5350799560546875
0.430368367,0,0,1.6041151285171509,0,0,0.4586400091648102
0.430701493,0,0,1.6041151285171509,0,0,-29.582279205322266
0.43103699,0,0,1.6639702320098877,0,0,0.7644000053405762
0.431368524,0,0,1.6639702320098877,0,0,0
0.431704891,0,0,1.6639702320098877,0,0,-0.3822000026702881
0.432034739,0,0,1.6639702320098877,0,0,-0.4586400091648102
0.432368421,0,0,1.6639702320098877,0,0,0.2293200045824051
0.432706658,0,0,1.6639702320098877,0,0,1.375920057296753
0.433035433,0,0,1.6639702320098877,0,0,0
0.433368263,0,0,1.6208745241165161,0,0,0.611519992351532
0.433704574,0,0,1.6208745241165161,0,0,0.8408399820327759
0.434039404,0,0,1.6208745241165161,0,0,0.8408399820327759
0.434368438,0,0,1.6208745241165161,0,0,0.4586400091648102
0.434705082,0,0,1.6208745241165161,0,0,0.9172800183296204
0.43503482,0,0,1.6208745241165161,0,0,1.223039984703064
0.435373761,0,0,1.6208745241165161,0,0,0.7644000053405762
0.435701813,0,0,1.3623007535934448,0,0,0.9172800183296204
0.436034846,0,0,1.3623007535934448,0,0,0.9172800183296204
0.436367899,0,0,1.3623007535934448,0,0,1.1466000080108643
0.436701599,0,0,1.3623007535934448,0,0,1.1466000080108643
0.437038429,0,0,1.3623007535934448,0,0,0.9172800183296204
0.43736824,0,0,1.3623007535934448,0,0,1.070159912109375
0.437701718,0,0,1.3623007535934448,0,0,1.223039984703064
0.438036622,0,0,1.403002142906189,0,0,0.9937199950218201
0.438368119,0,0,1.403002142906189,0,0,1.2994799613952637
0.438705097,0,0,1.403002142906189,0,0,1.375920057296753
0.439037371,0,0,1.403002142906189,0,0,0.9937199950218201
0.43936809,0,0,1.403002142906189,0,0,0.9172800183296204
0.439703994,0,0,1.403002142906189,0,0,0.4586400091648102
0.440054639,0,0,1.403002142906189,0,0,0.611519992351532
0.44036945,0,0,1.3263877630233765,0,0,1.070159912109375
0.440701743,0,0,1.3263877630233765,0,0,0
0.441045425,0,0,1.3263877630233765,0,0,0.2293200045824051
0.441394921,0,0,1.3263877630233765,0,0,1.070159912109375
0.441717733,0,0,1.3263877630233765,0,0,0.8408399820327759
0.442053304,0,0,1.3263877630233765,0,0,0
0.442391245,0,0,1.3263877630233765,0,0,0
0.442711797,0,0,1.3263877630233765,0,0,0
0.443036775,0,0,1.4197616577148438,0,0,0.305759996175766
0.443370105,0,0,1.4197616577148438,0,0,0
0.443709027,0,0,1.4197616577148438,0,0,1.1466000080108643
0.444056728,0,0,1.4197616577148438,0,0,0.611519992351532
0.444382835,0,0,1.4197616577148438,0,0,0.3822000026702881
0.444702165,0,0,1.4197616577148438,0,0,0.6879600286483765
0.445035218,0,0,1.4197616577148438,0,0,0.9937199950218201
0.445368936,0,0,1.436521053314209,0,0,0.7644000053405762
0.445701544,0,0,1.436521053314209,0,0,0.6879600286483765
0.446037041,0,0,1.436521053314209,0,0,0.611519992351532
0.446368167,0,0,1.436521053314209,0,0,0.9172800183296204
0.446701478,0,0,1.436521053314209,0,0,0.9937199950218201
0.447036827,0,0,1.436521053314209,0,0,1.070159912109375
0.447368212,0,0,1.436521053314209,0,0,1.1466000080108643
0.447701783,0,0,1.45806884765625,0,0,0.9937199950218201
0.448034891,0,0,1.45806884765625,0,0,0.9172800183296204
0.448368054,0,0,1.45806884765625,0,0,0.9937199950218201
0.448703291,0,0,1.45806884765625,0,0,0.9937199950218201
0.44903514,0,0,1.45806884765625,0,0,1.070159912109375
0.449371655,0,0,1.45806884765625,0,0,0.9937199950218201
0.449701726,0,0,1.45806884765625,0,0,0.5350799560546875
0.450034833,0,0,1.5921441316604614,0,0,0.6879600286483765
0.450373237,0,0,1.5921441316604614,0,0,0.611519992351532
0.450701438,0,0,1.5921441316604614,0,0,0.6879600286483765
0.45103486,0,0,1.5921441316604614,0,0,1.2994799613952637
0.451369005,0,0,1.5921441316604614,0,0,1.452359914779663
0.451701464,0,0,1.5921441316604614,0,0,0.9172800183296204
0.452038387,0,0,1.5921441316604614,0,0,0.5350799560546875
0.452368365,0,0,1.644816517829895,0,0,1.452359914779663
0.452701306,0,0,1.644816517829895,0,0,1.5288000106811523
0.453037062,0,0,1.644816517829895,0,0,1.8345600366592407
0.453368207,0,0,1.644816517829895,0,0,1.375920057296753
0.453707296,0,0,1.644816517829895,0,0,0.5350799560546875
0.454034755,0,0,1.644816517829895,0,0,0.3822000026702881
0.454377493,0,0,1.644816517829895,0,0,9.172800064086914
0.454729656,0,0,1.644816517829895,0,0,0.4586400091648102
0.455047578,0,0,1.644816517829895,0,0,1.070159912109375
0.455382464,0,0,1.644816517829895,0,0,1.070159912109375
0.455716923,0,0,1.644816517829895,0,0,0.8408399820327759
0.456053179,0,0,1.644816517829895,0,0,0.6879600286483765
0.456389379,0,0,1.644816517829895,0,0,0.7644000053405762
0.456731543,0,0,1.644816517829895,0,0,1.223039984703064
0.457051965,0,0,1.644816517829895,0,0,1.223039984703064
0.457376258,0,0,1.599326729774475,0,0,1.070159912109375
0.457708829,0,0,1.599326729774475,0,0,0.9172800183296204
0.45805114,0,0,1.599326729774475,0,0,0.7644000053405762
0.458389137,0,0,1.599326729774475,0,0,0.9937199950218201
0.458724374,0,0,1.599326729774475,0,0,1.070159912109375
0.45904476,0,0,1.599326729774475,0,0,0.611519992351532
0.459383108,0,0,1.599326729774475,0,0,0.8408399820327759
0.459710401,0,0,1.4389152526855469,0,0,0.9172800183296204
0.460044861,0,0,1.4389152526855469,0,0,0.7644000053405762
0.460382339,0,0,1.4389152526855469,0,0,0.9172800183296204
0.460703854,0,0,1.4389152526855469,0,0,0.305759996175766
0.461035499,0,0,1.4389152526855469,0,0,0.2293200045824051
0.461369347,0,0,1.4389152526855469,0,0,0.9937199950218201
0.461701529,0,0,1.4389152526855469,0,0,0.8408399820327759
0.462037822,0,0,1.403002142906189,0,0,0.4586400091648102
0.462371596,0,0,1.403002142906189,0,0,-0.152879998087883
0.462706852,0,0,1.403002142906189,0,0,0.5350799560546875
0.463043034,0,0,1.403002142906189,0,0,0.7644000053405762
0.463381678,0,0,1.403002142906189,0,0,0.6879600286483765
0.463707768,0,0,1.403002142906189,0,0,0.0764399990439415
0.464040561,0,0,1.403002142906189,0,0,0.611519992351532
0.464370705,0,0,1.3263877630233765,0,0,1.375920057296753
0.464704739,0,0,1.3263877630233765,0,0,0.305759996175766
0.465041384,0,0,1.3263877630233765,0,0,0.8408399820327759
0.465374121,0,0,1.3263877630233765,0,0,1.6816799640655518
0.465709895,0,0,1.3263877630233765,0,0,0.611519992351532
0.466044225,0,0,1.3263877630233765,0,0,1.070159912109375
0.466368315,0,0,1.3263877630233765,0,0,0.4586400091648102
0.46670333,0,0,1.3263877630233765,0,0,1.375920057296753
0.46703503,0,0,1.3263877630233765,0,0,1.2994799613952637
0.46736949,0,0,1.3263877630233765,0,0,0.8408399820327759
0.467701634,0,0,1.3263877630233765,0,0,0.9172800183296204
0.468034853,0,0,1.3263877630233765,0,0,0.7644000053405762
0.468372239,0,0,1.3263877630233765,0,0,0.6879600286483765
0.468701532,0,0,1.3263877630233765,0,0,0.611519992351532
0.469035639,0,0,1.3263877630233765,0,0,0.9172800183296204
0.469369506,0,0,1.3407529592514038,0,0,0.8408399820327759
0.46970317,0,0,1.3407529592514038,0,0,0.4586400091648102
0.47006074,0,0,1.3407529592514038,0,0,0.7644000053405762
0.470383459,0,0,1.3407529592514038,0,0,0.6879600286483765
0.470711604,0,0,1.3407529592514038,0,0,0.611519992351532
0.471055026,0,0,1.3407529592514038,0,0,0.4586400091648102
0.471376171,0,0,1.3407529592514038,0,0,1.452359914779663
0.471707112,0,0,1.525106430053711,0,0,1.605239987373352
0.472035572,0,0,1.525106430053711,0,0,0.305759996175766
0.472371513,0,0,1.525106430053711,0,0,0.2293200045824051
0.472701398,0,0,1.525106430053711,0,0,0.152879998087883
0.473040135,0,0,1.525106430053711,0,0,0.6879600286483765
0.473404058,0,0,1.525106430053711,0,0,0
0.473709203,0,0,1.525106430053711,0,0,1.223039984703064
0.474036662,0,0,1.5969325304031372,0,0,0.152879998087883
0.474371566,0,0,1.5969325304031372,0,0,0.3822000026702881
0.4747016,0,0,1.5969325304031372,0,0,0.8408399820327759
0.475038448,0,0,1.5969325304031372,0,0,0.9937199950218201
0.47537476,0,0,1.5969325304031372,0,0,1.6816799640655518
0.475701775,0,0,1.5969325304031372,0,0,1.758120059967041
0.476039883,0,0,1.5969325304031372,0,0,0.0764399990439415
0.476368231,0,0,1.5490485429763794,0,0,1.1466000080108643
0.47670145,0,0,1.5490485429763794,0,0,1.223039984703064
0.47703578,0,0,1.5490485429763794,0,0,0.9937199950218201
0.47736811,0,0,1.5490485429763794,0,0,1.070159912109375
0.477707106,0,0,1.5490485429763794,0,0,0.9937199950218201
0.478034622,0,0,1.5490485429763794,0,0,0.9937199950218201
0.478368118,0,0,1.5490485429763794,0,0,0.9172800183296204
0.478703707,0,0,1.6041151285171509,0,0,0.7644000053405762
0.479034704,0,0,1.6041151285171509,0,0,0.9172800183296204
0.479371515,0,0,1.6041151285171509,0,0,0.8408399820327759
0.479701567,0,0,1.6041151285171509,0,0,1.070159912109375
0.480034934,0,0,1.6041151285171509,0,0,0.611519992351532
0.480370764,0,0,1.6041151285171509,0,0,0.8408399820327759
0.480701446,0,0,1.6041151285171509,0,0,0.8408399820327759
0.481035424,0,0,1.6927006244659424,0,0,0.8408399820327759
0.481368384,0,0,1.6927006244659424,0,0,0.8408399820327759
0.481701584,0,0,1.6927006244659424,0,0,0.9937199950218201
0.482036618,0,0,1.6927006244659424,0,0,0.5350799560546875
0.482368022,0,0,1.6927006244659424,0,0,0.305759996175766
0.482704759,0,0,1.6927006244659424,0,0,0.611519992351532
0.483034793,0,0,1.6927006244659424,0,0,0.8408399820327759
0.483368086,0,0,1.6927006244659424,0,0,0.6879600286483765
0.483704767,0,0,1.3503297567367554,0,0,0.9172800183296204
0.48403506,0,0,1.3503297567367554,0,0,0.7644000053405762
0.484368057,0,0,1.3503297567367554,0,0,0.4586400091648102
0.484704572,0,0,1.3503297567367554,0,0,0.9937199950218201
0.48503505,0,0,1.3503297567367554,0,0,0.152879998087883
0.485385695,0,0,1.3503297567367554,0,0,1.8345600366592407
0.485704117,0,0,1.3503297567367554,0,0,0.3822000026702881
0.486034984,0,0,1.3192051649093628,0,0,0.152879998087883
0.486367962,0,0,1.3192051649093628,0,0,0.152879998087883
0.486701348,0,0,1.3192051649093628,0,0,0
0.487038085,0,0,1.3192051649093628,0,0,0.3822000026702881
0.487368211,0,0,1.3192051649093628,0,0,0.0764399990439415
0.487701319,0,0,1.3192051649093628,0,0,1.6816799640655518
0.488042575,0,0,1.3192051649093628,0,0,0.8408399820327759
0.488380331,0,0,1.3311761617660522,0,0,0.9172800183296204
0.488717031,0,0,1.3311761617660522,0,0,0.5350799560546875
0.489052991,0,0,1.3311761617660522,0,0,0.5350799560546875
0.48937621,0,0,1.3311761617660522,0,0,0.6879600286483765
0.489707002,0,0,1.3311761617660522,0,0,0.9172800183296204
0.490035055,0,0,1.3311761617660522,0,0,0.6879600286483765
0.490371218,0,0,1.3311761617660522,0,0,0.5350799560546875
0.490701326,0,0,1.2665326595306396,0,0,0.6879600286483765
0.491042267,0,0,1.2665326595306396,0,0,0.5350799560546875
0.491387504,0,0,1.2665326595306396,0,0,1.070159912109375
0.491717093,0,0,1.2665326595306396,0,0,1.2994799613952637
0.492036719,0,0,1.2665326595306396,0,0,0.4586400091648102
0.492368364,0,0,1.2665326595306396,0,0,0.3822000026702881
0.492704898,0,0,1.2665326595306396,0,0,0.6879600286483765
0.493035265,0,0,1.3024457693099976,0,0,1.2994799613952637
0.493366798,0,0,1.3024457693099976,0,0,0.7644000053405762
0.493751498,0,0,1.3024457693099976,0,0,0.305759996175766
0.494046754,0,0,1.3024457693099976,0,0,0.3822000026702881
0.494377547,0,0,1.3024457693099976,0,0,1.070159912109375
0.494719896,0,0,1.3024457693099976,0,0,0.9172800183296204
0.495056855,0,0,1.3024457693099976,0,0,0.152879998087883
0.495397907,0,0,1.3024457693099976,0,0,0.611519992351532
0.49572433,0,0,1.455674648284912,0,0,1.5288000106811523
0.496058993,0,0,1.455674648284912,0,0,1.223039984703064
0.496394527,0,0,1.455674648284912,0,0,0.3822000026702881
0.496722023,0,0,1.455674648284912,0,0,0.5350799560546875
0.497059464,0,0,1.455674648284912,0,0,1.375920057296753
0.497383554,0,0,1.455674648284912,0,0,0.9172800183296204
0.497703328,0,0,1.455674648284912,0,0,0.3822000026702881
0.498038954,0,0,1.4915876388549805,0,0,0.7644000053405762
0.498368451,0,0,1.4915876388549805,0,0,9.478560447692871
0.498701559,0,0,1.4915876388549805,0,0,9.172800064086914
0.499037555,0,0,1.4915876388549805,0,0,0.9172800183296204
0.49937733,0,0,1.4915876388549805,0,0,0.7644000053405762
0.499727178,0,0,1.4915876388549805,0,0,0.5350799560546875
0.500058526,0,0,1.4915876388549805,0,0,0.8408399820327759
0.500376542,0,0,1.522712230682373,0,0,0.9937199950218201
0.500708909,0,0,1.522712230682373,0,0,0.8408399820327759
0.501036276,0,0,1.522712230682373,0,0,0.6879600286483765
0.50137205,0,0,1.522712230682373,0,0,0.611519992351532
0.501701306,0,0,1.522712230682373,0,0,1.375920057296753
0.502053413,0,0,1.522712230682373,0,0,0.7644000053405762
0.502376429,0,0,1.522712230682373,0,0,0.152879998087883
0.502702814,0,0,1.580173134803772,0,0,0.4586400091648102
0.503036459,0,0,1.580173134803772,0,0,0.7644000053405762
0.503368122,0,0,1.580173134803772,0,0,1.1466000080108643
0.503701211,0,0,1.580173134803772,0,0,1.223039984703064
0.504034449,0,0,1.580173134803772,0,0,1.1466000080108643
0.504367834,0,0,1.580173134803772,0,0,1.070159912109375
0.504706497,0,0,1.580173134803772,0,0,0.8408399820327759
0.505035568,0,0,1.699883222579956,0,0,1.070159912109375
0.505367991,0,0,1.699883222579956,0,0,0.9937199950218201
0.505705895,0,0,1.699883222579956,0,0,0.5350799560546875
0.506034762,0,0,1.699883222579956,0,0,1.6816799640655518
0.506377073,0,0,1.699883222579956,0,0,0.7644000053405762
0.506713236,0,0,1.699883222579956,0,0,0.5350799560546875
0.507035103,0,0,1.699883222579956,0,0,0.5350799560546875
0.507372637,0,0,1.5514427423477173,0,0,1.375920057296753
0.507701152,0,0,1.5514427423477173,0,0,0.305759996175766
0.508034445,0,0,1.5514427423477173,0,0,0.3822000026702881
0.508368627,0,0,1.5514427423477173,0,0,0.2293200045824051
0.508701012,0,0,1.5514427423477173,0,0,0.305759996175766
0.509038064,0,0,1.5514427423477173,0,0,0.4586400091648102
0.509367839,0,0,1.5514427423477173,0,0,1.452359914779663
0.50970115,0,0,1.4389152526855469,0,0,0.2293200045824051
0.510036425,0,0,1.4389152526855469,0,0,0.7644000053405762
0.510367755,0,0,1.4389152526855469,0,0,0.6879600286483765
0.51070701,0,0,1.4389152526855469,0,0,0.7644000053405762
0.511034618,0,0,1.4389152526855469,0,0,0.611519992351532
0.511367615,0,0,1.4389152526855469,0,0,0.5350799560546875
0.511703185,0,0,1.4389152526855469,0,0,1.223039984703064
0.512034423,0,0,1.2976573705673218,0,0,0.8408399820327759
0.512371104,0,0,1.2976573705673218,0,0,0
0.512701194,0,0,1.2976573705673218,0,0,0.5350799560546875
0.51303469,0,0,1.2976573705673218,0,0,0.9172800183296204
0.513370742,0,0,1.2976573705673218,0,0,0.8408399820327759
0.513701183,0,0,1.2976573705673218,0,0,0.611519992351532
0.514037921,0,0,1.2976573705673218,0,0,0.611519992351532
0.51436788,0,0,1.259350061416626,0,0,0.7644000053405762
0.514701729,0,0,1.259350061416626,0,0,1.2994799613952637
0.515039188,0,0,1.259350061416626,0,0,0.5350799560546875
0.515367944,0,0,1.259350061416626,0,0,0.5350799560546875
0.515700996,0,0,1.259350061416626,0,0,0.9937199950218201
0.516034012,0,0,1.259350061416626,0,0,1.6816799640655518
0.516367823,0,0,1.259350061416626,0,0,1.223039984703064
0.516706468,0,0,1.2449848651885986,0,0,1.070159912109375
0.517035131,0,0,1.2449848651885986,0,0,0.8408399820327759
0.51736809,0,0,1.2449848651885986,0,0,1.6816799640655518
0.517706031,0,0,1.2449848651885986,0,0,1.452359914779663
0.518034306,0,0,1.2449848651885986,0,0,1.5288000106811523
0.518367673,0,0,1.2449848651885986,0,0,1.375920057296753
0.518700873,0,0,1.2449848651885986,0,0,0.5350799560546875
0.519034573,0,0,1.2449848651885986,0,0,1.5288000106811523
0.519371366,0,0,1.4891934394836426,0,0,1.2994799613952637
0.519701104,0,0,1.4891934394836426,0,0,0.4586400091648102
0.520034471,0,0,1.4891934394836426,0,0,0
0.520369801,0,0,1.4891934394836426,0,0,1.758120059967041
0.520701131,0,0,1.4891934394836426,0,0,0.0764399990439415
0.521040701,0,0,1.4891934394836426,0,0,0.6879600286483765
0.521367735,0,0,1.4891934394836426,0,0,0.3822000026702881
0.521701194,0,0,1.6112977266311646,0,0,0.8408399820327759
0.522036821,0,0,1.6112977266311646,0,0,0.8408399820327759
0.522367762,0,0,1.6112977266311646,0,0,0.6879600286483765
0.522701869,0,0,1.6112977266311646,0,0,0.2293200045824051
0.523034607,0,0,1.6112977266311646,0,0,0.5350799560546875
0.523367677,0,0,1.6112977266311646,0,0,0.4586400091648102
0.523703174,0,0,1.6112977266311646,0,0,0.6879600286483765
0.524034356,0,0,1.50355863571167,0,0,0.3822000026702881
0.52437113,0,0,1.50355863571167,0,0,0.611519992351532
0.524701108,0,0,1.50355863571167,0,0,0.7644000053405762
0.525034734,0,0,1.50355863571167,0,0,0.6879600286483765
0.525372824,0,0,1.50355863571167,0,0,0.611519992351532
0.525701098,0,0,1.50355863571167,0,0,0.7644000053405762
0.526034558,0,0,1.50355863571167,0,0,1.2994799613952637
0.526367795,0,0,1.4844050407409668,0,0,1.452359914779663
0.52670118,0,0,1.4844050407409668,0,0,0.8408399820327759
0.527039955,0,0,1.4844050407409668,0,0,0.2293200045824051
0.527368155,0,0,1.4844050407409668,0,0,1.1466000080108643
0.5277013,0,0,1.4844050407409668,0,0,1.452359914779663
0.528042482,0,0,1.4844050407409668,0,0,1.070159912109375
0.528368145,0,0,1.4844050407409668,0,0,1.1466000080108643
0.528706845,0,0,1.6855180263519287,0,0,0.4586400091648102
0.529034268,0,0,1.6855180263519287,0,0,1.375920057296753
0.529366838,0,0,1.6855180263519287,0,0,1.2994799613952637
0.529702002,0,0,1.6855180263519287,0,0,1.6816799640655518
0.530033443,0,0,1.6855180263519287,0,0,1.452359914779663
0.530369958,0,0,1.6855180263519287,0,0,1.605239987373352
0.530699991,0,0,1.6855180263519287,0,0,1.375920057296753
0.531033562,0,0,1.4532804489135742,0,0,0.2293200045824051
0.531369762,0,0,1.4532804489135742,0,0,1.1466000080108643
0.531704129,0,0,1.4532804489135742,0,0,1.223039984703064
0.532057218,0,0,1.4532804489135742,0,0,1.2994799613952637
0.532385826,0,0,1.4532804489135742,0,0,0.4586400091648102
0.532709675,0,0,1.4532804489135742,0,0,0
0.53305506,0,0,1.4532804489135742,0,0,0.9937199950218201
0.533380464,0,0,1.4915876388549805,0,0,1.1466000080108643
0.533716961,0,0,1.4915876388549805,0,0,0.6879600286483765
0.534056272,0,0,1.4915876388549805,0,0,0.9172800183296204
0.534381398,0,0,1.4915876388549805,0,0,0.8408399820327759
0.534703765,0,0,1.4915876388549805,0,0,1.1466000080108643
0.535037781,0,0,1.4915876388549805,0,0,0.8408399820327759
0.535371296,0,0,1.4915876388549805,0,0,0.8408399820327759
0.535727607,0,0,1.3503297567367554,0,0,0.6879600286483765
0.5360579,0,0,1.3503297567367554,0,0,0.9937199950218201
0.536381396,0,0,1.3503297567367554,0,0,0.8408399820327759
0.536718134,0,0,1.3503297567367554,0,0,0.5350799560546875
0.537073056,0,0,1.3503297567367554,0,0,0.9937199950218201
0.537374923,0,0,1.3503297567367554,0,0,0.611519992351532
0.537702161,0,0,1.3503297567367554,0,0,0.611519992351532
0.53803588,0,0,1.2976573705673218,0,0,0.8408399820327759
0.53836695,0,0,1.2976573705673218,0,0,0.9172800183296204
0.538703465,0,0,1.2976573705673218,0,0,1.070159912109375
0.53903361,0,0,1.2976573705673218,0,0,1.070159912109375
0.539366829,0,0,1.2976573705673218,0,0,0.9937199950218201
0.539703622,0,0,1.2976573705673218,0,0,0.2293200045824051
0.540033378,0,0,1.2976573705673218,0,0,1.2994799613952637
0.540366837,0,0,1.2976573705673218,0,0,0.9937199950218201
0.540703797,0,0,1.4173674583435059,0,0,-0.3822000026702881
0.541039404,0,0,1.4173674583435059,0,0,-0.3822000026702881
0.541373994,0,0,1.4173674583435059,0,0,0.0764399990439415
0.541701527,0,0,1.4173674583435059,0,0,0.7644000053405762
0.54203495,0,0,1.4173674583435059,0,0,1.605239987373352
0.542368372,0,0,1.4173674583435059,0,0,1.758120059967041
0.542701813,0,0,1.4173674583435059,0,0,0.3822000026702881
0.543043328,0,0,1.4389152526855469,0,0,0.305759996175766
0.543368307,0,0,1.4389152526855469,0,0,0.8408399820327759
0.543701174,0,0,1.4389152526855469,0,0,0.7644000053405762
0.544036522,0,0,1.4389152526855469,0,0,0.9172800183296204
0.544367871,0,0,1.4389152526855469,0,0,0.7644000053405762
0.544706497,0,0,1.4389152526855469,0,0,1.070159912109375
0.545034753,0,0,1.4389152526855469,0,0,1.070159912109375
0.545367897,0,0,1.5155296325683594,0,0,0.7644000053405762
0.545703412,0,0,1.5155296325683594,0,0,0.8408399820327759
0.546034816,0,0,1.5155296325683594,0,0,1.223039984703064
0.546371387,0,0,1.5155296325683594,0,0,1.070159912109375
0.546703254,0,0,1.5155296325683594,0,0,1.223039984703064
0.547034417,0,0,1.5155296325683594,0,0,0.6879600286483765
0.547370803,0,0,1.5155296325683594,0,0,0.6879600286483765
0.54770504,0,0,1.5538369417190552,0,0,0.8408399820327759
0.54803474,0,0,1.5538369417190552,0,0,0.8408399820327759
0.548369663,0,0,1.5538369417190552,0,0,1.2994799613952637
0.548701326,0,0,1.5538369417190552,0,0,0.9172800183296204
0.549040564,0,0,1.5538369417190552,0,0,1.2994799613952637
0.549385393,0,0,1.5538369417190552,0,0,0.5350799560546875
0.54970189,0,0,1.5538369417190552,0,0,0.6879600286483765
0.550036757,0,0,1.5753847360610962,0,0,0.4586400091648102
0.550367846,0,0,1.5753847360610962,0,0,0.5350799560546875
0.550704491,0,0,1.5753847360610962,0,0,0
0.55103484,0,0,1.5753847360610962,0,0,0.2293200045824051
0.551367706,0,0,1.5753847360610962,0,0,0.0764399990439415
0.551703518,0,0,1.5753847360610962,0,0,0.2293200045824051
0.552034792,0,0,1.5753847360610962,0,0,0.2293200045824051
0.552370141,0,0,1.7142484188079834,0,0,1.223039984703064
0.552701323,0,0,1.7142484188079834,0,0,-0.4586400091648102
0.553034782,0,0,1.7142484188079834,0,0,-0.8408399820327759
0.553369705,0,0,1.7142484188079834,0,0,9.249239921569824
0.553707164,0,0,1.7142484188079834,0,0,0.6879600286483765
0.554038531,0,0,1.7142484188079834,0,0,0.6879600286483765
0.554368157,0,0,1.7142484188079834,0,0,0.8408399820327759
0.554701172,0,0,1.7142484188079834,0,0,0.6879600286483765
0.555037854,0,0,1.4628572463989258,0,0,0.7644000053405762
0.555367758,0,0,1.4628572463989258,0,0,0.7644000053405762
0.555701125,0,0,1.4628572463989258,0,0,0.6879600286483765
0.556034474,0,0,1.4628572463989258,0,0,0.8408399820327759
0.556367952,0,0,1.4628572463989258,0,0,0.611519992351532
0.556706485,0,0,1.4628572463989258,0,0,0.4586400091648102
0.557035056,0,0,1.4628572463989258,0,0,0.6879600286483765
0.557367756,0,0,1.4676456451416016,0,0,1.2994799613952637
0.557704494,0,0,1.4676456451416016,0,0,0.9937199950218201
0.55803699,0,0,1.4676456451416016,0,0,1.070159912109375
0.558368098,0,0,1.4676456451416016,0,0,1.375920057296753
0.558704261,0,0,1.4676456451416016,0,0,1.070159912109375
0.559034462,0,0,1.4676456451416016,0,0,0.9937199950218201
0.559373254,0,0,1.4676456451416016,0,0,0.9172800183296204
0.559701214,0,0,1.280897855758667,0,0,1.223039984703064
0.560034618,0,0,1.280897855758667,0,0,1.375920057296753
0.560368744,0,0,1.280897855758667,0,0,0.9172800183296204
0.560701167,0,0,1.280897855758667,0,0,1.070159912109375
0.561038515,0,0,1.280897855758667,0,0,0.9937199950218201
0.561368012,0,0,1.280897855758667,0,0,0.5350799560546875
0.561701434,0,0,1.280897855758667,0,0,0.4586400091648102
0.562036338,0,0,1.2761094570159912,0,0,0.9937199950218201
0.562367835,0,0,1.2761094570159912,0,0,0.9937199950218201
0.56270585,0,0,1.2761094570159912,0,0,1.605239987373352
0.56303455,0,0,1.2761094570159912,0,0,0.152879998087883
0.563367714,0,0,1.2761094570159912,0,0,0.152879998087883
0.563703173,0,0,1.2761094570159912,0,0,0.2293200045824051
0.564034522,0,0,1.2761094570159912,0,0,0.4586400091648102
0.564371296,0,0,1.359906554222107,0,0,9.249239921569824
0.564701274,0,0,1.359906554222107,0,0,0.8408399820327759
0.565035011,0,0,1.359906554222107,0,0,1.1466000080108643
0.565370027,0,0,1.359906554222107,0,0,0.7644000053405762
0.565701153,0,0,1.359906554222107,0,0,0.305759996175766
0.566035631,0,0,1.359906554222107,0,0,0.7644000053405762
0.566367979,0,0,1.359906554222107,0,0,0.9172800183296204
0.566701143,0,0,1.414973258972168,0,0,0.8408399820327759
0.567036176,0,0,1.414973258972168,0,0,0.4586400091648102
0.567367691,0,0,1.414973258972168,0,0,1.070159912109375
0.567704688,0,0,1.414973258972168,0,0,1.223039984703064
0.568034666,0,0,1.414973258972168,0,0,1.070159912109375
0.568370533,0,0,1.414973258972168,0,0,1.223039984703064
0.568705622,0,0,1.414973258972168,0,0,0.9937199950218201
0.569035971,0,0,1.414973258972168,0,0,0.9172800183296204
0.569367726,0,0,1.5634137392044067,0,0,1.1466000080108643
0.569703464,0,0,1.5634137392044067,0,0,0.6879600286483765
0.570034497,0,0,1.5634137392044067,0,0,1.2994799613952637
0.570371364,0,0,1.5634137392044067,0,0,0.9172800183296204
0.570714102,0,0,1.5634137392044067,0,0,0.305759996175766
0.57104045,0,0,1.5634137392044067,0,0,0.3822000026702881
0.571375558,0,0,1.5634137392044067,0,0,0.611519992351532
0.571726091,0,0,1.6089035272598267,0,0,1.223039984703064
0.572054292,0,0,1.6089035272598267,0,0,0.9172800183296204
0.572386159,0,0,1.6089035272598267,0,0,0.9172800183296204
0.572733544,0,0,1.6089035272598267,0,0,0.4586400091648102
0.573047856,0,0,1.6089035272598267,0,0,0.305759996175766
0.573372945,0,0,1.6089035272598267,0,0,-0.2293200045824051
0.573701645,0,0,1.6089035272598267,0,0,1.605239987373352
0.574036438,0,0,1.5897499322891235,0,0,1.758120059967041
0.574402231,0,0,1.5897499322891235,0,0,0.5350799560546875
0.574701635,0,0,1.5897499322891235,0,0,0
0.575037761,0,0,1.5897499322891235,0,0,1.1466000080108643
0.575367832,0,0,1.5897499322891235,0,0,0.152879998087883
0.575701217,0,0,1.5897499322891235,0,0,0.6879600286483765
0.576037918,0,0,1.5897499322891235,0,0,0.9937199950218201
0.576367655,0,0,1.7956513166427612,0,0,1.2994799613952637
0.576706485,0,0,1.7956513166427612,0,0,0.9172800183296204
0.577035093,0,0,1.7956513166427612,0,0,0.611519992351532
0.577367886,0,0,1.7956513166427612,0,0,0.8408399820327759
0.577703086,0,0,1.7956513166427612,0,0,0.611519992351532
0.57803462,0,0,1.7956513166427612,0,0,1.1466000080108643
0.578371412,0,0,1.7956513166427612,0,0,0.8408399820327759
0.578706576,0,0,1.5394717454910278,0,0,0.611519992351532
0.579034739,0,0,1.5394717454910278,0,0,0.5350799560546875
0.579373439,0,0,1.5394717454910278,0,0,0.5350799560546875
0.579701288,0,0,1.5394717454910278,0,0,0.5350799560546875
0.580034562,0,0,1.5394717454910278,0,0,0.7644000053405762
0.580367985,0,0,1.5394717454910278,0,0,0.5350799560546875
0.580701277,0,0,1.5394717454910278,0,0,0.611519992351532
0.58103833,0,0,1.37906014919281,0,0,0.3822000026702881
0.581367974,0,0,1.37906014919281,0,0,0.5350799560546875
0.581701175,0,0,1.37906014919281,0,0,0.7644000053405762
0.582036634,0,0,1.37906014919281,0,0,0
0.582367872,0,0,1.37906014919281,0,0,1.2994799613952637
0.582704979,0,0,1.37906014919281,0,0,1.605239987373352
0.583036587,0,0,1.37906014919281,0,0,-0.3822000026702881
0.58336801,0,0,1.37906014919281,0,0,0.3822000026702881
0.583704099,0,0,1.3503297567367554,0,0,0
0.584034484,0,0,1.3503297567367554,0,0,1.070159912109375
0.584369351,0,0,1.3503297567367554,0,0,1.452359914779663
0.584701403,0,0,1.3503297567367554,0,0,0.8408399820327759
0.585034789,0,0,1.3503297567367554,0,0,1.758120059967041
0.585369748,0,0,1.3503297567367554,0,0,1.452359914779663
0.585701189,0,0,1.3503297567367554,0,0,1.9109998941421509
0.58603813,0,0,1.3048399686813354,0,0,2.2167599201202393
0.586367923,0,0,1.3048399686813354,0,0,2.2932000160217285
0.586701179,0,0,1.3048399686813354,0,0,0.9937199950218201
0.587039694,0,0,1.3048399686813354,0,0,0.611519992351532
0.587368098,0,0,1.3048399686813354,0,0,0.611519992351532
0.587701336,0,0,1.3048399686813354,0,0,0.6879600286483765
0.58803424,0,0,1.3048399686813354,0,0,0.9172800183296204
0.588367903,0,0,1.381454348564148,0,0,0.9937199950218201
0.588704677,0,0,1.381454348564148,0,0,0.7644000053405762
0.589037581,0,0,1.381454348564148,0,0,0.6879600286483765
0.589368152,0,0,1.381454348564148,0,0,0.6879600286483765
0.589703852,0,0,1.381454348564148,0,0,0.9172800183296204
0.590034571,0,0,1.381454348564148,0,0,0.6879600286483765
0.590371179,0,0,1.381454348564148,0,0,0.8408399820327759
0.590701305,0,0,1.3862427473068237,0,0,0.7644000053405762
0.591034505,0,0,1.3862427473068237,0,0,0.611519992351532
0.591372483,0,0,1.3862427473068237,0,0,0.9172800183296204
0.591701332,0,0,1.3862427473068237,0,0,0.9172800183296204
0.592057199,0,0,1.3862427473068237,0,0,0.4586400091648102
0.592369047,0,0,1.3862427473068237,0,0,0.8408399820327759
0.592701359,0,0,1.3862427473068237,0,0,0.7644000053405762
0.5930378,0,0,1.482010841369629,0,0,0.3822000026702881
0.593367722,0,0,1.482010841369629,0,0,-0.4586400091648102
0.593701015,0,0,1.482010841369629,0,0,0
0.594036475,0,0,1.482010841369629,0,0,0.9172800183296204
0.594368027,0,0,1.482010841369629,0,0,0.305759996175766
0.594706857,0,0,1.482010841369629,0,0,0.5350799560546875
0.59503465,0,0,1.482010841369629,0,0,0.4586400091648102
0.595367776,0,0,1.5442601442337036,0,0,0.4586400091648102
0.59570305,0,0,1.5442601442337036,0,0,-0.2293200045824051
0.596034473,0,0,1.5442601442337036,0,0,1.223039984703064
0.596368321,0,0,1.5442601442337036,0,0,1.605239987373352
0.59670117,0,0,1.5442601442337036,0,0,1.9874399900436401
0.597034722,0,0,1.5442601442337036,0,0,1.9874399900436401
0.59736957,0,0,1.5442601442337036,0,0,0.6879600286483765
0.597701197,0,0,1.5442601442337036,0,0,0.9937199950218201
0.598038082,0,0,1.5275006294250488,0,0,1.070159912109375
0.598367893,0,0,1.5275006294250488,0,0,1.070159912109375
0.598701094,0,0,1.5275006294250488,0,0,1.1466000080108643
0.599042294,0,0,1.5275006294250488,0,0,0.6879600286483765
0.599386994,0,0,1.5275006294250488,0,0,0.7644000053405762
0.599716676,0,0,1.5275006294250488,0,0,0.7644000053405762
0.600064839,0,0,1.5275006294250488,0,0,0.7644000053405762
0.600384928,0,0,1.7477672100067139,0,0,0.7644000053405762
0.600703407,0,0,1.7477672100067139,0,0,0.9172800183296204
0.601036014,0,0,1.7477672100067139,0,0,0.7644000053405762
0.601369807,0,0,1.7477672100067139,0,0,0.9937199950218201
0.601714804,0,0,1.7477672100067139,0,0,0.611519992351532
0.602069541,0,0,1.7477672100067139,0,0,0.2293200045824051
0.602372723,0,0,1.7477672100067139,0,0,0.9172800183296204
0.602701757,0,0,1.501164436340332,0,0,1.375920057296753
0.60303792,0,0,1.501164436340332,0,0,0.9172800183296204
0.603368083,0,0,1.501164436340332,0,0,0.0764399990439415
0.603701024,0,0,1.501164436340332,0,0,0.2293200045824051
0.604038687,0,0,1.501164436340332,0,0,1.1466000080108643
0.604367906,0,0,1.501164436340332,0,0,0.6879600286483765
0.604701125,0,0,1.501164436340332,0,0,0.5350799560546875
0.60503477,0,0,1.4053963422775269,0,0,0.611519992351532
0.60536797,0,0,1.4053963422775269,0,0,0.8408399820327759
0.605705911,0,0,1.4053963422775269,0,0,1.375920057296753
0.606034575,0,0,1.4053963422775269,0,0,0.305759996175766
0.606367701,0,0,1.4053963422775269,0,0,0.3822000026702881
0.60670216,0,0,1.4053963422775269,0,0,0.611519992351532
0.607034416,0,0,1.4053963422775269,0,0,0.0764399990439415
0.607370876,0,0,1.3096283674240112,0,0,0
0.607701076,0,0,1.3096283674240112,0,0,-0.8408399820327759
0.608034276,0,0,1.3096283674240112,0,0,0
0.608373051,0,0,1.3096283674240112,0,0,0.9937199950218201
0.608701547,0,0,1.3096283674240112,0,0,1.1466000080108643
0.60903447,0,0,1.3096283674240112,0,0,1.1466000080108643
0.60936817,0,0,1.3096283674240112,0,0,0.611519992351532
0.609705963,0,0,1.314416766166687,0,0,0.5350799560546875
0.61003796,0,0,1.314416766166687,0,0,0.8408399820327759
0.610368104,0,0,1.314416766166687,0,0,0.8408399820327759
0.610708675,0,0,1.314416766166687,0,0,0.8408399820327759
0.611036931,0,0,1.314416766166687,0,0,0.6879600286483765
0.611367779,0,0,1.314416766166687,0,0,0.611519992351532
0.611704443,0,0,1.314416766166687,0,0,0.5350799560546875
0.612034624,0,0,1.314416766166687,0,0,0.7644000053405762
0.612367806,0,0,1.3934253454208374,0,0,0.8408399820327759
0.612702358,0,0,1.3934253454208374,0,0,1.5288000106811523
0.61303491,0,0,1.3934253454208374,0,0,0.8408399820327759
0.613376963,0,0,1.3934253454208374,0,0,0.305759996175766
0.613701348,0,0,1.3934253454208374,0,0,0.7644000053405762
0.614034511,0,0,1.3934253454208374,0,0,1.2994799613952637
0.614372434,0,0,1.3934253454208374,0,0,0.7644000053405762
0.614701097,0,0,1.3742717504501343,0,0,0.7644000053405762
0.615034316,0,0,1.3742717504501343,0,0,0.9937199950218201
0.615367294,0,0,1.3742717504501343,0,0,0.152879998087883
0.61570118,0,0,1.3742717504501343,0,0,0.7644000053405762
0.616037954,0,0,1.3742717504501343,0,0,1.070159912109375
0.616367858,0,0,1.3742717504501343,0,0,0.4586400091648102
0.616701021,0,0,1.3742717504501343,0,0,0.611519992351532
0.617036592,0,0,1.460463047027588,0,0,1.6816799640655518
0.617367774,0,0,1.460463047027588,0,0,0.5350799560546875
0.617704307,0,0,1.460463047027588,0,0,0.4586400091648102
0.618036359,0,0,1.460463047027588,0,0,1.2994799613952637
0.618367819,0,0,1.460463047027588,0,0,0.7644000053405762
0.618703501,0,0,1.460463047027588,0,0,1.8345600366592407
0.619034349,0,0,1.460463047027588,0,0,0.3822000026702881
0.619369642,0,0,1.5490485429763794,0,0,0.6879600286483765
0.619701065,0,0,1.5490485429763794,0,0,0.9172800183296204
0.620036765,0,0,1.5490485429763794,0,0,0.8408399820327759
0.620370076,0,0,1.5490485429763794,0,0,0.8408399820327759
0.62070111,0,0,1.5490485429763794,0,0,0.7644000053405762
0.621038421,0,0,1.5490485429763794,0,0,0.4586400091648102
0.621367862,0,0,1.5490485429763794,0,0,0.5350799560546875
0.621700952,0,0,1.558625340461731,0,0,0.5350799560546875
0.6220398,0,0,1.558625340461731,0,0,0.5350799560546875
0.622367871,0,0,1.558625340461731,0,0,0.152879998087883
0.622700997,0,0,1.558625340461731,0,0,1.375920057296753
0.623034494,0,0,1.558625340461731,0,0,1.1466000080108643
0.623367916,0,0,1.558625340461731,0,0,0.4586400091648102
0.623704228,0,0,1.558625340461731,0,0,0
0.624034502,0,0,1.558625340461731,0,0,0.8408399820327759
0.624367943,0,0,1.6927006244659424,0,0,0.9172800183296204
0.624703291,0,0,1.6927006244659424,0,0,0.7644000053405762
0.625034732,0,0,1.6927006244659424,0,0,0.8408399820327759
0.625374044,0,0,1.6927006244659424,0,0,0.4586400091648102
0.625700966,0,0,1.6927006244659424,0,0,0.9937199950218201
0.626034519,0,0,1.6927006244659424,0,0,1.223039984703064
0.626371108,0,0,1.6927006244659424,0,0,0.611519992351532
0.62670116,0,0,1.5849615335464478,0,0,1.375920057296753
0.627036064,0,0,1.5849615335464478,0,0,1.758120059967041
0.627367931,0,0,1.5849615335464478,0,0,1.6816799640655518
0.627701113,0,0,1.5849615335464478,0,0,1.070159912109375
0.628036331,0,0,1.5849615335464478,0,0,1.758120059967041
0.628367921,0,0,1.5849615335464478,0,0,1.758120059967041
0.628704547,0,0,1.5849615335464478,0,0,0.6879600286483765
0.629034655,0,0,1.3910311460494995,0,0,1.758120059967041
0.62936767,0,0,1.3910311460494995,0,0,0.2293200045824051
0.629706277,0,0,1.3910311460494995,0,0,1.070159912109375
0.630034459,0,0,1.3910311460494995,0,0,0.305759996175766
0.630369808,0,0,1.3910311460494995,0,0,0.8408399820327759
0.630702008,0,0,1.3910311460494995,0,0,0.6879600286483765
0.631034505,0,0,1.3910311460494995,0,0,0.611519992351532
0.631371668,0,0,1.3910311460494995,0,0,0.7644000053405762
0.631701183,0,0,1.3910311460494995,0,0,0.7644000053405762
0.632034476,0,0,1.3910311460494995,0,0,0.7644000053405762
0.632369898,0,0,1.3910311460494995,0,0,0.152879998087883
0.632701136,0,0,1.3910311460494995,0,0,1.2994799613952637
0.633038114,0,0,1.3910311460494995,0,0,0.9172800183296204
0.633367962,0,0,1.3910311460494995,0,0,0.2293200045824051
0.63370107,0,0,1.3910311460494995,0,0,-0.305759996175766
0.634036492,0,0,1.2473790645599365,0,0,0.8408399820327759
0.634367526,0,0,1.2473790645599365,0,0,0.6879600286483765
0.634710208,0,0,1.2473790645599365,0,0,0.6879600286483765
0.635034834,0,0,1.2473790645599365,0,0,0.305759996175766
0.635367683,0,0,1.2473790645599365,0,0,0.9937199950218201
0.635706346,0,0,1.2473790645599365,0,0,1.1466000080108643
0.636034379,0,0,1.2473790645599365,0,0,0.4586400091648102
0.636367783,0,0,1.278503656387329,0,0,0.305759996175766
0.636700558,0,0,1.278503656387329,0,0,0.8408399820327759
0.637038647,0,0,1.278503656387329,0,0,1.1466000080108643
0.637377051,0,0,1.278503656387329,0,0,1.1466000080108643
0.637701066,0,0,1.278503656387329,0,0,0.8408399820327759
0.638033581,0,0,1.278503656387329,0,0,0.8408399820327759
0.638368948,0,0,1.278503656387329,0,0,1.9109998941421509
0.638699963,0,0,1.357512354850769,0,0,1.9874399900436401
0.639036034,0,0,1.357512354850769,0,0,2.446079969406128
0.639366697,0,0,1.357512354850769,0,0,1.8345600366592407
0.639699805,0,0,1.357512354850769,0,0,1.452359914779663
0.640036302,0,0,1.357512354850769,0,0,1.452359914779663
0.640366632,0,0,1.357512354850769,0,0,1.758120059967041
0.640706054,0,0,1.357512354850769,0,0,1.9874399900436401
0.641034532,0,0,1.5131354331970215,0,0,2.06387996673584
0.64136701,0,0,1.5131354331970215,0,0,0.3822000026702881
0.64170484,0,0,1.5131354331970215,0,0,0.8408399820327759
0.642033318,0,0,1.5131354331970215,0,0,0.6879600286483765
0.642366722,0,0,1.5131354331970215,0,0,0.4586400091648102
0.642700645,0,0,1.5131354331970215,0,0,1.1466000080108643
0.643033252,0,0,1.5131354331970215,0,0,1.375920057296753
0.64337049,0,0,1.5921441316604614,0,0,0.8408399820327759
0.643699986,0,0,1.5921441316604614,0,0,0.305759996175766
0.644033335,0,0,1.5921441316604614,0,0,0.305759996175766
0.64436885,0,0,1.5921441316604614,0,0,0.9937199950218201
0.644699902,0,0,1.5921441316604614,0,0,0.9172800183296204
0.645038639,0,0,1.5921441316604614,0,0,0.7644000053405762
0.645370599,0,0,1.5921441316604614,0,0,0.8408399820327759
0.645701244,0,0,1.5921441316604614,0,0,1.070159912109375
0.646037037,0,0,1.6065093278884888,0,0,0.7644000053405762
0.646368107,0,0,1.6065093278884888,0,0,0.6879600286483765
0.64670453,0,0,1.6065093278884888,0,0,0.9172800183296204
0.647034841,0,0,1.6065093278884888,0,0,1.375920057296753
0.647368097,0,0,1.6065093278884888,0,0,1.070159912109375
0.647705094,0,0,1.6065093278884888,0,0,0.3822000026702881
0.648034701,0,0,1.6065093278884888,0,0,0.3822000026702881
0.648368031,0,0,1.7477672100067139,0,0,0.305759996175766
0.648701269,0,0,1.7477672100067139,0,0,0.5350799560546875
0.649034802,0,0,1.7477672100067139,0,0,0.611519992351532
0.649371503,0,0,1.7477672100067139,0,0,0.8408399820327759
0.649706055,0,0,1.7477672100067139,0,0,0.4586400091648102
0.650035125,0,0,1.7477672100067139,0,0,0.2293200045824051
0.650371233,0,0,1.7477672100067139,0,0,0.9172800183296204
0.650701489,0,0,1.5179238319396973,0,0,0.305759996175766
0.651038171,0,0,1.5179238319396973,0,0,1.758120059967041
0.651370445,0,0,1.5179238319396973,0,0,-0.7644000053405762
0.651701257,0,0,1.5179238319396973,0,0,1.452359914779663
0.652037994,0,0,1.5179238319396973,0,0,0.611519992351532
0.652367972,0,0,1.5179238319396973,0,0,0.611519992351532
0.652701172,0,0,1.5179238319396973,0,0,0.7644000053405762
0.653040224,0,0,1.403002142906189,0,0,1.452359914779663
0.65336811,0,0,1.403002142906189,0,0,0.4586400091648102
0.653701384,0,0,1.403002142906189,0,0,0
0.654035177,0,0,1.403002142906189,0,0,0.6879600286483765
0.654368007,0,0,1.403002142906189,0,0,1.223039984703064
0.654703874,0,0,1.403002142906189,0,0,1.1466000080108643
0.655034704,0,0,1.403002142906189,0,0,0.6879600286483765
0.655368015,0,0,1.3623007535934448,0,0,0.9172800183296204
0.655706938,0,0,1.3623007535934448,0,0,0.5350799560546875
0.656046212,0,0,1.3623007535934448,0,0,1.1466000080108643
0.656371709,0,0,1.3623007535934448,0,0,0.611519992351532
0.656701317,0,0,1.3623007535934448,0,0,0.7644000053405762
0.657034739,0,0,1.3623007535934448,0,0,1.452359914779663
0.657369902,0,0,1.3623007535934448,0,0,1.452359914779663
0.657701288,0,0,1.3623007535934448,0,0,0.8408399820327759
0.658038155,0,0,1.2713210582733154,0,0,0.4586400091648102
0.658367892,0,0,1.2713210582733154,0,0,0.9172800183296204
0.658701241,0,0,1.2713210582733154,0,0,1.1466000080108643
0.659039922,0,0,1.2713210582733154,0,0,1.070159912109375
0.659367901,0,0,1.2713210582733154,0,0,0.9937199950218201
0.659701527,0,0,1.2713210582733154,0,0,0.5350799560546875
0.660035468,0,0,1.2713210582733154,0,0,0.5350799560546875
0.660367816,0,0,1.2449848651885986,0,0,0.611519992351532
0.660703794,0,0,1.2449848651885986,0,0,0.611519992351532
0.661035087,0,0,1.2449848651885986,0,0,0.611519992351532
0.661370639,0,0,1.2449848651885986,0,0,0
0.661704895,0,0,1.2449848651885986,0,0,1.375920057296753
0.662034762,0,0,1.2449848651885986,0,0,-0.305759996175766
0.662367777,0,0,1.2449848651885986,0,0,-0.7644000053405762
0.662703126,0,0,1.3503297567367554,0,0,1.375920057296753
0.663034715,0,0,1.3503297567367554,0,0,1.2994799613952637
0.663373656,0,0,1.3503297567367554,0,0,0.7644000053405762
0.663701245,0,0,1.3503297567367554,0,0,0.152879998087883
0.664034723,0,0,1.3503297567367554,0,0,0.305759996175766
0.664370831,0,0,1.3503297567367554,0,0,0.7644000053405762
0.664701346,0,0,1.3503297567367554,0,0,0.8408399820327759
0.665035843,0,0,1.5490485429763794,0,0,0.6879600286483765
0.665367988,0,0,1.5490485429763794,0,0,0.9172800183296204
0.665701206,0,0,1.5490485429763794,0,0,0.8408399820327759
0.666036295,0,0,1.5490485429763794,0,0,0.6879600286483765
0.666368162,0,0,1.5490485429763794,0,0,0.8408399820327759
0.666704826,0,0,1.5490485429763794,0,0,0.6879600286483765
0.66703473,0,0,1.5490485429763794,0,0,1.070159912109375
0.66736806,0,0,1.5179238319396973,0,0,1.070159912109375
0.667706167,0,0,1.5179238319396973,0,0,0.7644000053405762
0.668034479,0,0,1.5179238319396973,0,0,0.8408399820327759
0.668367809,0,0,1.5179238319396973,0,0,0.9172800183296204
0.668703139,0,0,1.5179238319396973,0,0,1.1466000080108643
0.669035006,0,0,1.5179238319396973,0,0,1.5288000106811523
0.66937291,0,0,1.5179238319396973,0,0,1.375920057296753
0.669701258,0,0,1.53707754611969,0,0,1.070159912109375
0.670034662,0,0,1.53707754611969,0,0,1.223039984703064
0.670368474,0,0,1.53707754611969,0,0,1.605239987373352
0.670701322,0,0,1.53707754611969,0,0,1.375920057296753
0.671038263,0,0,1.53707754611969,0,0,1.375920057296753
0.671368056,0,0,1.53707754611969,0,0,1.2994799613952637
0.671706534,0,0,1.53707754611969,0,0,0.9172800183296204
0.672034901,0,0,1.53707754611969,0,0,1.1466000080108643
0.672367972,0,0,1.7477672100067139,0,0,0.152879998087883
0.672703246,0,0,1.7477672100067139,0,0,1.6816799640655518
0.673034854,0,0,1.7477672100067139,0,0,-0.152879998087883
0.673371239,0,0,1.7477672100067139,0,0,2.446079969406128
0.673701365,0,0,1.7477672100067139,0,0,0.5350799560546875
0.674034362,0,0,1.7477672100067139,0,0,0.2293200045824051
0.674369914,0,0,1.7477672100067139,0,0,1.070159912109375
0.674701226,0,0,1.5897499322891235,0,0,0.9172800183296204
0.675036352,0,0,1.5897499322891235,0,0,0.6879600286483765
0.675367997,0,0,1.5897499322891235,0,0,0.6879600286483765
0.675701364,0,0,1.5897499322891235,0,0,0.611519992351532
0.676036249,0,0,1.5897499322891235,0,0,0.6879600286483765
0.676368042,0,0,1.5897499322891235,0,0,0.611519992351532
0.67670465,0,0,1.5897499322891235,0,0,0.5350799560546875
0.677034831,0,0,1.4389152526855469,0,0,0.6879600286483765
0.677373421,0,0,1.4389152526855469,0,0,1.070159912109375
0.677705047,0,0,1.4389152526855469,0,0,0.8408399820327759
0.678034636,0,0,1.4389152526855469,0,0,0.5350799560546875
0.678371392,0,0,1.4389152526855469,0,0,0.3822000026702881
0.678701463,0,0,1.4389152526855469,0,0,0.6879600286483765
0.6790347,0,0,1.4389152526855469,0,0,0.9937199950218201
0.679371641,0,0,1.460463047027588,0,0,0.8408399820327759
0.679701212,0,0,1.460463047027588,0,0,0.7644000053405762
0.680035282,0,0,1.460463047027588,0,0,0.3822000026702881
0.680370242,0,0,1.460463047027588,0,0,0.4586400091648102
0.68070122,0,0,1.460463047027588,0,0,1.1466000080108643
0.681038068,0,0,1.460463047027588,0,0,1.223039984703064
0.681367898,0,0,1.460463047027588,0,0,0.9172800183296204
0.681700895,0,0,1.3623007535934448,0,0,0.6879600286483765
0.682038558,0,0,1.3623007535934448,0,0,0
0.682368036,0,0,1.3623007535934448,0,0,0.7644000053405762
0.682704699,0,0,1.3623007535934448,0,0,1.452359914779663
0.683164621,0,0,1.3623007535934448,0,0,0.5350799560546875
0.683371859,0,0,1.3623007535934448,0,0,1.605239987373352
0.683706652,0,0,1.3623007535934448,0,0,0.611519992351532
0.684034593,0,0,1.3623007535934448,0,0,1.8345600366592407
0.684367905,0,0,1.3670891523361206,0,0,1.758120059967041
0.684701161,0,0,1.3670891523361206,0,0,2.06387996673584
0.68503462,0,0,1.3670891523361206,0,0,0.7644000053405762
0.685371117,0,0,1.3670891523361206,0,0,1.070159912109375
0.685701206,0,0,1.3670891523361206,0,0,0.6879600286483765
0.686034554,0,0,1.3670891523361206,0,0,0.9172800183296204
0.686369644,0,0,1.3670891523361206,0,0,0.9937199950218201
0.686701029,0,0,1.3862427473068237,0,0,0.8408399820327759
0.687040266,0,0,1.3862427473068237,0,0,0.9172800183296204
0.687368078,0,0,1.3862427473068237,0,0,1.1466000080108643
0.687701278,0,0,1.3862427473068237,0,0,0.9172800183296204
0.688036867,0,0,1.3862427473068237,0,0,0.7644000053405762
0.688368808,0,0,1.3862427473068237,0,0,0.7644000053405762
0.688704935,0,0,1.3862427473068237,0,0,0.5350799560546875
0.689034802,0,0,1.4532804489135742,0,0,0.9937199950218201
0.689366706,0,0,1.4532804489135742,0,0,0.8408399820327759
0.689700091,0,0,1.4532804489135742,0,0,0.5350799560546875
0.690033662,0,0,1.4532804489135742,0,0,0.5350799560546875
0.690370232,0,0,1.4532804489135742,0,0,0.4586400091648102
0.690699896,0,0,1.4532804489135742,0,0,0.7644000053405762
0.691032966,0,0,1.4532804489135742,0,0,0.6879600286483765
0.69137063,0,0,1.525106430053711,0,0,0.9172800183296204
0.691699885,0,0,1.525106430053711,0,0,0.5350799560546875
0.692033123,0,0,1.525106430053711,0,0,0.611519992351532
0.692372638,0,0,1.525106430053711,0,0,0.4586400091648102
0.692700116,0,0,1.525106430053711,0,0,1.223039984703064
0.693041075,0,0,1.525106430053711,0,0,0.9172800183296204
0.693367887,0,0,1.525106430053711,0,0,1.070159912109375
0.693701013,0,0,1.6208745241165161,0,0,2.06387996673584
0.694034288,0,0,1.6208745241165161,0,0,1.070159912109375
0.694367655,0,0,1.6208745241165161,0,0,0.6879600286483765
0.694704244,0,0,1.6208745241165161,0,0,-0.152879998087883
0.69503437,0,0,1.6208745241165161,0,0,1.605239987373352
0.695367441,0,0,1.6208745241165161,0,0,1.452359914779663
0.695702882,0,0,1.6208745241165161,0,0,0.8408399820327759
0.696034471,0,0,1.6208745241165161,0,0,1.070159912109375
0.696371801,0,0,1.7046716213226318,0,0,0.8408399820327759
0.696701094,0,0,1.7046716213226318,0,0,0.7644000053405762
0.697034535,0,0,1.7046716213226318,0,0,1.1466000080108643
0.697369624,0,0,1.7046716213226318,0,0,1.070159912109375
0.69770088,0,0,1.7046716213226318,0,0,1.070159912109375
0.698040395,0,0,1.7046716213226318,0,0,0.6879600286483765
0.698367651,0,0,1.7046716213226318,0,0,0.611519992351532
0.698700999,0,0,1.6065093278884888,0,0,1.070159912109375
0.699037236,0,0,1.6065093278884888,0,0,1.1466000080108643
0.699367603,0,0,1.6065093278884888,0,0,1.1466000080108643
0.699701637,0,0,1.6065093278884888,0,0,0.9172800183296204
0.700034449,0,0,1.6065093278884888,0,0,0.5350799560546875
0.700367649,0,0,1.6065093278884888,0,0,0.9172800183296204
0.700702701,0,0,1.6065093278884888,0,0,0.8408399820327759
0.701034568,0,0,1.4293384552001953,0,0,0.611519992351532
0.701371194,0,0,1.4293384552001953,0,0,0.611519992351532
0.701700857,0,0,1.4293384552001953,0,0,0.9172800183296204
0.702034299,0,0,1.4293384552001953,0,0,0.5350799560546875
0.702371943,0,0,1.4293384552001953,0,0,0.4586400091648102
0.702703014,0,0,1.4293384552001953,0,0,0.152879998087883
0.703034529,0,0,1.4293384552001953,0,0,0.0764399990439415
0.703367452,0,0,1.4101848602294922,0,0,0.4586400091648102
