Time,AccelX1,AccelY1,AccelZ1,AccelX2,AccelY2,AccelZ2
0.000012537,0,0,1.5538369417190552,0,0,0.9172800183296204
0.010083214,0,0,1.460463047027588,0,0,0.9937199950218201
0.010278063,0,0,1.460463047027588,0,0,2.446079969406128
0.010447283,0,0,1.460463047027588,0,0,0.611519992351532
0.010625873,0,0,1.460463047027588,0,0,0.611519992351532
0.010804556,0,0,1.460463047027588,0,0,0
0.010975609,0,0,1.3958195447921753,0,0,0
0.011147366,0,0,1.3958195447921753,0,0,0.3822000026702881
0.011318715,0,0,1.3958195447921753,0,0,0.3822000026702881
0.011492861,0,0,1.3958195447921753,0,0,0
0.011667266,0,0,1.3958195447921753,0,0,0
0.011838634,0,0,1.4077905416488647,0,0,0.6879600286483765
0.012406608,0,0,1.4532804489135742,0,0,0.9937199950218201
0.01335991,0,0,1.3982137441635132,0,0,0.7644000053405762
0.014298471,0,0,1.3239935636520386,0,0,0.9172800183296204
0.015304401,0,0,1.4508862495422363,0,0,0.6879600286483765
0.016284295,0,0,1.4700398445129395,0,0,0.9172800183296204
0.017283485,0,0,1.482010841369629,0,0,1.1466000080108643
0.018273657,0,0,1.4867992401123047,0,0,0.611519992351532
0.019311513,0,0,1.4724340438842773,0,0,0.9937199950218201
0.020297481,0,0,1.4844050407409668,0,0,1.070159912109375
0.021293856,0,0,1.4221558570861816,0,0,0.6879600286483765
0.022272936,0,0,1.3958195447921753,0,0,0.9172800183296204
0.023290736,0,0,1.3910311460494995,0,0,0.7644000053405762
0.024259223,0,0,1.3742717504501343,0,0,0.9172800183296204
0.025238636,0,0,1.41257905960083,0,0,0.8408399820327759
0.026236715,0,0,1.4245500564575195,0,0,0.6879600286483765
0.027236368,0,0,1.6041151285171509,0,0,0.6879600286483765
0.028228354,0,0,1.5131354331970215,0,0,1.1466000080108643
0.029223785,0,0,1.4676456451416016,0,0,0.4586400091648102
0.030224827,0,0,1.4891934394836426,0,0,0.8408399820327759
0.031222461,0,0,1.4413094520568848,0,0,1.223039984703064
0.032222521,0,0,1.3263877630233765,0,0,0.9937199950218201
0.033244119,0,0,1.3886369466781616,0,0,0.7644000053405762
0.03422342,0,0,1.3335703611373901,0,0,0.8408399820327759
0.035222314,0,0,1.3958195447921753,0,0,0.7644000053405762
0.036222319,0,0,1.357512354850769,0,0,1.070159912109375
0.037223379,0,0,1.3311761617660522,0,0,0.6879600286483765
0.038222513,0,0,1.4245500564575195,0,0,0.7644000053405762
0.039222296,0,0,1.5945383310317993,0,0,1.070159912109375
0.040222208,0,0,1.5969325304031372,0,0,0.7644000053405762
0.041228213,0,0,1.4389152526855469,0,0,0.7644000053405762
0.042225236,0,0,1.4748282432556152,0,0,0.9937199950218201
0.043225093,0,0,1.3862427473068237,0,0,0.8408399820327759
0.044224598,0,0,1.4484920501708984,0,0,0.7644000053405762
0.045223936,0,0,1.3982137441635132,0,0,0.9937199950218201
0.04622233,0,0,1.3431471586227417,0,0,0.9937199950218201
0.047403202,0,0,1.4772224426269531,0,0,0.9937199950218201
0.04823221,0,0,1.414973258972168,0,0,0.611519992351532
0.049226603,0,0,1.482010841369629,0,0,0.9172800183296204
0.050225053,0,0,1.5418659448623657,0,0,0.9937199950218201
0.051224687,0,0,1.5107412338256836,0,0,0.8408399820327759
0.052224359,0,0,1.4867992401123047,0,0,0.9172800183296204
0.053224752,0,0,1.556231141090393,0,0,1.375920057296753
0.054224739,0,0,1.3862427473068237,0,0,0.5350799560546875
0.055259132,0,0,1.3431471586227417,0,0,0.8408399820327759
0.056228859,0,0,1.2761094570159912,0,0,0.9172800183296204
0.057263345,0,0,1.3048399686813354,0,0,0.7644000053405762
0.058224647,0,0,1.3527239561080933,0,0,1.1466000080108643
0.059222633,0,0,1.335964560508728,0,0,1.070159912109375
0.060222397,0,0,1.4508862495422363,0,0,0.611519992351532
0.061222865,0,0,1.580173134803772,0,0,0.9172800183296204
0.062221851,0,0,1.5322890281677246,0,0,0.3822000026702881
0.063222152,0,0,1.5298948287963867,0,0,0.8408399820327759
0.064222046,0,0,1.4987702369689941,0,0,1.1466000080108643
0.065240439,0,0,1.3431471586227417,0,0,0.8408399820327759
0.066225722,0,0,1.3311761617660522,0,0,0.6879600286483765
0.067224857,0,0,1.3263877630233765,0,0,1.070159912109375
0.068224528,0,0,1.3048399686813354,0,0,0.7644000053405762
0.069224811,0,0,1.335964560508728,0,0,0.9172800183296204
0.070224538,0,0,1.41257905960083,0,0,0.611519992351532
0.071224413,0,0,1.4891934394836426,0,0,0.7644000053405762
0.072224418,0,0,1.4772224426269531,0,0,0.6879600286483765
0.073226089,0,0,1.455674648284912,0,0,0.611519992351532
0.074224557,0,0,1.5682021379470825,0,0,0.8408399820327759
0.075224284,0,0,1.5466543436050415,0,0,0.8408399820327759
0.0762244,0,0,1.4844050407409668,0,0,0.9172800183296204
0.077225646,0,0,1.335964560508728,0,0,0.6879600286483765
0.078224669,0,0,1.3215993642807007,0,0,1.070159912109375
0.079224452,0,0,1.3646949529647827,0,0,0.8408399820327759
0.080224734,0,0,1.41257905960083,0,0,0.9172800183296204
0.081225646,0,0,1.3431471586227417,0,0,0.6879600286483765
0.082224688,0,0,1.4891934394836426,0,0,0.6879600286483765
0.083224749,0,0,1.53707754611969,0,0,0.9937199950218201
0.084224253,0,0,1.4245500564575195,0,0,0.4586400091648102
0.085225018,0,0,1.5322890281677246,0,0,0.9172800183296204
0.086224652,0,0,1.5969325304031372,0,0,1.2994799613952637
0.087224138,0,0,1.3934253454208374,0,0,0.9172800183296204
0.088727562,0,0,1.455674648284912,0,0,0.5350799560546875
0.089252536,0,0,1.50355863571167,0,0,1.1466000080108643
0.090228949,0,0,1.4197616577148438,0,0,0.7644000053405762
0.091227269,0,0,1.3958195447921753,0,0,0.9172800183296204
0.092249144,0,0,1.3934253454208374,0,0,0.7644000053405762
0.093233241,0,0,1.4772224426269531,0,0,0.6879600286483765
0.094227357,0,0,1.5083470344543457,0,0,0.9172800183296204
0.095226714,0,0,1.534683346748352,0,0,1.070159912109375
0.096226108,0,0,1.525106430053711,0,0,0.9172800183296204
0.097227594,0,0,1.558625340461731,0,0,0.6879600286483765
0.098226136,0,0,1.434126853942871,0,0,0.9172800183296204
0.099226141,0,0,1.357512354850769,0,0,0.611519992351532
0.100225868,0,0,1.381454348564148,0,0,1.223039984703064
0.101228502,0,0,1.2976573705673218,0,0,0.611519992351532
0.102225859,0,0,1.3766659498214722,0,0,0.9937199950218201
0.103226271,0,0,1.4389152526855469,0,0,0.9937199950218201
0.104226276,0,0,1.5083470344543457,0,0,0.9172800183296204
0.105227355,0,0,1.522712230682373,0,0,0.9937199950218201
0.106226285,0,0,1.436521053314209,0,0,0.9172800183296204
0.107226068,0,0,1.4173674583435059,0,0,0.9172800183296204
0.108226202,0,0,1.4652514457702637,0,0,0.8408399820327759
0.1092273,0,0,1.3120225667953491,0,0,0.6879600286483765
0.110225749,0,0,1.292868971824646,0,0,0.9172800183296204
0.111225976,0,0,1.3527239561080933,0,0,1.223039984703064
0.112225981,0,0,1.3527239561080933,0,0,0.611519992351532
0.113227189,0,0,1.290474772453308,0,0,0.611519992351532
0.114226268,0,0,1.4053963422775269,0,0,0.8408399820327759
0.115226106,0,0,1.53707754611969,0,0,0.6879600286483765
0.116226093,0,0,1.5753847360610962,0,0,0.8408399820327759
0.11722719,0,0,1.5418659448623657,0,0,0.5350799560546875
0.118226158,0,0,1.5322890281677246,0,0,0.8408399820327759
0.119229626,0,0,1.4939818382263184,0,0,0.9937199950218201
0.120226094,0,0,1.4676456451416016,0,0,0.8408399820327759
0.12125382,0,0,1.3886369466781616,0,0,0.8408399820327759
0.122229714,0,0,1.3263877630233765,0,0,1.1466000080108643
0.123255071,0,0,1.3311761617660522,0,0,0.9172800183296204
0.124227891,0,0,1.2832920551300049,0,0,0.8408399820327759
0.125226432,0,0,1.3958195447921753,0,0,0.5350799560546875
0.126226048,0,0,1.501164436340332,0,0,0.8408399820327759
0.127230646,0,0,1.4724340438842773,0,0,0.8408399820327759
0.128228354,0,0,1.556231141090393,0,0,0.611519992351532
0.129253044,0,0,1.5514427423477173,0,0,0.6879600286483765
0.130229197,0,0,1.4915876388549805,0,0,0.9172800183296204
0.131226424,0,0,1.4197616577148438,0,0,0.9937199950218201
0.132225503,0,0,1.3263877630233765,0,0,0.8408399820327759
0.133226841,0,0,1.3479355573654175,0,0,1.223039984703064
0.134225809,0,0,1.37906014919281,0,0,0.8408399820327759
0.135225795,0,0,1.4053963422775269,0,0,0.9172800183296204
0.136226115,0,0,1.3311761617660522,0,0,0.8408399820327759
0.137227324,0,0,1.4724340438842773,0,0,0.6879600286483765
0.138226162,0,0,1.4173674583435059,0,0,0.8408399820327759
0.139226055,0,0,1.4844050407409668,0,0,0.8408399820327759
0.140226079,0,0,1.5682021379470825,0,0,0.3822000026702881
0.141227084,0,0,1.4724340438842773,0,0,0.9172800183296204
0.142226014,0,0,1.3431471586227417,0,0,0.8408399820327759
0.143233704,0,0,1.2737152576446533,0,0,0.9172800183296204
0.144291245,0,0,1.3407529592514038,0,0,0.8408399820327759
0.145265028,0,0,1.256955862045288,0,0,0.9937199950218201
0.1462282,0,0,1.3694833517074585,0,0,0.5350799560546875
0.147226316,0,0,1.3024457693099976,0,0,0.7644000053405762
0.148226765,0,0,1.3551181554794312,0,0,0.6879600286483765
0.149228455,0,0,1.4844050407409668,0,0,0.8408399820327759
0.150225534,0,0,1.5849615335464478,0,0,0.611519992351532
0.151226317,0,0,1.482010841369629,0,0,0.6879600286483765
0.152226081,0,0,1.4867992401123047,0,0,0.8408399820327759
0.153226882,0,0,1.3335703611373901,0,0,0.6879600286483765
0.154226331,0,0,1.3431471586227417,0,0,0.8408399820327759
0.155226133,0,0,1.400607943534851,0,0,0.9937199950218201
0.156226193,0,0,1.3503297567367554,0,0,0.8408399820327759
0.157227735,0,0,1.3646949529647827,0,0,1.070159912109375
0.158225962,0,0,1.3263877630233765,0,0,0.7644000053405762
0.159225985,0,0,1.4317326545715332,0,0,0.8408399820327759
0.16022599,0,0,1.436521053314209,0,0,0.8408399820327759
0.16122718,0,0,1.4484920501708984,0,0,0.9172800183296204
0.162226222,0,0,1.4508862495422363,0,0,0.7644000053405762
0.163226116,0,0,1.5322890281677246,0,0,0.9172800183296204
0.164226046,0,0,1.4508862495422363,0,0,0.9172800183296204
0.165226921,0,0,1.335964560508728,0,0,0.6879600286483765
0.166225982,0,0,1.3215993642807007,0,0,0.9937199950218201
0.167225968,0,0,1.4317326545715332,0,0,0.8408399820327759
0.168225936,0,0,1.4508862495422363,0,0,0.9172800183296204
0.169227256,0,0,1.3646949529647827,0,0,0.7644000053405762
0.170226131,0,0,1.4963760375976563,0,0,0.7644000053405762
0.171225469,0,0,1.4460978507995605,0,0,0.9937199950218201
0.172226029,0,0,1.4413094520568848,0,0,0.6879600286483765
0.173227386,0,0,1.4724340438842773,0,0,0.7644000053405762
0.174225761,0,0,1.4891934394836426,0,0,1.070159912109375
0.175225636,0,0,1.403002142906189,0,0,0.9172800183296204
0.17622603,0,0,1.3072341680526733,0,0,0.4586400091648102
0.177227572,0,0,1.2952631711959839,0,0,1.070159912109375
0.178225984,0,0,1.400607943534851,0,0,0.7644000053405762
0.179225841,0,0,1.414973258972168,0,0,0.4586400091648102
0.180225679,0,0,1.3718775510787964,0,0,0.9172800183296204
0.181905434,0,0,1.4676456451416016,0,0,0
0.182226522,0,0,1.4700398445129395,0,0,1.1466000080108643
0.183224064,0,0,1.5442601442337036,0,0,0.9172800183296204
0.18422368,0,0,1.4867992401123047,0,0,0.5350799560546875
0.185225462,0,0,1.460463047027588,0,0,0.9172800183296204
0.186223523,0,0,1.4389152526855469,0,0,0.6879600286483765
0.187223713,0,0,1.2952631711959839,0,0,1.070159912109375
0.188223866,0,0,1.3311761617660522,0,0,0.9172800183296204
0.189224667,0,0,1.3455413579940796,0,0,0.9937199950218201
0.19022406,0,0,1.3407529592514038,0,0,0.6879600286483765
0.191223584,0,0,1.3431471586227417,0,0,1.223039984703064
0.192223607,0,0,1.4676456451416016,0,0,0.6879600286483765
0.193223908,0,0,1.6041151285171509,0,0,0.9172800183296204
0.194224191,0,0,1.5155296325683594,0,0,0.5350799560546875
0.195223751,0,0,1.436521053314209,0,0,0.6879600286483765
0.1962232,0,0,1.53707754611969,0,0,0.8408399820327759
0.197228335,0,0,1.4101848602294922,0,0,0.7644000053405762
0.198227173,0,0,1.3287819623947144,0,0,0.5350799560546875
0.199226919,0,0,1.37906014919281,0,0,0.8408399820327759
0.200226701,0,0,1.3263877630233765,0,0,1.070159912109375
0.201227762,0,0,1.314416766166687,0,0,0.9172800183296204
0.202226526,0,0,1.335964560508728,0,0,0.9937199950218201
0.203226419,0,0,1.381454348564148,0,0,0.9172800183296204
0.204226591,0,0,1.4269442558288574,0,0,0.8408399820327759
0.205227799,0,0,1.4413094520568848,0,0,0.611519992351532
0.206226452,0,0,1.4101848602294922,0,0,0.6879600286483765
0.207226716,0,0,1.455674648284912,0,0,0.9172800183296204
0.208226517,0,0,1.403002142906189,0,0,0.8408399820327759
0.209227615,0,0,1.3862427473068237,0,0,0.6879600286483765
0.210235971,0,0,1.3766659498214722,0,0,1.1466000080108643
0.211227106,0,0,1.357512354850769,0,0,0.9172800183296204
0.212226426,0,0,1.3000515699386597,0,0,0.6879600286483765
0.213227782,0,0,1.2617442607879639,0,0,0.7644000053405762
0.214226658,0,0,1.4891934394836426,0,0,0.6879600286483765
0.215226422,0,0,1.4939818382263184,0,0,0.7644000053405762
0.216226463,0,0,1.4724340438842773,0,0,0.9172800183296204
0.217227727,0,0,1.4532804489135742,0,0,0.4586400091648102
0.218225955,0,0,1.4317326545715332,0,0,0.8408399820327759
0.219226404,0,0,1.5203180313110352,0,0,0.611519992351532
0.220226335,0,0,1.314416766166687,0,0,0.8408399820327759
0.221226876,0,0,1.335964560508728,0,0,1.070159912109375
0.222226529,0,0,1.280897855758667,0,0,0.8408399820327759
0.223226571,0,0,1.280897855758667,0,0,0.8408399820327759
0.224226854,0,0,1.4293384552001953,0,0,0.6879600286483765
0.22522784,0,0,1.436521053314209,0,0,0.5350799560546875
0.226226493,0,0,1.4484920501708984,0,0,0.7644000053405762
0.227227405,0,0,1.5466543436050415,0,0,1.070159912109375
0.228226466,0,0,1.5705963373184204,0,0,0.611519992351532
0.229227822,0,0,1.5969325304031372,0,0,0.9937199950218201
0.230226475,0,0,1.338358759880066,0,0,0.6879600286483765
0.231226684,0,0,1.3455413579940796,0,0,0.6879600286483765
0.232226541,0,0,1.3910311460494995,0,0,0.7644000053405762
0.233227601,0,0,1.335964560508728,0,0,0.8408399820327759
0.234226365,0,0,1.3024457693099976,0,0,0.9937199950218201
0.235226407,0,0,1.3431471586227417,0,0,1.375920057296753
0.236226023,0,0,1.4317326545715332,0,0,0.7644000053405762
0.237227657,0,0,1.5514427423477173,0,0,0.9172800183296204
0.238226329,0,0,1.4676456451416016,0,0,0.7644000053405762
0.239226259,0,0,1.4437036514282227,0,0,0.7644000053405762
0.240225894,0,0,1.534683346748352,0,0,1.070159912109375
0.241226584,0,0,1.479616641998291,0,0,0.9172800183296204
0.242223922,0,0,1.3934253454208374,0,0,0.6879600286483765
0.243223612,0,0,1.3670891523361206,0,0,0.9172800183296204
0.244223728,0,0,1.3910311460494995,0,0,0.8408399820327759
0.246194701,0,0,1.3910311460494995,0,0,1.1466000080108643
0.246358995,0,0,1.4077905416488647,0,0,0.9172800183296204
0.247227354,0,0,1.45806884765625,0,0,0.7644000053405762
0.248226729,0,0,1.53707754611969,0,0,0.8408399820327759
0.249228326,0,0,1.6184803247451782,0,0,0.8408399820327759
0.250226609,0,0,1.5179238319396973,0,0,0.8408399820327759
0.251226762,0,0,1.5466543436050415,0,0,0.7644000053405762
0.252226804,0,0,1.4891934394836426,0,0,0.5350799560546875
0.253227734,0,0,1.3838485479354858,0,0,0.5350799560546875
0.254226665,0,0,1.3646949529647827,0,0,1.070159912109375
0.255226577,0,0,1.4460978507995605,0,0,0.7644000053405762
0.256226471,0,0,1.37906014919281,0,0,0.9937199950218201
0.257268068,0,0,1.3862427473068237,0,0,0.9937199950218201
0.258228795,0,0,1.4700398445129395,0,0,0.7644000053405762
0.259226985,0,0,1.5107412338256836,0,0,0.9172800183296204
0.260226564,0,0,1.4939818382263184,0,0,0.6879600286483765
0.261227439,0,0,1.5131354331970215,0,0,0.5350799560546875
0.262226611,0,0,1.5682021379470825,0,0,0.7644000053405762
0.263226634,0,0,1.5418659448623657,0,0,0.7644000053405762
0.264226861,0,0,1.3694833517074585,0,0,0.8408399820327759
0.265227755,0,0,1.3263877630233765,0,0,1.1466000080108643
0.266226538,0,0,1.3742717504501343,0,0,0.6879600286483765
0.267226561,0,0,1.2856862545013428,0,0,0.611519992351532
0.268226418,0,0,1.3335703611373901,0,0,0.611519992351532
0.269227682,0,0,1.3862427473068237,0,0,0.6879600286483765
0.270226668,0,0,1.5083470344543457,0,0,0.611519992351532
0.271226395,0,0,1.4939818382263184,0,0,0.9937199950218201
0.272226548,0,0,1.4508862495422363,0,0,0.7644000053405762
0.273226868,0,0,1.5490485429763794,0,0,0.8408399820327759
0.27422665,0,0,1.4532804489135742,0,0,0.8408399820327759
0.275226359,0,0,1.3407529592514038,0,0,0.6879600286483765
0.276226493,0,0,1.4101848602294922,0,0,1.070159912109375
0.277227572,0,0,1.3838485479354858,0,0,0.8408399820327759
0.278226484,0,0,1.3335703611373901,0,0,0.8408399820327759
0.2792261,0,0,1.3527239561080933,0,0,0.9172800183296204
0.280226494,0,0,1.3958195447921753,0,0,0.6879600286483765
0.281235925,0,0,1.4413094520568848,0,0,0.611519992351532
0.282231448,0,0,1.5514427423477173,0,0,1.070159912109375
0.283226694,0,0,1.5945383310317993,0,0,0.4586400091648102
0.284226698,0,0,1.4915876388549805,0,0,0.6879600286483765
0.285228074,0,0,1.4676456451416016,0,0,1.070159912109375
0.286226319,0,0,1.3910311460494995,0,0,0.9172800183296204
0.287226843,0,0,1.3623007535934448,0,0,0.9172800183296204
0.288226458,0,0,1.3024457693099976,0,0,0.9172800183296204
0.289239982,0,0,1.292868971824646,0,0,0.611519992351532
0.290228283,0,0,1.4269442558288574,0,0,0.9172800183296204
0.291226769,0,0,1.4772224426269531,0,0,0.7644000053405762
0.292226348,0,0,1.5514427423477173,0,0,0.6879600286483765
0.29322852,0,0,1.4939818382263184,0,0,1.223039984703064
0.29422658,0,0,1.479616641998291,0,0,0.4586400091648102
0.295226492,0,0,1.455674648284912,0,0,0.9172800183296204
0.296226478,0,0,1.4293384552001953,0,0,0.9937199950218201
0.29722778,0,0,1.3623007535934448,0,0,0.5350799560546875
0.298226396,0,0,1.381454348564148,0,0,1.070159912109375
0.29922666,0,0,1.4867992401123047,0,0,0.9172800183296204
0.300226387,0,0,1.3623007535934448,0,0,0.7644000053405762
0.30122728,0,0,1.278503656387329,0,0,0.7644000053405762
0.302226581,0,0,1.3263877630233765,0,0,0.6879600286483765
0.303226457,0,0,1.460463047027588,0,0,0.5350799560546875
0.304226184,0,0,1.525106430053711,0,0,1.1466000080108643
0.305227281,0,0,1.556231141090393,0,0,0.5350799560546875
0.306226527,0,0,1.5155296325683594,0,0,0.5350799560546875
0.307226606,0,0,1.5059528350830078,0,0,0.9937199950218201
0.308226221,0,0,1.381454348564148,0,0,0.7644000053405762
0.309277022,0,0,1.359906554222107,0,0,0.611519992351532
0.310226861,0,0,1.3407529592514038,0,0,0.8408399820327759
0.311453733,0,0,1.2976573705673218,0,0,0.8408399820327759
0.312458386,0,0,1.3838485479354858,0,0,0.6879600286483765
0.313459853,0,0,1.414973258972168,0,0,0.8408399820327759
0.314457155,0,0,1.5490485429763794,0,0,0.7644000053405762
0.315456919,0,0,1.4963760375976563,0,0,0.9172800183296204
0.316456738,0,0,1.4437036514282227,0,0,0.7644000053405762
0.317459113,0,0,1.4915876388549805,0,0,0.8408399820327759
0.318456729,0,0,1.482010841369629,0,0,1.223039984703064
0.319456234,0,0,1.359906554222107,0,0,0.611519992351532
0.320462665,0,0,1.3886369466781616,0,0,0.9937199950218201
0.321457077,0,0,1.3479355573654175,0,0,0.6879600286483765
0.322455971,0,0,1.280897855758667,0,0,0.6879600286483765
0.323456754,0,0,1.3694833517074585,0,0,0.9172800183296204
0.324457036,0,0,1.3982137441635132,0,0,0.6879600286483765
0.325457263,0,0,1.4987702369689941,0,0,0.7644000053405762
0.326456435,0,0,1.482010841369629,0,0,1.375920057296753
0.32745618,0,0,1.4413094520568848,0,0,0.5350799560546875
0.328456185,0,0,1.4221558570861816,0,0,0.9937199950218201
0.32945482,0,0,1.3862427473068237,0,0,0.9937199950218201
0.330448343,0,0,1.3623007535934448,0,0,0.7644000053405762
0.3314507,0,0,1.3646949529647827,0,0,0.9172800183296204
0.332449871,0,0,1.3910311460494995,0,0,0.9172800183296204
0.333465302,0,0,1.381454348564148,0,0,0.8408399820327759
0.334457621,0,0,1.400607943534851,0,0,0.9937199950218201
0.335456811,0,0,1.4077905416488647,0,0,0.7644000053405762
0.336758979,0,0,1.4700398445129395,0,0,0.9172800183296204
0.337474599,0,0,1.53707754611969,0,0,0.9937199950218201
0.33851764,0,0,1.4437036514282227,0,0,0.5350799560546875
0.339510034,0,0,1.5107412338256836,0,0,0.7644000053405762
0.340480076,0,0,1.5083470344543457,0,0,0.7644000053405762
0.341859113,0,0,1.338358759880066,0,0,0.8408399820327759
0.342478215,0,0,1.3766659498214722,0,0,0
0.34347322,0,0,1.357512354850769,0,0,0.6879600286483765
0.344476558,0,0,1.4676456451416016,0,0,0.7644000053405762
0.345466711,0,0,1.414973258972168,0,0,0.8408399820327759
0.346517382,0,0,1.41257905960083,0,0,0.6879600286483765
0.347650367,0,0,1.4460978507995605,0,0,0.6879600286483765
0.348471781,0,0,1.4867992401123047,0,0,0.9937199950218201
0.349456638,0,0,1.4628572463989258,0,0,0.6879600286483765
0.350453532,0,0,1.41257905960083,0,0,0.6879600286483765
0.351499462,0,0,1.4772224426269531,0,0,1.070159912109375
0.352461727,0,0,1.3551181554794312,0,0,0.6879600286483765
0.353455194,0,0,1.3838485479354858,0,0,1.070159912109375
0.354453607,0,0,1.3623007535934448,0,0,0.7644000053405762
0.355453334,0,0,1.3192051649093628,0,0,0.6879600286483765
0.356452913,0,0,1.3886369466781616,0,0,1.070159912109375
0.357473695,0,0,1.4652514457702637,0,0,1.1466000080108643
0.358454385,0,0,1.460463047027588,0,0,0.8408399820327759
0.359452964,0,0,1.434126853942871,0,0,0.9937199950218201
0.360452802,0,0,1.501164436340332,0,0,0.305759996175766
0.361452029,0,0,1.4891934394836426,0,0,1.223039984703064
0.362452608,0,0,1.4508862495422363,0,0,1.070159912109375
0.363452391,0,0,1.3766659498214722,0,0,0.611519992351532
0.364452396,0,0,1.3623007535934448,0,0,0.6879600286483765
0.365454845,0,0,1.3910311460494995,0,0,0.8408399820327759
0.36645285,0,0,1.3646949529647827,0,0,0.9172800183296204
0.36745204,0,0,1.3718775510787964,0,0,0.9172800183296204
0.36845173,0,0,1.3096283674240112,0,0,0.611519992351532
0.36948216,0,0,1.4221558570861816,0,0,0.611519992351532
0.37045385,0,0,1.4484920501708984,0,0,0.8408399820327759
0.371451781,0,0,1.460463047027588,0,0,0.5350799560546875
0.372451082,0,0,1.5203180313110352,0,0,0.7644000053405762
0.373451569,0,0,1.5298948287963867,0,0,0.9937199950218201
0.374452333,0,0,1.5083470344543457,0,0,0.7644000053405762
0.375451837,0,0,1.4221558570861816,0,0,0.9172800183296204
0.376451768,0,0,1.400607943534851,0,0,0.7644000053405762
0.377452977,0,0,1.3192051649093628,0,0,1.1466000080108643
0.378452574,0,0,1.3239935636520386,0,0,1.1466000080108643
0.379454042,0,0,1.3239935636520386,0,0,0.5350799560546875
0.380453343,0,0,1.4844050407409668,0,0,0.6879600286483765
0.381449478,0,0,1.5682021379470825,0,0,0.6879600286483765
0.382446686,0,0,1.4987702369689941,0,0,0.611519992351532
0.383446617,0,0,1.4891934394836426,0,0,0.9172800183296204
0.384446066,0,0,1.4915876388549805,0,0,1.223039984703064
0.385463219,0,0,1.4245500564575195,0,0,0.9172800183296204
0.386549482,0,0,1.338358759880066,0,0,0.8408399820327759
0.387472562,0,0,1.3120225667953491,0,0,0.9172800183296204
0.388497881,0,0,1.3694833517074585,0,0,0.6879600286483765
0.38946896,0,0,1.4532804489135742,0,0,0.8408399820327759
0.390457724,0,0,1.4389152526855469,0,0,0.8408399820327759
0.391486896,0,0,1.482010841369629,0,0,0.5350799560546875
0.392478567,0,0,1.525106430053711,0,0,0.9937199950218201
0.393473183,0,0,1.501164436340332,0,0,0.9172800183296204
0.394722573,0,0,1.4532804489135742,0,0,0.9172800183296204
0.395504637,0,0,1.4891934394836426,0,0,1.223039984703064
0.397021023,0,0,1.3335703611373901,0,0,0.611519992351532
0.397547164,0,0,1.4053963422775269,0,0,0.6879600286483765
0.398747055,0,0,1.4437036514282227,0,0,0.8408399820327759
0.399493138,0,0,1.455674648284912,0,0,0.7644000053405762
0.400487513,0,0,1.4317326545715332,0,0,0.9172800183296204
0.401466463,0,0,1.4077905416488647,0,0,0.6879600286483765
0.402499467,0,0,1.50355863571167,0,0,0.9172800183296204
0.403469083,0,0,1.5682021379470825,0,0,0.9172800183296204
0.404461384,0,0,1.534683346748352,0,0,0.6879600286483765
0.405462926,0,0,1.4915876388549805,0,0,0.9172800183296204
0.406457061,0,0,1.5514427423477173,0,0,0.8408399820327759
0.407457288,0,0,1.3934253454208374,0,0,0.8408399820327759
0.408457867,0,0,1.3694833517074585,0,0,0.9937199950218201
0.409459853,0,0,1.3766659498214722,0,0,0.611519992351532
0.410458543,0,0,1.3742717504501343,0,0,0.6879600286483765
0.411456807,0,0,1.3982137441635132,0,0,1.1466000080108643
0.412353369,0,0,1.4460978507995605,0,0,0.9172800183296204
0.413382577,0,0,1.5059528350830078,0,0,0.7644000053405762
0.414379137,0,0,1.4891934394836426,0,0,0.8408399820327759
0.415378457,0,0,1.479616641998291,0,0,0.5350799560546875
0.416379203,0,0,1.4700398445129395,0,0,0.9937199950218201
0.417381152,0,0,1.4772224426269531,0,0,0.9937199950218201
0.418378934,0,0,1.3335703611373901,0,0,0.7644000053405762
0.419378884,0,0,1.2713210582733154,0,0,0.611519992351532
0.420378907,0,0,1.3311761617660522,0,0,20.409481048583984
0.421381227,0,0,1.3958195447921753,0,0,0.6879600286483765
0.422379083,0,0,1.400607943534851,0,0,0.8408399820327759
0.423378607,0,0,1.45806884765625,0,0,0.8408399820327759
0.424379037,0,0,1.5442601442337036,0,0,0.8408399820327759
0.425380931,0,0,1.4676456451416016,0,0,0.8408399820327759
0.426379306,0,0,1.4844050407409668,0,0,0.6879600286483765
0.427384681,0,0,1.482010841369629,0,0,0.9172800183296204
0.428383131,0,0,1.5490485429763794,0,0,1.070159912109375
0.429381747,0,0,1.3982137441635132,0,0,0.7644000053405762
0.430379215,0,0,1.3311761617660522,0,0,0.8408399820327759
0.431378775,0,0,1.3479355573654175,0,0,0.8408399820327759
0.432378965,0,0,1.3072341680526733,0,0,0.8408399820327759
0.433402321,0,0,1.3551181554794312,0,0,0.8408399820327759
0.43438103,0,0,1.335964560508728,0,0,0.9937199950218201
0.43537935,0,0,1.5059528350830078,0,0,0.8408399820327759
0.436378373,0,0,1.5131354331970215,0,0,1.070159912109375
0.437377915,0,0,1.501164436340332,0,0,0.9172800183296204
0.438373901,0,0,1.5682021379470825,0,0,0.6879600286483765
0.439373443,0,0,1.460463047027588,0,0,1.070159912109375
0.440373448,0,0,1.335964560508728,0,0,0.9172800183296204
0.441379971,0,0,1.3431471586227417,0,0,0.7644000053405762
0.442377958,0,0,1.37906014919281,0,0,0.9172800183296204
0.443377925,0,0,1.4508862495422363,0,0,0.9172800183296204
0.444378263,0,0,1.3910311460494995,0,0,0.7644000053405762
0.445380065,0,0,1.3958195447921753,0,0,0.9172800183296204
0.446377699,0,0,1.4748282432556152,0,0,0.9937199950218201
0.447378241,0,0,1.4891934394836426,0,0,0.9172800183296204
0.448377338,0,0,1.460463047027588,0,0,0.7644000053405762
0.44938051,0,0,1.455674648284912,0,0,0.611519992351532
0.450377792,0,0,1.3910311460494995,0,0,0.8408399820327759
0.451378075,0,0,1.434126853942871,0,0,0.8408399820327759
0.452376987,0,0,1.3479355573654175,0,0,0.9172800183296204
0.453380714,0,0,1.3718775510787964,0,0,1.070159912109375
0.45437796,0,0,1.3910311460494995,0,0,0.611519992351532
0.455378279,0,0,1.3287819623947144,0,0,0.7644000053405762
0.456378136,0,0,1.436521053314209,0,0,0.7644000053405762
0.457379659,0,0,1.4628572463989258,0,0,0.8408399820327759
0.458377035,0,0,1.4437036514282227,0,0,0.7644000053405762
0.459376836,0,0,1.5059528350830078,0,0,0.611519992351532
0.460377304,0,0,1.4963760375976563,0,0,0.9937199950218201
0.461380568,0,0,1.5203180313110352,0,0,0.8408399820327759
0.462377572,0,0,1.4532804489135742,0,0,0.7644000053405762
0.463378336,0,0,1.3910311460494995,0,0,0.8408399820327759
0.464377489,0,0,1.3479355573654175,0,0,0.9937199950218201
0.465380476,0,0,1.3431471586227417,0,0,0.6879600286483765
0.466377981,0,0,1.3192051649093628,0,0,0.9172800183296204
0.467378004,0,0,1.3048399686813354,0,0,0.8408399820327759
0.468377842,0,0,1.4437036514282227,0,0,0.5350799560546875
0.469380384,0,0,1.4891934394836426,0,0,0.9172800183296204
0.470377778,0,0,1.5418659448623657,0,0,0.4586400091648102
0.471377745,0,0,1.5083470344543457,0,0,0.9172800183296204
0.472377528,0,0,1.5179238319396973,0,0,1.070159912109375
0.473380422,0,0,1.4221558570861816,0,0,0.7644000053405762
0.474377778,0,0,1.314416766166687,0,0,0.8408399820327759
0.475378061,0,0,1.3670891523361206,0,0,1.070159912109375
0.476377603,0,0,1.414973258972168,0,0,0.9172800183296204
0.477378737,0,0,1.3958195447921753,0,0,0.9172800183296204
0.478377242,0,0,1.4269442558288574,0,0,0.611519992351532
0.479437505,0,0,1.525106430053711,0,0,0.9937199950218201
0.480379641,0,0,1.4508862495422363,0,0,1.1466000080108643
0.481381831,0,0,1.4700398445129395,0,0,0.5350799560546875
0.482378947,0,0,1.5107412338256836,0,0,0.9937199950218201
0.483379192,0,0,1.5322890281677246,0,0,0.9937199950218201
0.484378715,0,0,1.4413094520568848,0,0,0.6879600286483765
0.485380702,0,0,1.4197616577148438,0,0,0.9172800183296204
0.486385706,0,0,1.3910311460494995,0,0,0.9172800183296204
0.487381619,0,0,1.3646949529647827,0,0,0.9937199950218201
0.488378438,0,0,1.3694833517074585,0,0,0.611519992351532
0.489382017,0,0,1.3431471586227417,0,0,0.6879600286483765
0.490378504,0,0,1.5490485429763794,0,0,0.7644000053405762
0.491378731,0,0,1.5442601442337036,0,0,0.9172800183296204
0.492378791,0,0,1.5538369417190552,0,0,0.611519992351532
0.493381203,0,0,1.501164436340332,0,0,0.8408399820327759
0.494378838,0,0,1.4628572463989258,0,0,1.223039984703064
0.495378213,0,0,1.3551181554794312,0,0,0.8408399820327759
0.496378866,0,0,1.400607943534851,0,0,0.9172800183296204
0.497395685,0,0,1.37906014919281,0,0,0.9172800183296204
0.498379783,0,0,1.3742717504501343,0,0,0.8408399820327759
0.49937901,0,0,1.3862427473068237,0,0,0.611519992351532
0.500378681,0,0,1.434126853942871,0,0,0.7644000053405762
0.501381408,0,0,1.5131354331970215,0,0,0.611519992351532
0.502377654,0,0,1.5322890281677246,0,0,0.7644000053405762
0.50337914,0,0,1.5969325304031372,0,0,0.7644000053405762
0.504378682,0,0,1.6065093278884888,0,0,0.6879600286483765
0.50538128,0,0,1.6160861253738403,0,0,1.1466000080108643
0.506379062,0,0,1.525106430053711,0,0,0.5350799560546875
0.507378845,0,0,1.3670891523361206,0,0,0.7644000053405762
0.508378424,0,0,1.4413094520568848,0,0,1.1466000080108643
0.50938128,0,0,1.3527239561080933,0,0,0.6879600286483765
0.510452525,0,0,1.2665326595306396,0,0,0.8408399820327759
0.511379512,0,0,1.3407529592514038,0,0,0.6879600286483765
0.512391165,0,0,1.4867992401123047,0,0,0.611519992351532
0.513521964,0,0,1.5538369417190552,0,0,0.9937199950218201
0.514461026,0,0,1.534683346748352,0,0,0.611519992351532
0.515457919,0,0,1.4963760375976563,0,0,0.7644000053405762
0.516456609,0,0,1.5466543436050415,0,0,0.8408399820327759
0.517459188,0,0,1.4508862495422363,0,0,0.8408399820327759
0.518456878,0,0,1.359906554222107,0,0,0.611519992351532
0.519456976,0,0,1.4053963422775269,0,0,1.070159912109375
0.520456962,0,0,1.357512354850769,0,0,0.7644000053405762
0.521461541,0,0,1.4293384552001953,0,0,0.8408399820327759
0.522456212,0,0,1.3958195447921753,0,0,0.611519992351532
0.523456458,0,0,1.482010841369629,0,0,0.6879600286483765
0.524456277,0,0,1.4652514457702637,0,0,0.9172800183296204
0.525456245,0,0,1.5179238319396973,0,0,0.611519992351532
0.526456343,0,0,1.455674648284912,0,0,0.6879600286483765
0.527456607,0,0,1.5107412338256836,0,0,0.9937199950218201
0.528456426,0,0,1.4844050407409668,0,0,0.6879600286483765
0.529457302,0,0,1.3670891523361206,0,0,0.5350799560546875
0.530457084,0,0,1.3694833517074585,0,0,1.070159912109375
0.531456904,0,0,1.4484920501708984,0,0,0.7644000053405762
0.532456853,0,0,1.338358759880066,0,0,0.7644000053405762
0.533457932,0,0,1.3742717504501343,0,0,0.6879600286483765
0.534457307,0,0,1.501164436340332,0,0,0.7644000053405762
0.535456275,0,0,1.5490485429763794,0,0,0.8408399820327759
0.536456761,0,0,1.4939818382263184,0,0,0.6879600286483765
0.537454544,0,0,1.5083470344543457,0,0,0.8408399820327759
0.538450049,0,0,1.5107412338256836,0,0,0.9937199950218201
0.539449924,0,0,1.482010841369629,0,0,0.7644000053405762
0.540449503,0,0,1.381454348564148,0,0,0.9172800183296204
0.541459841,0,0,1.335964560508728,0,0,0.9937199950218201
0.542457142,0,0,1.434126853942871,0,0,0.611519992351532
0.543456591,0,0,1.3311761617660522,0,0,0.9937199950218201
0.544456929,0,0,1.3239935636520386,0,0,0.7644000053405762
0.545456064,0,0,1.37906014919281,0,0,0.7644000053405762
0.546448643,0,0,1.522712230682373,0,0,0.8408399820327759
0.547450148,0,0,1.460463047027588,0,0,0.6879600286483765
0.548449338,0,0,1.4221558570861816,0,0,0.9937199950218201
0.54945725,0,0,1.45806884765625,0,0,0.9937199950218201
0.550456403,0,0,1.460463047027588,0,0,0.9172800183296204
0.551456074,0,0,1.3215993642807007,0,0,0.6879600286483765
0.552455042,0,0,1.2952631711959839,0,0,0.9172800183296204
0.553458769,0,0,1.3503297567367554,0,0,0.7644000053405762
0.554455015,0,0,1.4101848602294922,0,0,0.8408399820327759
0.555454575,0,0,1.455674648284912,0,0,0.9937199950218201
0.556455247,0,0,1.5131354331970215,0,0,0.9937199950218201
0.557457325,0,0,1.53707754611969,0,0,0.8408399820327759
0.558455775,0,0,1.601720929145813,0,0,0.611519992351532
0.559454539,0,0,1.5442601442337036,0,0,0.8408399820327759
0.560453729,0,0,1.479616641998291,0,0,1.1466000080108643
0.561459011,0,0,1.4413094520568848,0,0,0.9172800183296204
0.562455238,0,0,1.3215993642807007,0,0,0.611519992351532
0.56345541,0,0,1.3192051649093628,0,0,0.8408399820327759
0.564454933,0,0,1.4077905416488647,0,0,0.7644000053405762
0.565456308,0,0,1.314416766166687,0,0,0.9172800183296204
0.566455702,0,0,1.3311761617660522,0,0,0.9937199950218201
0.567455133,0,0,1.4508862495422363,0,0,0.9172800183296204
0.568454045,0,0,1.4532804489135742,0,0,0.8408399820327759
0.569458865,0,0,1.4867992401123047,0,0,0.9172800183296204
0.570455721,0,0,1.4676456451416016,0,0,0.9172800183296204
0.571455541,0,0,1.5107412338256836,0,0,0.6879600286483765
0.572455138,0,0,1.4867992401123047,0,0,0.9172800183296204
0.573458717,0,0,1.2449848651885986,0,0,0.9937199950218201
0.574455444,0,0,1.3263877630233765,0,0,0.9172800183296204
0.575455431,0,0,1.37906014919281,0,0,0.9172800183296204
0.576455695,0,0,1.3551181554794312,0,0,0.9937199950218201
0.577458329,0,0,1.403002142906189,0,0,0.8408399820327759
0.578456241,0,0,1.4724340438842773,0,0,0.8408399820327759
0.57945582,0,0,1.5203180313110352,0,0,0.9172800183296204
0.580455362,0,0,1.4867992401123047,0,0,0.8408399820327759
0.581458219,0,0,1.4652514457702637,0,0,0.9172800183296204
0.582455483,0,0,1.5298948287963867,0,0,0.6879600286483765
0.583455617,0,0,1.482010841369629,0,0,0.9172800183296204
0.584455659,0,0,1.3192051649093628,0,0,0.8408399820327759
0.585458442,0,0,1.3096283674240112,0,0,0.9937199950218201
0.586455206,0,0,1.3766659498214722,0,0,0.6879600286483765
0.587455044,0,0,1.3862427473068237,0,0,0.8408399820327759
0.588454475,0,0,1.3862427473068237,0,0,1.070159912109375
0.589457294,0,0,1.4269442558288574,0,0,0.6879600286483765
0.590454855,0,0,1.4700398445129395,0,0,0.7644000053405762
0.59145536,0,0,1.4652514457702637,0,0,0.9172800183296204
0.592455772,0,0,1.525106430053711,0,0,0.5350799560546875
0.593457925,0,0,1.4389152526855469,0,0,0.9172800183296204
0.594455893,0,0,1.5083470344543457,0,0,0.8408399820327759
0.595455305,0,0,1.3287819623947144,0,0,0.6879600286483765
0.596455124,0,0,1.3527239561080933,0,0,1.070159912109375
0.59745587,0,0,1.4197616577148438,0,0,1.1466000080108643
0.598454986,0,0,1.3455413579940796,0,0,1.223039984703064
0.599454991,0,0,1.3120225667953491,0,0,0.6879600286483765
0.600455422,0,0,1.4389152526855469,0,0,0.611519992351532
0.601454889,0,0,1.5059528350830078,0,0,0.7644000053405762
0.602449598,0,0,1.4915876388549805,0,0,0.9172800183296204
0.603625045,0,0,1.5155296325683594,0,0,0.8408399820327759
0.604456885,0,0,1.5682021379470825,0,0,1.070159912109375
0.605457557,0,0,1.5825673341751099,0,0,1.1466000080108643
0.606455136,0,0,1.400607943534851,0,0,0.611519992351532
0.607455474,0,0,1.3455413579940796,0,0,0.9172800183296204
0.60845483,0,0,1.3527239561080933,0,0,1.070159912109375
0.60945978,0,0,1.2976573705673218,0,0,0.9172800183296204
0.610529876,0,0,1.3742717504501343,0,0,1.070159912109375
0.611457012,0,0,1.381454348564148,0,0,0.8408399820327759
0.612456442,0,0,1.534683346748352,0,0,0.611519992351532
0.613424355,0,0,1.4867992401123047,0,0,0.9937199950218201
0.614413712,0,0,1.4389152526855469,0,0,0.8408399820327759
0.615412643,0,0,1.659181833267212,0,0,1.070159912109375
0.616412666,0,0,1.5131354331970215,0,0,0.9172800183296204
0.617415671,0,0,1.3287819623947144,0,0,0.9172800183296204
0.618412268,0,0,1.4221558570861816,0,0,1.070159912109375
0.619412514,0,0,1.434126853942871,0,0,0.7644000053405762
0.620412648,0,0,1.3886369466781616,0,0,0.6879600286483765
0.621413301,0,0,1.4197616577148438,0,0,1.070159912109375
0.622411028,0,0,1.4772224426269531,0,0,0.611519992351532
0.623411385,0,0,1.5322890281677246,0,0,0.611519992351532
0.624427056,0,0,1.558625340461731,0,0,0.8408399820327759
0.625424265,0,0,1.482010841369629,0,0,0.611519992351532
0.626413473,0,0,1.5131354331970215,0,0,0.9172800183296204
0.627412571,0,0,1.50355863571167,0,0,0.8408399820327759
0.628412242,0,0,1.3670891523361206,0,0,0.6879600286483765
0.629414636,0,0,1.3192051649093628,0,0,0.9172800183296204
0.630411974,0,0,1.3718775510787964,0,0,0.9937199950218201
0.631412386,0,0,1.3072341680526733,0,0,0.7644000053405762
0.632411595,0,0,1.3000515699386597,0,0,1.1466000080108643
0.633415489,0,0,1.3263877630233765,0,0,0.7644000053405762
0.634412438,0,0,1.4987702369689941,0,0,0.7644000053405762
0.635413072,0,0,1.4724340438842773,0,0,0.6879600286483765
0.636411892,0,0,1.5155296325683594,0,0,0.9937199950218201
0.637414749,0,0,1.4891934394836426,0,0,0.9937199950218201
0.638411698,0,0,1.3862427473068237,0,0,0.9172800183296204
0.639411832,0,0,1.3527239561080933,0,0,0.611519992351532
0.640433503,0,0,1.2832920551300049,0,0,1.2994799613952637
0.641416175,0,0,1.316810965538025,0,0,0.8408399820327759
0.642412625,0,0,1.316810965538025,0,0,0.7644000053405762
0.643412018,0,0,1.4053963422775269,0,0,0.8408399820327759
0.644412393,0,0,1.3958195447921753,0,0,0.8408399820327759
0.645421509,0,0,1.525106430053711,0,0,0.9937199950218201
0.646515476,0,0,1.5538369417190552,0,0,0.7644000053405762
0.647484055,0,0,1.5203180313110352,0,0,0.7644000053405762
0.648460338,0,0,1.5155296325683594,0,0,0.9937199950218201
0.649424121,0,0,1.4700398445129395,0,0,0.6879600286483765
0.650413978,0,0,1.4437036514282227,0,0,0.611519992351532
0.651413335,0,0,1.3503297567367554,0,0,0.8408399820327759
0.652411562,0,0,1.2856862545013428,0,0,0.9172800183296204
0.653414844,0,0,1.278503656387329,0,0,0.8408399820327759
0.654413182,0,0,1.3694833517074585,0,0,0.9172800183296204
0.655413095,0,0,1.3718775510787964,0,0,0.6879600286483765
0.65641284,0,0,1.5466543436050415,0,0,0.4586400091648102
0.657415308,0,0,1.556231141090393,0,0,1.1466000080108643
0.658412516,0,0,1.5322890281677246,0,0,0.7644000053405762
0.659413021,0,0,1.4891934394836426,0,0,0.9172800183296204
0.660412211,0,0,1.5179238319396973,0,0,1.070159912109375
0.661413938,0,0,1.400607943534851,0,0,0.6879600286483765
0.66242198,0,0,1.3479355573654175,0,0,0.7644000053405762
0.663413207,0,0,1.335964560508728,0,0,0.6879600286483765
0.664412675,0,0,1.3718775510787964,0,0,0.611519992351532
0.66541355,0,0,1.400607943534851,0,0,0.8408399820327759
0.666412592,0,0,1.37906014919281,0,0,1.1466000080108643
0.667411523,0,0,1.5131354331970215,0,0,0.9172800183296204
0.668412361,0,0,1.5753847360610962,0,0,-9.019920349121094
0.669412958,0,0,1.50355863571167,0,0,0.611519992351532
0.670411741,0,0,1.501164436340332,0,0,1.070159912109375
0.671412357,0,0,1.5275006294250488,0,0,0.8408399820327759
0.672411769,0,0,1.357512354850769,0,0,0
0.673413144,0,0,1.2761094570159912,0,0,0.9172800183296204
0.674411149,0,0,1.3862427473068237,0,0,0.9172800183296204
0.675412135,0,0,1.3311761617660522,0,0,1.070159912109375
0.676411844,0,0,1.3934253454208374,0,0,0.9937199950218201
0.677413645,0,0,1.4508862495422363,0,0,0.611519992351532
0.678411817,0,0,1.4939818382263184,0,0,0.5350799560546875
0.679412414,0,0,1.5107412338256836,0,0,0.8408399820327759
0.680412752,0,0,1.5514427423477173,0,0,0.5350799560546875
0.681415146,0,0,1.455674648284912,0,0,0.9172800183296204
0.682412188,0,0,1.5394717454910278,0,0,0.9172800183296204
0.683412007,0,0,1.4269442558288574,0,0,0.8408399820327759
0.684412716,0,0,1.3048399686813354,0,0,0.611519992351532
0.685415035,0,0,1.434126853942871,0,0,0.5350799560546875
0.686412448,0,0,1.4173674583435059,0,0,0.7644000053405762
0.687412267,0,0,1.359906554222107,0,0,0.7644000053405762
0.688412124,0,0,1.4413094520568848,0,0,0.611519992351532
0.689415092,0,0,1.482010841369629,0,0,0.6879600286483765
0.690412115,0,0,1.455674648284912,0,0,1.1466000080108643
0.691411564,0,0,1.5155296325683594,0,0,0.4586400091648102
0.692412365,0,0,1.5394717454910278,0,0,0.8408399820327759
0.693413963,0,0,1.5179238319396973,0,0,0.9172800183296204
0.694412227,0,0,1.4484920501708984,0,0,0.6879600286483765
0.695411213,0,0,1.3120225667953491,0,0,1.1466000080108643
0.69641157,0,0,1.2856862545013428,0,0,0.9937199950218201
0.697414815,0,0,1.3096283674240112,0,0,0.9937199950218201
0.698412117,0,0,1.278503656387329,0,0,0.7644000053405762
0.699412047,0,0,1.3694833517074585,0,0,0.6879600286483765
0.700412756,0,0,1.4389152526855469,0,0,0.7644000053405762
0.701414927,0,0,1.4700398445129395,0,0,0.9172800183296204
0.702412432,0,0,1.4508862495422363,0,0,-9.249239921569824
0.703412196,0,0,1.5275006294250488,0,0,0.8408399820327759
0.704457589,0,0,1.5131354331970215,0,0,0.9937199950218201
0.705505908,0,0,1.4293384552001953,0,0,0.8408399820327759
0.706485636,0,0,1.436521053314209,0,0,0.9172800183296204
0.707491807,0,0,1.4508862495422363,0,0,0.9172800183296204
0.708432239,0,0,1.3766659498214722,0,0,0.9172800183296204
0.709436854,0,0,1.278503656387329,0,0,0.9172800183296204
0.710472877,0,0,1.280897855758667,0,0,0.6879600286483765
0.711434401,0,0,1.4867992401123047,0,0,0.9172800183296204
0.712414351,0,0,1.4628572463989258,0,0,0.7644000053405762
0.713457633,0,0,1.4652514457702637,0,0,0.611519992351532
0.714456619,0,0,1.4772224426269531,0,0,0.611519992351532
0.715456365,0,0,1.455674648284912,0,0,0.9172800183296204
0.716456777,0,0,1.3287819623947144,0,0,0.5350799560546875
0.717457319,0,0,1.3335703611373901,0,0,0.9937199950218201
0.718455546,0,0,1.4724340438842773,0,0,0.7644000053405762
0.71945681,0,0,1.3742717504501343,0,0,0.7644000053405762
0.720456685,0,0,1.3910311460494995,0,0,0.9172800183296204
0.721463819,0,0,1.4053963422775269,0,0,0.7644000053405762
0.722459658,0,0,1.5466543436050415,0,0,0.8408399820327759
0.723457051,0,0,1.558625340461731,0,0,1.070159912109375
0.724456427,0,0,1.522712230682373,0,0,0.5350799560546875
0.725454339,0,0,1.4413094520568848,0,0,0.611519992351532
0.726450307,0,0,1.3838485479354858,0,0,0.9172800183296204
0.727595772,0,0,1.3838485479354858,0,0,1.1466000080108643
0.728455279,0,0,1.3934253454208374,0,0,1.070159912109375
0.729465599,0,0,1.4053963422775269,0,0,0.5350799560546875
0.730456733,0,0,1.3694833517074585,0,0,0.6879600286483765
0.731456108,0,0,1.3623007535934448,0,0,0.8408399820327759
0.732455076,0,0,1.4269442558288574,0,0,0.8408399820327759
0.733457414,0,0,1.4676456451416016,0,0,0.3822000026702881
0.734456438,0,0,1.4772224426269531,0,0,0.9937199950218201
0.735456128,0,0,1.525106430053711,0,0,0.6879600286483765
0.736455651,0,0,1.4915876388549805,0,0,0.8408399820327759
0.737457471,0,0,1.4867992401123047,0,0,0.9937199950218201
0.738456179,0,0,1.4652514457702637,0,0,0.7644000053405762
0.739454684,0,0,1.338358759880066,0,0,0.8408399820327759
0.740455652,0,0,1.3479355573654175,0,0,0.9172800183296204
0.741459879,0,0,1.316810965538025,0,0,0.9172800183296204
0.742455476,0,0,1.3503297567367554,0,0,0.9172800183296204
0.74345587,0,0,1.316810965538025,0,0,0.8408399820327759
0.744456245,0,0,1.577778935432434,0,0,0.5350799560546875
0.74545875,0,0,1.6041151285171509,0,0,1.070159912109375
0.746455903,0,0,1.4939818382263184,0,0,0.5350799560546875
0.747455648,0,0,1.4676456451416016,0,0,0.9172800183296204
0.748466264,0,0,1.460463047027588,0,0,0.8408399820327759
0.749470213,0,0,1.3455413579940796,0,0,0.6879600286483765
0.750492422,0,0,1.3934253454208374,0,0,0.9937199950218201
0.751482982,0,0,1.3838485479354858,0,0,0.7644000053405762
0.752487857,0,0,1.4101848602294922,0,0,0.6879600286483765
0.753507491,0,0,1.3670891523361206,0,0,0.9172800183296204
0.754482478,0,0,1.3670891523361206,0,0,0.9172800183296204
0.755461724,0,0,1.5705963373184204,0,0,0.7644000053405762
0.756481229,0,0,1.5275006294250488,0,0,0.8408399820327759
0.757488585,0,0,1.5538369417190552,0,0,0.7644000053405762
0.758486127,0,0,1.522712230682373,0,0,0.7644000053405762
0.759475743,0,0,1.4532804489135742,0,0,0.7644000053405762
0.760532617,0,0,1.3742717504501343,0,0,0.5350799560546875
0.761510511,0,0,1.3862427473068237,0,0,0.9172800183296204
0.762478369,0,0,1.3551181554794312,0,0,0.7644000053405762
0.763499299,0,0,1.3311761617660522,0,0,0.9172800183296204
0.764484063,0,0,1.3479355573654175,0,0,1.070159912109375
0.765470031,0,0,1.4101848602294922,0,0,0.9937199950218201
0.766469258,0,0,1.3934253454208374,0,0,0.5350799560546875
0.767465671,0,0,1.4389152526855469,0,0,0.9937199950218201
0.768479397,0,0,1.556231141090393,0,0,0.611519992351532
0.769475884,0,0,1.4772224426269531,0,0,0.9937199950218201
0.770477333,0,0,1.4053963422775269,0,0,0.9172800183296204
0.771491227,0,0,1.2641384601593018,0,0,0.6879600286483765
0.772491546,0,0,1.280897855758667,0,0,0.9172800183296204
0.773488625,0,0,1.3335703611373901,0,0,0.9172800183296204
0.774478019,0,0,1.3551181554794312,0,0,0.8408399820327759
0.775474876,0,0,1.3694833517074585,0,0,0.8408399820327759
0.776464714,0,0,1.4844050407409668,0,0,0.8408399820327759
0.77748607,0,0,1.5131354331970215,0,0,0.7644000053405762
0.778494112,0,0,1.5658079385757446,0,0,0.9172800183296204
0.779476858,0,0,1.5466543436050415,0,0,0.4586400091648102
0.78048064,0,0,1.556231141090393,0,0,0.4586400091648102
0.781540811,0,0,1.400607943534851,0,0,1.1466000080108643
0.782493928,0,0,1.2952631711959839,0,0,0.4586400091648102
0.783478711,0,0,1.3646949529647827,0,0,0.7644000053405762
0.78449566,0,0,1.4221558570861816,0,0,0.6879600286483765
0.785478868,0,0,1.403002142906189,0,0,0.9172800183296204
0.787041717,0,0,1.403002142906189,0,0,0.7644000053405762
0.787426916,0,0,1.556231141090393,0,0,0.611519992351532
0.788460105,0,0,1.53707754611969,0,0,0.9937199950218201
0.789460425,0,0,1.5969325304031372,0,0,0.7644000053405762
0.790461022,0,0,1.5610195398330688,0,0,0.6879600286483765
0.791469527,0,0,1.5275006294250488,0,0,0.611519992351532
0.79246431,0,0,1.53707754611969,0,0,0.9172800183296204
0.793461796,0,0,1.3934253454208374,0,0,0.8408399820327759
0.794452634,0,0,1.403002142906189,0,0,0.9937199950218201
0.795454824,0,0,1.3934253454208374,0,0,0.8408399820327759
0.796456385,0,0,1.3479355573654175,0,0,0.9172800183296204
0.797464667,0,0,1.3910311460494995,0,0,0.7644000053405762
0.798453857,0,0,1.436521053314209,0,0,0.7644000053405762
0.799453936,0,0,1.5418659448623657,0,0,0.6879600286483765
0.800571347,0,0,1.6112977266311646,0,0,0.9172800183296204
0.801498204,0,0,1.4676456451416016,0,0,0.6879600286483765
0.802462117,0,0,1.4939818382263184,0,0,1.070159912109375
0.803451048,0,0,1.4293384552001953,0,0,1.070159912109375
0.804451479,0,0,1.314416766166687,0,0,0.6879600286483765
0.805474113,0,0,1.3311761617660522,0,0,0.7644000053405762
0.806461062,0,0,1.4053963422775269,0,0,0.611519992351532
0.807459623,0,0,1.3311761617660522,0,0,0.9172800183296204
0.808460424,0,0,1.357512354850769,0,0,0.8408399820327759
0.80946104,0,0,1.4413094520568848,0,0,0.8408399820327759
0.810459619,0,0,1.5203180313110352,0,0,0.7644000053405762
0.811584474,0,0,1.4748282432556152,0,0,1.1466000080108643
0.812462869,0,0,1.482010841369629,0,0,0.7644000053405762
0.813460115,0,0,1.5658079385757446,0,0,0.9937199950218201
0.814386102,0,0,1.4221558570861816,0,0,1.070159912109375
0.815381662,0,0,1.338358759880066,0,0,0.6879600286483765
0.816381982,0,0,1.455674648284912,0,0,0.9937199950218201
0.817395487,0,0,1.3766659498214722,0,0,0.7644000053405762
0.818382603,0,0,1.3072341680526733,0,0,1.070159912109375
0.819381682,0,0,1.403002142906189,0,0,0.6879600286483765
0.820383835,0,0,1.4867992401123047,0,0,1.070159912109375
0.821382932,0,0,1.5705963373184204,0,0,0.7644000053405762
0.822380659,0,0,1.525106430053711,0,0,0.8408399820327759
0.823381145,0,0,1.558625340461731,0,0,0.6879600286483765
0.824382687,0,0,1.5945383310317993,0,0,0.9172800183296204
0.825383248,0,0,1.5466543436050415,0,0,1.1466000080108643
0.826382364,0,0,1.501164436340332,0,0,0.611519992351532
0.827380461,0,0,1.4484920501708984,0,0,0.7644000053405762
0.828382003,0,0,1.3670891523361206,0,0,0.6879600286483765
0.829383026,0,0,1.4077905416488647,0,0,0.8408399820327759
0.830380105,0,0,1.3742717504501343,0,0,0.6879600286483765
0.831381351,0,0,1.400607943534851,0,0,0.7644000053405762
0.832381559,0,0,1.5203180313110352,0,0,0.7644000053405762
0.83338336,0,0,1.5658079385757446,0,0,1.070159912109375
0.834382087,0,0,1.4939818382263184,0,0,0.6879600286483765
0.835382444,0,0,1.525106430053711,0,0,0.6879600286483765
0.836384523,0,0,1.4652514457702637,0,0,0.8408399820327759
0.837508193,0,0,1.3215993642807007,0,0,0.9172800183296204
0.838438458,0,0,1.3982137441635132,0,0,0.6879600286483765
0.839889401,0,0,1.4077905416488647,0,0,0.6879600286483765
0.840408727,0,0,1.3455413579940796,0,0,0.9172800183296204
0.841396602,0,0,1.3431471586227417,0,0,0.7644000053405762
0.842387681,0,0,1.4317326545715332,0,0,0.611519992351532
0.843386464,0,0,1.455674648284912,0,0,0.8408399820327759
0.844416802,0,0,1.4676456451416016,0,0,0.9937199950218201
0.845418325,0,0,1.525106430053711,0,0,0.7644000053405762
0.846412237,0,0,1.5131354331970215,0,0,0.9172800183296204
0.847414983,0,0,1.5131354331970215,0,0,1.1466000080108643
0.84838497,0,0,1.359906554222107,0,0,0.9937199950218201
0.849408307,0,0,1.3527239561080933,0,0,0.9172800183296204
0.850410108,0,0,1.3048399686813354,0,0,0.8408399820327759
0.85140265,0,0,1.314416766166687,0,0,0.7644000053405762
0.85245758,0,0,1.316810965538025,0,0,0.9172800183296204
0.853422178,0,0,1.381454348564148,0,0,0.6879600286483765
0.854403794,0,0,1.525106430053711,0,0,0.611519992351532
0.855414577,0,0,1.5466543436050415,0,0,0.8408399820327759
0.856392064,0,0,1.4628572463989258,0,0,0.6879600286483765
0.857390031,0,0,1.4891934394836426,0,0,0.8408399820327759
0.858399721,0,0,1.5514427423477173,0,0,1.070159912109375
0.859383504,0,0,1.3215993642807007,0,0,1.070159912109375
0.860383305,0,0,1.3551181554794312,0,0,0.8408399820327759
0.861420791,0,0,1.403002142906189,0,0,0.7644000053405762
0.86241524,0,0,1.3096283674240112,0,0,0.6879600286483765
0.863407004,0,0,1.3742717504501343,0,0,0.9172800183296204
0.86440025,0,0,1.4460978507995605,0,0,0.7644000053405762
0.865408421,0,0,1.5418659448623657,0,0,0.9172800183296204
0.866415204,0,0,1.5825673341751099,0,0,0.9937199950218201
0.867408301,0,0,1.50355863571167,0,0,0.7644000053405762
0.868414936,0,0,1.5155296325683594,0,0,0.9172800183296204
0.869395978,0,0,1.479616641998291,0,0,1.070159912109375
0.870391668,0,0,1.3455413579940796,0,0,0.6879600286483765
0.87139158,0,0,1.3215993642807007,0,0,0.8408399820327759
0.872387918,0,0,1.4867992401123047,0,0,0.5350799560546875
0.873390127,0,0,1.3551181554794312,0,0,0.8408399820327759
0.874402243,0,0,1.3694833517074585,0,0,0.9937199950218201
0.875412636,0,0,1.45806884765625,0,0,0.8408399820327759
0.876412752,0,0,1.6160861253738403,0,0,0.8408399820327759
0.87742659,0,0,1.5203180313110352,0,0,0.9937199950218201
0.878411966,0,0,1.4891934394836426,0,0,0.6879600286483765
0.879411656,0,0,1.4197616577148438,0,0,0.611519992351532
0.880412457,0,0,1.4317326545715332,0,0,0.9937199950218201
0.881418073,0,0,1.37906014919281,0,0,0.9937199950218201
0.882412263,0,0,1.3742717504501343,0,0,0.5350799560546875
0.883408156,0,0,1.3551181554794312,0,0,0.8408399820327759
0.884410717,0,0,1.3311761617660522,0,0,0.5350799560546875
0.88539737,0,0,1.357512354850769,0,0,0.5350799560546875
0.88641456,0,0,1.4772224426269531,0,0,0.8408399820327759
0.88740799,0,0,1.5753847360610962,0,0,0.7644000053405762
0.888407606,0,0,1.5538369417190552,0,0,0.9172800183296204
0.889403722,0,0,1.6065093278884888,0,0,0.9937199950218201
0.890377394,0,0,1.5969325304031372,0,0,0.7644000053405762
0.891374121,0,0,1.5275006294250488,0,0,0.9172800183296204
0.893066876,0,0,1.4245500564575195,0,0,0.3822000026702881
0.893372464,0,0,1.400607943534851,0,0,0.6879600286483765
0.89441282,0,0,1.3886369466781616,0,0,0.7644000053405762
0.895394937,0,0,1.3766659498214722,0,0,0.8408399820327759
0.896889509,0,0,1.3766659498214722,0,0,0.8408399820327759
0.897482649,0,0,1.3646949529647827,0,0,0.6879600286483765
0.89844271,0,0,1.4676456451416016,0,0,0.7644000053405762
0.899383604,0,0,1.482010841369629,0,0,0.9937199950218201
0.900374887,0,0,1.4987702369689941,0,0,0.9172800183296204
0.901376429,0,0,1.5322890281677246,0,0,0.9172800183296204
0.902373489,0,0,1.4867992401123047,0,0,1.070159912109375
0.903372883,0,0,1.5059528350830078,0,0,0.6879600286483765
0.904373221,0,0,1.3694833517074585,0,0,0.5350799560546875
0.9053733,0,0,1.381454348564148,0,0,1.070159912109375
0.906373249,0,0,1.290474772453308,0,0,1.070159912109375
0.907373198,0,0,1.3862427473068237,0,0,0.6879600286483765
0.90837337,0,0,1.501164436340332,0,0,0.7644000053405762
0.909374412,0,0,1.4915876388549805,0,0,0.9937199950218201
0.91037338,0,0,1.53707754611969,0,0,0.8408399820327759
0.91137331,0,0,1.6160861253738403,0,0,0.7644000053405762
0.912461925,0,0,1.4891934394836426,0,0,0.611519992351532
0.913379024,0,0,1.50355863571167,0,0,1.070159912109375
0.914368436,0,0,1.460463047027588,0,0,0.9172800183296204
0.915323127,0,0,1.3958195447921753,0,0,1.1466000080108643
0.916322094,0,0,1.3479355573654175,0,0,0.8408399820327759
0.917322803,0,0,1.3455413579940796,0,0,0.5350799560546875
0.918321197,0,0,1.3048399686813354,0,0,0.7644000053405762
0.919321313,0,0,1.314416766166687,0,0,0.9172800183296204
0.920321225,0,0,1.4245500564575195,0,0,0.8408399820327759
0.921321878,0,0,1.4460978507995605,0,0,0.9172800183296204
0.922326882,0,0,1.4508862495422363,0,0,0.8408399820327759
0.923321295,0,0,1.558625340461731,0,0,1.070159912109375
0.924320614,0,0,1.5969325304031372,0,0,0.9937199950218201
0.925324508,0,0,1.45806884765625,0,0,0.7644000053405762
0.926321124,0,0,1.45806884765625,0,0,1.070159912109375
0.927320981,0,0,1.4867992401123047,0,0,1.1466000080108643
0.928321097,0,0,1.4389152526855469,0,0,0.7644000053405762
0.929321509,0,0,1.41257905960083,0,0,0.6879600286483765
0.930320088,0,0,1.4053963422775269,0,0,0.6879600286483765
0.931320963,0,0,1.4437036514282227,0,0,0.3822000026702881
0.93232132,0,0,1.400607943534851,0,0,0.611519992351532
0.933322232,0,0,1.5107412338256836,0,0,0.9172800183296204
0.934320922,0,0,1.4987702369689941,0,0,0.9937199950218201
0.935321279,0,0,1.436521053314209,0,0,1.223039984703064
0.936321598,0,0,1.4484920501708984,0,0,0.611519992351532
0.937328195,0,0,1.4676456451416016,0,0,0.7644000053405762
0.938326219,0,0,1.4269442558288574,0,0,1.070159912109375
0.939326076,0,0,1.3694833517074585,0,0,0.7644000053405762
0.940325895,0,0,1.3646949529647827,0,0,0.611519992351532
0.941327678,0,0,1.414973258972168,0,0,0.7644000053405762
0.942325979,0,0,1.5298948287963867,0,0,0.6879600286483765
0.943325854,0,0,1.460463047027588,0,0,0.9172800183296204
0.944326063,0,0,1.534683346748352,0,0,0.6879600286483765
0.945342623,0,0,1.558625340461731,0,0,0.8408399820327759
0.946326739,0,0,1.5466543436050415,0,0,1.070159912109375
0.947335151,0,0,1.400607943534851,0,0,1.223039984703064
0.9483291,0,0,1.3958195447921753,0,0,0.8408399820327759
0.949328846,0,0,1.4077905416488647,0,0,1.070159912109375
0.950326036,0,0,1.3311761617660522,0,0,0.8408399820327759
0.951325356,0,0,1.357512354850769,0,0,0.6879600286483765
0.952325546,0,0,1.3886369466781616,0,0,0.8408399820327759
0.953328199,0,0,1.4101848602294922,0,0,0.8408399820327759
0.954325852,0,0,1.359906554222107,0,0,0.6879600286483765
0.955326004,0,0,1.4317326545715332,0,0,0.9172800183296204
0.95632575,0,0,1.403002142906189,0,0,0.9172800183296204
0.957326773,0,0,1.4460978507995605,0,0,1.1466000080108643
0.958325778,0,0,1.3862427473068237,0,0,0.6879600286483765
0.959325672,0,0,1.314416766166687,0,0,0.9172800183296204
0.960325954,0,0,1.37906014919281,0,0,0.8408399820327759
0.961327552,0,0,1.482010841369629,0,0,1.070159912109375
0.962325816,0,0,1.50355863571167,0,0,1.1466000080108643
0.963328395,0,0,1.4197616577148438,0,0,0.9172800183296204
0.964351122,0,0,1.5203180313110352,0,0,0.8408399820327759
0.965343497,0,0,1.455674648284912,0,0,0.8408399820327759
0.966326428,0,0,1.4652514457702637,0,0,0.7644000053405762
0.967325655,0,0,1.37906014919281,0,0,0.6879600286483765
0.968326715,0,0,1.4628572463989258,0,0,0.9937199950218201
0.969325998,0,0,1.434126853942871,0,0,0.7644000053405762
0.970325892,0,0,1.403002142906189,0,0,0
0.971325693,0,0,1.357512354850769,0,0,0.9172800183296204
0.972326068,0,0,1.2856862545013428,0,0,0.8408399820327759
0.97332748,0,0,1.292868971824646,0,0,0.7644000053405762
0.974325855,0,0,1.3407529592514038,0,0,0.7644000053405762
0.975326175,0,0,1.5538369417190552,0,0,0.8408399820327759
0.976325939,0,0,1.5825673341751099,0,0,0.8408399820327759
0.977327629,0,0,1.599326729774475,0,0,0.7644000053405762
0.978325819,0,0,1.5538369417190552,0,0,0.8408399820327759
0.979326231,0,0,1.5658079385757446,0,0,1.223039984703064
0.980325903,0,0,1.357512354850769,0,0,0.9172800183296204
0.981327722,0,0,1.3766659498214722,0,0,0.9172800183296204
0.982326135,0,0,1.3958195447921753,0,0,1.070159912109375
0.98332551,0,0,1.3024457693099976,0,0,1.070159912109375
0.984325903,0,0,1.3646949529647827,0,0,0.6879600286483765
0.985328112,0,0,1.3718775510787964,0,0,0.9172800183296204
0.986326246,0,0,1.522712230682373,0,0,0.5350799560546875
0.987325881,0,0,1.5275006294250488,0,0,0.8408399820327759
0.988325997,0,0,1.53707754611969,0,0,0.8408399820327759
0.989326798,0,0,1.5059528350830078,0,0,0.6879600286483765
0.990325451,0,0,1.460463047027588,0,0,1.070159912109375
0.99132553,0,0,1.3479355573654175,0,0,0.9172800183296204
0.992325905,0,0,1.357512354850769,0,0,0.7644000053405762
0.993327614,0,0,1.4293384552001953,0,0,0.9172800183296204
0.994325674,0,0,1.3120225667953491,0,0,0.7644000053405762
0.995325586,0,0,1.2952631711959839,0,0,0.611519992351532
0.996325832,0,0,1.3024457693099976,0,0,0.9172800183296204
0.997327836,0,0,1.4676456451416016,0,0,0.9172800183296204
0.998326045,0,0,1.5322890281677246,0,0,0.5350799560546875
0.999325698,0,0,1.4508862495422363,0,0,0.611519992351532
1.000325851,0,0,1.5083470344543457,0,0,0.7644000053405762
1.001327356,0,0,1.5538369417190552,0,0,0.8408399820327759
1.002325731,0,0,1.3694833517074585,0,0,1.070159912109375
1.003325977,0,0,1.3838485479354858,0,0,0.7644000053405762
1.004325555,0,0,1.4197616577148438,0,0,0.9172800183296204
1.005327782,0,0,1.381454348564148,0,0,0.7644000053405762
1.006325732,0,0,1.3096283674240112,0,0,0.9172800183296204
1.00732607,0,0,1.3527239561080933,0,0,1.070159912109375
1.008325649,0,0,1.4772224426269531,0,0,0.6879600286483765
1.009346061,0,0,1.4245500564575195,0,0,0.9172800183296204
1.010328214,0,0,1.4700398445129395,0,0,0.3822000026702881
1.011324737,0,0,1.534683346748352,0,0,0.9172800183296204
1.012392649,0,0,1.5897499322891235,0,0,0.8408399820327759
1.01333108,0,0,1.37906014919281,0,0,0.8408399820327759
1.014341344,0,0,1.3838485479354858,0,0,0.8408399820327759
1.015459199,0,0,1.3910311460494995,0,0,1.070159912109375
1.016457519,0,0,1.3958195447921753,0,0,0.9172800183296204
1.017459987,0,0,1.3934253454208374,0,0,0.9172800183296204
1.018456066,0,0,1.414973258972168,0,0,0.9172800183296204
1.019455978,0,0,1.4867992401123047,0,0,0.7644000053405762
1.020458112,0,0,1.4245500564575195,0,0,1.2994799613952637
1.021459969,0,0,1.4963760375976563,0,0,0.8408399820327759
1.022457418,0,0,1.5825673341751099,0,0,0.9172800183296204
1.023457904,0,0,1.5155296325683594,0,0,1.070159912109375
1.024457354,0,0,1.3862427473068237,0,0,0.9172800183296204
1.025627893,0,0,1.3263877630233765,0,0,0.6879600286483765
1.026465363,0,0,1.3910311460494995,0,0,0.9937199950218201
1.02746659,0,0,1.335964560508728,0,0,0.7644000053405762
1.028458929,0,0,1.3024457693099976,0,0,0.9172800183296204
1.029461637,0,0,1.338358759880066,0,0,1.223039984703064
1.030457234,0,0,1.482010841369629,0,0,0.6879600286483765
1.031457499,0,0,1.3910311460494995,0,0,0.6879600286483765
1.032457244,0,0,1.4389152526855469,0,0,0.8408399820327759
1.033459212,0,0,1.525106430053711,0,0,0.9172800183296204
1.034456254,0,0,1.4867992401123047,0,0,0.7644000053405762
1.035456944,0,0,1.400607943534851,0,0,0.8408399820327759
1.036456912,0,0,1.3886369466781616,0,0,0.611519992351532
1.037459472,0,0,1.400607943534851,0,0,0.9172800183296204
1.038456514,0,0,1.4173674583435059,0,0,0.611519992351532
1.039456315,0,0,1.3670891523361206,0,0,0.611519992351532
1.040456079,0,0,1.3527239561080933,0,0,0.8408399820327759
1.041459584,0,0,1.558625340461731,0,0,0.9172800183296204
1.042457126,0,0,1.5634137392044067,0,0,-9.096360206604004
1.043456593,0,0,1.5275006294250488,0,0,0.9172800183296204
1.044456395,0,0,1.5610195398330688,0,0,0.9172800183296204
1.045459585,0,0,1.4772224426269531,0,0,0.9172800183296204
1.046457663,0,0,1.3958195447921753,0,0,0.8408399820327759
1.047457002,0,0,1.3838485479354858,0,0,0.7644000053405762
1.048457358,0,0,1.4628572463989258,0,0,1.070159912109375
1.049459845,0,0,1.3718775510787964,0,0,0.7644000053405762
1.050457812,0,0,1.381454348564148,0,0,0.6879600286483765
1.051456947,0,0,1.479616641998291,0,0,0.8408399820327759
1.052456637,0,0,1.4628572463989258,0,0,0.6879600286483765
1.053459623,0,0,1.4772224426269531,0,0,0.6879600286483765
1.054455887,0,0,1.522712230682373,0,0,1.1466000080108643
1.055458003,0,0,1.4724340438842773,0,0,0.9937199950218201
1.056457063,0,0,1.4748282432556152,0,0,1.070159912109375
1.057487642,0,0,1.4772224426269531,0,0,0.7644000053405762
1.058461129,0,0,1.4077905416488647,0,0,0.9172800183296204
1.059457393,0,0,1.381454348564148,0,0,0.9937199950218201
1.060457749,0,0,1.2952631711959839,0,0,0.9172800183296204
1.061461162,0,0,1.3503297567367554,0,0,0.611519992351532
1.062456574,0,0,1.335964560508728,0,0,0.9172800183296204
1.063457653,0,0,1.5083470344543457,0,0,0.8408399820327759
1.064456621,0,0,1.455674648284912,0,0,0.6879600286483765
1.065459792,0,0,1.414973258972168,0,0,0.7644000053405762
1.066457686,0,0,1.5179238319396973,0,0,1.070159912109375
1.067457283,0,0,1.5490485429763794,0,0,0.7644000053405762
1.068457344,0,0,1.4389152526855469,0,0,0.7644000053405762
1.069460034,0,0,1.3527239561080933,0,0,0.7644000053405762
1.070456927,0,0,1.4197616577148438,0,0,1.070159912109375
1.071456691,0,0,1.434126853942871,0,0,0.8408399820327759
1.072457492,0,0,1.37906014919281,0,0,0.9172800183296204
1.073459719,0,0,1.4221558570861816,0,0,0.8408399820327759
1.074456372,0,0,1.4413094520568848,0,0,0.611519992351532
1.075456766,0,0,1.4700398445129395,0,0,0.611519992351532
1.076456715,0,0,1.4939818382263184,0,0,1.1466000080108643
1.077457702,0,0,1.5538369417190552,0,0,0.611519992351532
1.0784567250000001,0,0,1.460463047027588,0,0,0.9937199950218201
1.079456267,0,0,1.4053963422775269,0,0,1.1466000080108643
1.080457272,0,0,1.3718775510787964,0,0,0.611519992351532
1.081460091,0,0,1.3670891523361206,0,0,0.7644000053405762
1.082457522,0,0,1.3239935636520386,0,0,0.9937199950218201
1.083456064,0,0,1.314416766166687,0,0,0.9172800183296204
1.084455754,0,0,1.3982137441635132,0,0,0.7644000053405762
1.085459611,0,0,1.4676456451416016,0,0,0.3822000026702881
1.086457319,0,0,1.4867992401123047,0,0,0.6879600286483765
1.0874574909999999,0,0,1.4915876388549805,0,0,1.070159912109375
1.088457107,0,0,1.4700398445129395,0,0,0.5350799560546875
1.089459389,0,0,1.4269442558288574,0,0,0.9937199950218201
1.090457061,0,0,1.45806884765625,0,0,0.7644000053405762
1.091456751,0,0,1.3120225667953491,0,0,0.8408399820327759
1.092457293,0,0,1.292868971824646,0,0,0.9172800183296204
1.093459668,0,0,1.357512354850769,0,0,0.7644000053405762
1.094456265,0,0,1.3862427473068237,0,0,0.6879600286483765
1.095456714,0,0,1.4413094520568848,0,0,1.070159912109375
1.096456441,0,0,1.3958195447921753,0,0,0.7644000053405762
1.09745465,0,0,1.50355863571167,0,0,0.5350799560546875
1.098449729,0,0,1.5155296325683594,0,0,0.9172800183296204
1.0994499,0,0,1.436521053314209,0,0,0.611519992351532
1.100449368,0,0,1.4508862495422363,0,0,1.070159912109375
1.101452466,0,0,1.4724340438842773,0,0,0.9937199950218201
1.102450119,0,0,1.400607943534851,0,0,0.7644000053405762
1.103450049,0,0,1.4437036514282227,0,0,0.6879600286483765
1.104449702,0,0,1.3838485479354858,0,0,1.070159912109375
1.1054503549999999,0,0,1.41257905960083,0,0,0.8408399820327759
1.106449879,0,0,1.4101848602294922,0,0,1.070159912109375
1.1074490319999999,0,0,1.4221558570861816,0,0,0.7644000053405762
1.108449407,0,0,1.4676456451416016,0,0,0.7644000053405762
1.109450652,0,0,1.5298948287963867,0,0,0.9172800183296204
1.110449916,0,0,1.5203180313110352,0,0,-9.554999351501465
1.111449958,0,0,1.5275006294250488,0,0,0.7644000053405762
1.112450019,0,0,1.3862427473068237,0,0,0.611519992351532
1.113534282,0,0,1.3335703611373901,0,0,0.611519992351532
1.114457028,0,0,1.3407529592514038,0,0,0.9937199950218201
1.115456422,0,0,1.3120225667953491,0,0,0.9937199950218201
1.116415335,0,0,1.335964560508728,0,0,0.6879600286483765
1.117415728,0,0,1.3072341680526733,0,0,0.9937199950218201
1.11841303,0,0,1.3838485479354858,0,0,0.8408399820327759
1.119411997,0,0,1.460463047027588,0,0,0.8408399820327759
1.120412817,0,0,1.5179238319396973,0,0,1.070159912109375
1.121419451,0,0,1.4748282432556152,0,0,0.2293200045824051
1.122414327,0,0,1.3934253454208374,0,0,0.6879600286483765
1.123413905,0,0,1.400607943534851,0,0,0.9172800183296204
1.124412929,0,0,1.2497732639312744,0,0,0.7644000053405762
1.125413452,0,0,1.2832920551300049,0,0,0.9172800183296204
1.1264114379999999,0,0,1.3646949529647827,0,0,0.8408399820327759
1.1274122580000001,0,0,1.3335703611373901,0,0,0.8408399820327759
1.1284128,0,0,1.3694833517074585,0,0,0.7644000053405762
1.129412657,0,0,1.5322890281677246,0,0,0.7644000053405762
1.130412458,0,0,1.6112977266311646,0,0,0.4586400091648102
1.131411685,0,0,1.5658079385757446,0,0,0.9937199950218201
1.132412504,0,0,1.5825673341751099,0,0,0.7644000053405762
1.133413176,0,0,1.4939818382263184,0,0,0.6879600286483765
1.134412218,0,0,1.4221558570861816,0,0,0.8408399820327759
1.135412519,0,0,1.381454348564148,0,0,0.8408399820327759
1.136412487,0,0,1.455674648284912,0,0,0.9937199950218201
1.137413269,0,0,1.455674648284912,0,0,0.8408399820327759
1.138412681,0,0,1.3838485479354858,0,0,0.7644000053405762
1.139412612,0,0,1.4484920501708984,0,0,0.9172800183296204
1.140411858,0,0,1.501164436340332,0,0,0.8408399820327759
1.141415474,0,0,1.5394717454910278,0,0,1.070159912109375
1.142412793,0,0,1.4532804489135742,0,0,0.9937199950218201
1.1434122979999999,0,0,1.4413094520568848,0,0,0.8408399820327759
1.14441197,0,0,1.4413094520568848,0,0,0.9937199950218201
1.145414437,0,0,1.4652514457702637,0,0,0.6879600286483765
1.14641285,0,0,1.3623007535934448,0,0,0.7644000053405762
1.147418336,0,0,1.3479355573654175,0,0,0.8408399820327759
1.148431304,0,0,1.403002142906189,0,0,0.8408399820327759
1.149439216,0,0,1.3862427473068237,0,0,0.8408399820327759
1.15043185,0,0,1.3886369466781616,0,0,0.9172800183296204
1.151441151,0,0,1.4197616577148438,0,0,0.5350799560546875
1.152416045,0,0,1.5322890281677246,0,0,0.8408399820327759
1.15341855,0,0,1.5298948287963867,0,0,1.070159912109375
1.15441261,0,0,1.4939818382263184,0,0,0.5350799560546875
1.155412356,0,0,1.5490485429763794,0,0,0.7644000053405762
1.156412546,0,0,1.403002142906189,0,0,0.8408399820327759
1.157415977,0,0,1.3455413579940796,0,0,0.9937199950218201
1.158411574,0,0,1.3910311460494995,0,0,0.9172800183296204
1.159412709,0,0,1.3503297567367554,0,0,0.7644000053405762
1.160414658,0,0,1.3263877630233765,0,0,0.6879600286483765
1.161413681,0,0,1.3431471586227417,0,0,1.452359914779663
1.162412019,0,0,1.5275006294250488,0,0,0.6879600286483765
1.163412876,0,0,1.5825673341751099,0,0,0.9937199950218201
1.164412455,0,0,1.5610195398330688,0,0,1.070159912109375
1.165414775,0,0,1.479616641998291,0,0,0.611519992351532
1.166412631,0,0,1.5131354331970215,0,0,1.070159912109375
1.167412506,0,0,1.5155296325683594,0,0,0.9937199950218201
1.168412641,0,0,1.3407529592514038,0,0,0.9172800183296204
1.169413905,0,0,1.359906554222107,0,0,0.9172800183296204
1.170412891,0,0,1.436521053314209,0,0,0.8408399820327759
1.171412433,0,0,1.403002142906189,0,0,0.8408399820327759
1.172412938,0,0,1.400607943534851,0,0,0.8408399820327759
1.173414628,0,0,1.4915876388549805,0,0,0.8408399820327759
1.174412336,0,0,1.5658079385757446,0,0,0.611519992351532
1.1754125260000001,0,0,1.4963760375976563,0,0,0.9937199950218201
1.176412439,0,0,1.5945383310317993,0,0,0.611519992351532
1.177414258,0,0,1.5179238319396973,0,0,0.9172800183296204
1.178412485,0,0,1.5418659448623657,0,0,1.1466000080108643
1.179412398,0,0,1.41257905960083,0,0,0.8408399820327759
1.180412273,0,0,1.338358759880066,0,0,0.9937199950218201
1.1814147959999999,0,0,1.4748282432556152,0,0,0.6879600286483765
1.182422042,0,0,1.400607943534851,0,0,0.8408399820327759
1.183433768,0,0,1.460463047027588,0,0,1.070159912109375
1.184413385,0,0,1.4221558570861816,0,0,0.7644000053405762
1.185413278,0,0,1.5179238319396973,0,0,0.9172800183296204
1.186412413,0,0,1.5490485429763794,0,0,1.2994799613952637
1.187412547,0,0,1.5155296325683594,0,0,0.6879600286483765
1.188412422,0,0,1.5729905366897583,0,0,0.8408399820327759
1.189412187,0,0,1.525106430053711,0,0,0.7644000053405762
1.190411802,0,0,1.3934253454208374,0,0,0.8408399820327759
1.191412085,0,0,1.4173674583435059,0,0,0
1.192412608,0,0,1.3048399686813354,0,0,0.6879600286483765
1.193413947,0,0,1.2689268589019775,0,0,0.8408399820327759
1.194412488,0,0,1.4101848602294922,0,0,1.1466000080108643
1.195412475,0,0,1.41257905960083,0,0,0.7644000053405762
1.196412294,0,0,1.5610195398330688,0,0,0.7644000053405762
1.197412355,0,0,1.5897499322891235,0,0,0.9937199950218201
1.1984119340000001,0,0,1.5298948287963867,0,0,0.5350799560546875
1.199412235,0,0,1.5705963373184204,0,0,0.9172800183296204
1.20041224,0,0,1.5418659448623657,0,0,0.9937199950218201
1.201415374,0,0,1.3910311460494995,0,0,0.611519992351532
1.202412712,0,0,1.3742717504501343,0,0,1.070159912109375
1.2034118839999999,0,0,1.4676456451416016,0,0,0.8408399820327759
1.204412259,0,0,1.3407529592514038,0,0,0.9172800183296204
1.20541443,0,0,1.3886369466781616,0,0,1.223039984703064
1.2064122130000001,0,0,1.4437036514282227,0,0,0.9172800183296204
1.207412662,0,0,1.5897499322891235,0,0,0.611519992351532
1.208411908,0,0,1.501164436340332,0,0,0.9172800183296204
1.209412542,0,0,1.45806884765625,0,0,0.611519992351532
1.210411862,0,0,1.4317326545715332,0,0,0.8408399820327759
1.211412181,0,0,1.3742717504501343,0,0,0.8408399820327759
1.212411834,0,0,1.3431471586227417,0,0,0.6879600286483765
1.213449135,0,0,1.3886369466781616,0,0,1.070159912109375
1.214413863,0,0,1.41257905960083,0,0,0.8408399820327759
1.21541246,0,0,1.3000515699386597,0,0,0.611519992351532
1.216412354,0,0,1.3694833517074585,0,0,0.9937199950218201
1.217414118,0,0,1.436521053314209,0,0,0.6879600286483765
1.218412826,0,0,1.4700398445129395,0,0,0.611519992351532
1.219500885,0,0,1.534683346748352,0,0,0.9172800183296204
1.220420021,0,0,1.4317326545715332,0,0,0.611519992351532
1.221417081,0,0,1.4293384552001953,0,0,1.070159912109375
1.222413827,0,0,1.359906554222107,0,0,1.070159912109375
1.223413258,0,0,1.3670891523361206,0,0,0.6879600286483765
1.224413522,0,0,1.3838485479354858,0,0,0.7644000053405762
1.225415527,0,0,1.3072341680526733,0,0,0.611519992351532
1.226413069,0,0,1.1971008777618408,0,0,0.9937199950218201
1.227412851,0,0,1.292868971824646,0,0,1.070159912109375
1.228413004,0,0,1.4053963422775269,0,0,0.8408399820327759
1.229415305,0,0,1.4844050407409668,0,0,0.9172800183296204
1.230412773,0,0,1.4460978507995605,0,0,1.1466000080108643
1.231412704,0,0,1.5107412338256836,0,0,0.6879600286483765
1.232413097,0,0,1.580173134803772,0,0,0.611519992351532
1.233415324,0,0,1.45806884765625,0,0,1.070159912109375
1.234412255,0,0,1.381454348564148,0,0,0.6879600286483765
1.23541376,0,0,1.3862427473068237,0,0,0.9172800183296204
1.23641332,0,0,1.37906014919281,0,0,0.6879600286483765
1.237415307,0,0,1.3263877630233765,0,0,0.6879600286483765
1.238413182,0,0,1.338358759880066,0,0,0.9937199950218201
1.239412613,0,0,1.4173674583435059,0,0,0.7644000053405762
1.24041371,0,0,1.4437036514282227,0,0,0.6879600286483765
1.241414733,0,0,1.5729905366897583,0,0,0.7644000053405762
1.242413368,0,0,1.5322890281677246,0,0,0.3822000026702881
1.24341378,0,0,1.4939818382263184,0,0,0.9172800183296204
1.244413544,0,0,1.434126853942871,0,0,0.9937199950218201
1.24541516,0,0,1.3000515699386597,0,0,0.6879600286483765
1.246413091,0,0,1.3407529592514038,0,0,0.7644000053405762
1.247422373,0,0,1.3335703611373901,0,0,0.9172800183296204
1.248413323,0,0,1.2856862545013428,0,0,0.6879600286483765
1.249415624,0,0,1.2737152576446533,0,0,0.9172800183296204
1.250413443,0,0,1.3527239561080933,0,0,0.7644000053405762
1.251412763,0,0,1.4867992401123047,0,0,0.9172800183296204
1.252413638,0,0,1.4939818382263184,0,0,1.070159912109375
1.253415939,0,0,1.53707754611969,0,0,0.5350799560546875
1.254413092,0,0,1.4963760375976563,0,0,0.9172800183296204
1.255412597,0,0,1.5107412338256836,0,0,0.7644000053405762
1.256413121,0,0,1.3718775510787964,0,0,0.8408399820327759
1.2574147359999999,0,0,1.338358759880066,0,0,0.6879600286483765
1.258413389,0,0,1.338358759880066,0,0,0.9937199950218201
1.259413246,0,0,1.2880805730819702,0,0,0.611519992351532
1.260413362,0,0,1.316810965538025,0,0,0.9172800183296204
1.261415515,0,0,1.414973258972168,0,0,0.7644000053405762
1.262413075,0,0,1.4317326545715332,0,0,0.9172800183296204
1.263412728,0,0,1.455674648284912,0,0,0.7644000053405762
1.264413585,0,0,1.5298948287963867,0,0,0.8408399820327759
1.2654159790000001,0,0,1.460463047027588,0,0,0.6879600286483765
1.266413261,0,0,1.4748282432556152,0,0,0.8408399820327759
1.267413081,0,0,1.3934253454208374,0,0,0.7644000053405762
1.268412752,0,0,1.2952631711959839,0,0,1.070159912109375
1.269415331,0,0,1.3455413579940796,0,0,0.9937199950218201
1.270411966,0,0,1.316810965538025,0,0,0.8408399820327759
1.271413526,0,0,1.3766659498214722,0,0,0.8408399820327759
1.272413068,0,0,1.4245500564575195,0,0,0.4586400091648102
1.273415591,0,0,1.4508862495422363,0,0,0.611519992351532
1.274413078,0,0,1.5059528350830078,0,0,0.9172800183296204
1.2754132679999999,0,0,1.4389152526855469,0,0,0.5350799560546875
1.276412717,0,0,1.4245500564575195,0,0,0.6879600286483765
1.277414851,0,0,1.50355863571167,0,0,0.9172800183296204
1.278413282,0,0,1.3718775510787964,0,0,0.8408399820327759
1.2794131389999999,0,0,1.4245500564575195,0,0,0.8408399820327759
1.280413421,0,0,1.4389152526855469,0,0,0.611519992351532
1.281415167,0,0,1.335964560508728,0,0,0.6879600286483765
1.282413246,0,0,1.2880805730819702,0,0,0.9172800183296204
1.28341364,0,0,1.3120225667953491,0,0,0.611519992351532
1.2844132,0,0,1.4437036514282227,0,0,0.7644000053405762
1.285414779,0,0,1.455674648284912,0,0,1.1466000080108643
1.286412876,0,0,1.4460978507995605,0,0,0.3822000026702881
1.2874132139999999,0,0,1.4221558570861816,0,0,0.8408399820327759
1.288413404,0,0,1.482010841369629,0,0,1.223039984703064
1.289414946,0,0,1.3670891523361206,0,0,0.7644000053405762
1.2904139510000001,0,0,1.3407529592514038,0,0,0.6879600286483765
1.2914130670000001,0,0,1.4628572463989258,0,0,0.9172800183296204
1.29241259,0,0,1.3958195447921753,0,0,0.6879600286483765
1.293415521,0,0,1.4053963422775269,0,0,0.7644000053405762
1.294412933,0,0,1.3718775510787964,0,0,0.8408399820327759
1.2954127899999999,0,0,1.5083470344543457,0,0,0.7644000053405762
1.296413073,0,0,1.4844050407409668,0,0,1.1466000080108643
1.2974151329999999,0,0,1.455674648284912,0,0,0.5350799560546875
1.298411693,0,0,1.4484920501708984,0,0,0.9172800183296204
1.2994120869999999,0,0,1.5298948287963867,0,0,0.9937199950218201
1.300413333,0,0,1.4221558570861816,0,0,0.8408399820327759
1.301415282,0,0,1.3982137441635132,0,0,0.4586400091648102
1.302413138,0,0,1.2713210582733154,0,0,1.070159912109375
1.303413162,0,0,1.2689268589019775,0,0,0.8408399820327759
1.304413037,0,0,1.3455413579940796,0,0,0
1.30541556,0,0,1.3431471586227417,0,0,0.7644000053405762
1.306413102,0,0,1.4532804489135742,0,0,0.9172800183296204
1.3074127739999999,0,0,1.53707754611969,0,0,0.8408399820327759
1.308412945,0,0,1.5155296325683594,0,0,0.9172800183296204
1.309415228,0,0,1.5322890281677246,0,0,0.7644000053405762
1.310413455,0,0,1.5705963373184204,0,0,1.070159912109375
1.311412978,0,0,1.3670891523361206,0,0,0.611519992351532
1.312412927,0,0,1.3527239561080933,0,0,0.611519992351532
1.3134142469999999,0,0,1.482010841369629,0,0,0.7644000053405762
1.314413696,0,0,1.3239935636520386,0,0,0.9937199950218201
1.315413164,0,0,1.4245500564575195,0,0,0.5350799560546875
1.316412873,0,0,1.4293384552001953,0,0,0.6879600286483765
1.317415229,0,0,1.482010841369629,0,0,1.2994799613952637
1.3184134379999999,0,0,1.525106430053711,0,0,0.9172800183296204
1.3194127390000001,0,0,1.4772224426269531,0,0,0.8408399820327759
1.320412299,0,0,1.6352397203445435,0,0,0.9172800183296204
1.321419063,0,0,1.5298948287963867,0,0,1.070159912109375
1.322434512,0,0,1.4676456451416016,0,0,1.070159912109375
1.323416017,0,0,1.4221558570861816,0,0,0.8408399820327759
1.324413411,0,0,1.50355863571167,0,0,0.9172800183296204
1.325414305,0,0,1.4389152526855469,0,0,0.7644000053405762
1.326413069,0,0,1.3287819623947144,0,0,0.7644000053405762
1.327418814,0,0,1.357512354850769,0,0,0.6879600286483765
1.328414875,0,0,1.41257905960083,0,0,0.7644000053405762
1.329413657,0,0,1.4508862495422363,0,0,0.9937199950218201
1.330412903,0,0,1.434126853942871,0,0,0.611519992351532
1.331413,0,0,1.460463047027588,0,0,0.9172800183296204
1.3324135049999999,0,0,1.4844050407409668,0,0,0.9172800183296204
1.33341701,0,0,1.4317326545715332,0,0,0.9172800183296204
1.334412941,0,0,1.3096283674240112,0,0,0.6879600286483765
1.335412964,0,0,1.3479355573654175,0,0,0.9937199950218201
1.336416339,0,0,1.3120225667953491,0,0,0.611519992351532
1.337413659,0,0,1.3838485479354858,0,0,1.070159912109375
1.338413127,0,0,1.3910311460494995,0,0,1.070159912109375
1.339413483,0,0,1.41257905960083,0,0,0.7644000053405762
1.34041247,0,0,1.4772224426269531,0,0,0.7644000053405762
1.341413234,0,0,1.5322890281677246,0,0,0.4586400091648102
1.34241185,0,0,1.5155296325683594,0,0,0.8408399820327759
1.343413336,0,0,1.5179238319396973,0,0,1.223039984703064
1.344413026,0,0,1.482010841369629,0,0,0.7644000053405762
1.345414346,0,0,1.403002142906189,0,0,0.7644000053405762
1.346412388,0,0,1.4269442558288574,0,0,0.9937199950218201
1.347413911,0,0,1.3694833517074585,0,0,0.9172800183296204
1.3484130269999999,0,0,1.381454348564148,0,0,1.070159912109375
1.349416476,0,0,1.3910311460494995,0,0,0.6879600286483765
1.3504136660000001,0,0,1.4413094520568848,0,0,0.611519992351532
1.3514135409999999,0,0,1.5682021379470825,0,0,0.7644000053405762
1.352412991,0,0,1.556231141090393,0,0,0.5350799560546875
1.353415144,0,0,1.580173134803772,0,0,0.7644000053405762
1.354413704,0,0,1.6041151285171509,0,0,0.8408399820327759
1.355412838,0,0,1.4772224426269531,0,0,0.9172800183296204
1.356412362,0,0,1.3479355573654175,0,0,0.7644000053405762
1.357415607,0,0,1.3886369466781616,0,0,1.1466000080108643
1.358413223,0,0,1.3982137441635132,0,0,0.6879600286483765
1.359413709,0,0,1.3407529592514038,0,0,0.6879600286483765
1.360412307,0,0,1.4173674583435059,0,0,0.9937199950218201
1.361413201,0,0,1.4101848602294922,0,0,0.9172800183296204
1.362412557,0,0,1.4389152526855469,0,0,0.9937199950218201
1.36341234,0,0,1.5155296325683594,0,0,0.6879600286483765
1.364413771,0,0,1.4939818382263184,0,0,1.070159912109375
1.365415738,0,0,1.501164436340332,0,0,0.9172800183296204
1.366413484,0,0,1.3646949529647827,0,0,0.611519992351532
1.367413655,0,0,1.316810965538025,0,0,0.9172800183296204
1.368413364,0,0,1.3862427473068237,0,0,0.9172800183296204
1.369415702,0,0,1.3670891523361206,0,0,0.611519992351532
1.370413281,0,0,1.359906554222107,0,0,0.6879600286483765
1.371412527,0,0,1.434126853942871,0,0,0.6879600286483765
1.372413291,0,0,1.5753847360610962,0,0,0.9937199950218201
1.373415444,0,0,1.5466543436050415,0,0,0.7644000053405762
1.3744136710000001,0,0,1.556231141090393,0,0,0.9172800183296204
1.375412546,0,0,1.580173134803772,0,0,0.8408399820327759
1.376413791,0,0,1.5418659448623657,0,0,0.8408399820327759
1.377414889,0,0,1.414973258972168,0,0,0.611519992351532
1.378413171,0,0,1.3096283674240112,0,0,0.6879600286483765
1.379413528,0,0,1.3407529592514038,0,0,0.9937199950218201
1.380413163,0,0,1.3024457693099976,0,0,0.9172800183296204
1.381415038,0,0,1.3192051649093628,0,0,0.9172800183296204
1.382413209,0,0,1.381454348564148,0,0,0.6879600286483765
1.383413084,0,0,1.381454348564148,0,0,0.611519992351532
1.384412886,0,0,1.4652514457702637,0,0,0.9172800183296204
1.38541502,0,0,1.45806884765625,0,0,0.9172800183296204
1.386413877,0,0,1.4077905416488647,0,0,0.8408399820327759
1.387413493,0,0,1.3910311460494995,0,0,0.8408399820327759
1.388412849,0,0,1.41257905960083,0,0,0.8408399820327759
1.389415632,0,0,1.3192051649093628,0,0,0.7644000053405762
1.390412933,0,0,1.3455413579940796,0,0,0.8408399820327759
1.391421975,0,0,1.359906554222107,0,0,0.611519992351532
1.392437535,0,0,1.2449848651885986,0,0,0.5350799560546875
1.393444299,0,0,1.3862427473068237,0,0,0.8408399820327759
1.394438582,0,0,1.4437036514282227,0,0,0.6879600286483765
1.395434531,0,0,1.4939818382263184,0,0,0.9172800183296204
1.396440721,0,0,1.5322890281677246,0,0,0.6879600286483765
1.39743017,0,0,1.4963760375976563,0,0,0.7644000053405762
1.3984354159999999,0,0,1.4508862495422363,0,0,1.1466000080108643
1.399866692,0,0,1.4508862495422363,0,0,0.8408399820327759
1.400475628,0,0,1.4269442558288574,0,0,0.9172800183296204
1.401516151,0,0,1.37906014919281,0,0,1.070159912109375
1.402456268,0,0,1.357512354850769,0,0,0.8408399820327759
1.403441366,0,0,1.3646949529647827,0,0,0.7644000053405762
1.404445481,0,0,1.3934253454208374,0,0,0.9172800183296204
1.405458468,0,0,1.4508862495422363,0,0,0.5350799560546875
1.406453361,0,0,1.45806884765625,0,0,0.6879600286483765
1.407444848,0,0,1.4772224426269531,0,0,0.611519992351532
1.408443482,0,0,1.4532804489135742,0,0,0.8408399820327759
1.409442487,0,0,1.53707754611969,0,0,0.8408399820327759
1.410431436,0,0,1.4317326545715332,0,0,0.9937199950218201
1.411435275,0,0,1.359906554222107,0,0,0.9172800183296204
1.412421372,0,0,1.3000515699386597,0,0,0.8408399820327759
1.413438173,0,0,1.359906554222107,0,0,0.7644000053405762
1.414446141,0,0,1.2952631711959839,0,0,20.409481048583984
1.41543509,0,0,1.3646949529647827,0,0,0.6879600286483765
1.416477187,0,0,1.4700398445129395,0,0,0.6879600286483765
1.417427174,0,0,1.580173134803772,0,0,0.8408399820327759
1.4184014569999999,0,0,1.5682021379470825,0,0,0.611519992351532
1.4194169429999999,0,0,1.479616641998291,0,0,0.9172800183296204
1.420469836,0,0,1.5275006294250488,0,0,0.9937199950218201
1.421443304,0,0,1.50355863571167,0,0,0.5350799560546875
1.422409198,0,0,1.3503297567367554,0,0,0.8408399820327759
1.423420573,0,0,1.3000515699386597,0,0,1.1466000080108643
1.424471152,0,0,1.2880805730819702,0,0,0.7644000053405762
1.425446897,0,0,1.2665326595306396,0,0,1.070159912109375
1.426410977,0,0,1.3670891523361206,0,0,0.6879600286483765
1.427411963,0,0,1.4676456451416016,0,0,0.7644000053405762
1.428417357,0,0,1.5083470344543457,0,0,0.9937199950218201
1.429420973,0,0,1.5442601442337036,0,0,0.8408399820327759
1.430446681,0,0,1.5059528350830078,0,0,1.070159912109375
1.431427519,0,0,1.4939818382263184,0,0,0.9937199950218201
1.432422876,0,0,1.460463047027588,0,0,0.9172800183296204
1.433416585,0,0,1.3982137441635132,0,0,1.070159912109375
1.434435182,0,0,1.2976573705673218,0,0,1.070159912109375
1.435435909,0,0,1.3670891523361206,0,0,0.9172800183296204
1.43641908,0,0,1.338358759880066,0,0,0.9937199950218201
1.4374161779999999,0,0,1.3120225667953491,0,0,0.8408399820327759
1.438411109,0,0,1.41257905960083,0,0,0.5350799560546875
1.439430632,0,0,1.5634137392044067,0,0,0.8408399820327759
1.440419489,0,0,1.4939818382263184,0,0,0.8408399820327759
1.4414139559999999,0,0,1.4652514457702637,0,0,0.7644000053405762
1.442419924,0,0,1.4987702369689941,0,0,1.070159912109375
1.443399559,0,0,1.5155296325683594,0,0,1.070159912109375
1.444407767,0,0,1.3838485479354858,0,0,0.6879600286483765
1.4453889389999999,0,0,1.4269442558288574,0,0,0.7644000053405762
1.44640087,0,0,1.5059528350830078,0,0,0.8408399820327759
1.447409504,0,0,1.4891934394836426,0,0,0.8408399820327759
1.448418175,0,0,1.4508862495422363,0,0,0.5350799560546875
1.449473902,0,0,1.482010841369629,0,0,20.409481048583984
1.450407463,0,0,1.4939818382263184,0,0,0
1.451402949,0,0,1.4867992401123047,0,0,0.6879600286483765
1.452437324,0,0,1.4844050407409668,0,0,0.8408399820327759
1.453469125,0,0,1.4532804489135742,0,0,0.8408399820327759
1.454422186,0,0,1.479616641998291,0,0,0.8408399820327759
1.455409672,0,0,1.4508862495422363,0,0,0.7644000053405762
1.45645638,0,0,1.335964560508728,0,0,0.9937199950218201
1.457515291,0,0,1.4077905416488647,0,0,0.7644000053405762
1.458421112,0,0,1.3766659498214722,0,0,0.7644000053405762
1.4593955250000001,0,0,1.3431471586227417,0,0,0.6879600286483765
1.460416196,0,0,1.4484920501708984,0,0,0.9172800183296204
1.461406331,0,0,1.4652514457702637,0,0,0.6879600286483765
1.462438317,0,0,1.4700398445129395,0,0,0.7644000053405762
1.463441525,0,0,1.5610195398330688,0,0,1.070159912109375
1.4644416040000001,0,0,1.599326729774475,0,0,0.9937199950218201
1.46542335,0,0,1.5873557329177856,0,0,0.8408399820327759
1.466420484,0,0,1.3934253454208374,0,0,0.9172800183296204
1.46742747,0,0,1.3862427473068237,0,0,1.1466000080108643
1.468479549,0,0,1.3623007535934448,0,0,0.7644000053405762
1.469419499,0,0,1.3958195447921753,0,0,0.6879600286483765
1.470402504,0,0,1.434126853942871,0,0,0.7644000053405762
1.471747911,0,0,1.434126853942871,0,0,0.7644000053405762
1.472392458,0,0,1.5203180313110352,0,0,0.9937199950218201
1.473394018,0,0,1.5155296325683594,0,0,0.9172800183296204
1.474401375,0,0,1.5466543436050415,0,0,0.5350799560546875
1.475419768,0,0,1.5466543436050415,0,0,1.070159912109375
1.476416421,0,0,1.4748282432556152,0,0,0.9937199950218201
1.477418352,0,0,1.3862427473068237,0,0,0.7644000053405762
1.478413801,0,0,1.335964560508728,0,0,0.8408399820327759
1.479429565,0,0,1.3263877630233765,0,0,1.070159912109375
1.48043644,0,0,1.3862427473068237,0,0,20.409481048583984
1.481420816,0,0,1.4389152526855469,0,0,1.070159912109375
1.482421765,0,0,1.479616641998291,0,0,0.611519992351532
1.483403215,0,0,1.501164436340332,0,0,0.611519992351532
1.484407312,0,0,1.5083470344543457,0,0,1.070159912109375
1.485392021,0,0,1.5275006294250488,0,0,0.9172800183296204
1.486400822,0,0,1.5514427423477173,0,0,1.1466000080108643
1.487406049,0,0,1.5059528350830078,0,0,0.6879600286483765
1.4884084610000001,0,0,1.3958195447921753,0,0,0.7644000053405762
1.489455169,0,0,1.3910311460494995,0,0,0.9172800183296204
1.4904241919999999,0,0,1.3934253454208374,0,0,0.611519992351532
1.491400494,0,0,1.37906014919281,0,0,0.9937199950218201
1.492433295,0,0,1.3766659498214722,0,0,0.9937199950218201
1.493496965,0,0,1.3694833517074585,0,0,0.8408399820327759
1.494438415,0,0,1.4317326545715332,0,0,0.611519992351532
1.495409291,0,0,1.4915876388549805,0,0,1.070159912109375
1.496421684,0,0,1.4844050407409668,0,0,0.8408399820327759
1.497468411,0,0,1.5179238319396973,0,0,0.7644000053405762
1.498437879,0,0,1.5538369417190552,0,0,0.9172800183296204
1.499410866,0,0,1.4173674583435059,0,0,0.7644000053405762
1.5004094079999999,0,0,1.3623007535934448,0,0,0.9172800183296204
1.501406857,0,0,1.359906554222107,0,0,0.8408399820327759
1.502413528,0,0,1.2952631711959839,0,0,0.9172800183296204
1.503459718,0,0,1.3048399686813354,0,0,0.7644000053405762
1.504420908,0,0,1.4269442558288574,0,0,0.6879600286483765
1.5054234869999998,0,0,1.558625340461731,0,0,0.8408399820327759
1.5064311209999999,0,0,1.5490485429763794,0,0,0.9937199950218201
1.507415812,0,0,1.482010841369629,0,0,0.6879600286483765
1.50842839,0,0,1.4963760375976563,0,0,0.6879600286483765
1.509468895,0,0,1.4915876388549805,0,0,0.9937199950218201
1.5104381409999998,0,0,1.3120225667953491,0,0,0.611519992351532
1.5114423860000001,0,0,1.3766659498214722,0,0,1.1466000080108643
1.512436372,0,0,1.414973258972168,0,0,0.9172800183296204
1.513605005,0,0,1.357512354850769,0,0,0.8408399820327759
1.514450141,0,0,1.3862427473068237,0,0,0.9172800183296204
1.516390874,0,0,1.4628572463989258,0,0,0.611519992351532
1.516717999,0,0,1.4628572463989258,0,0,0.9172800183296204
1.517371842,0,0,1.5298948287963867,0,0,0.9172800183296204
1.518296885,0,0,1.4101848602294922,0,0,0.3822000026702881
1.519292742,0,0,1.4700398445129395,0,0,0.7644000053405762
1.520296894,0,0,1.4987702369689941,0,0,0.9172800183296204
1.5213006949999999,0,0,1.403002142906189,0,0,0.7644000053405762
1.5222934970000002,0,0,1.4245500564575195,0,0,0.6879600286483765
1.523281872,0,0,1.400607943534851,0,0,0.5350799560546875
1.5242752099999999,0,0,1.3838485479354858,0,0,0.8408399820327759
1.525294826,0,0,1.3192051649093628,0,0,0.9172800183296204
1.5262763129999999,0,0,1.4293384552001953,0,0,0.6879600286483765
1.527280743,0,0,1.4939818382263184,0,0,0.7644000053405762
1.5282987289999999,0,0,1.5179238319396973,0,0,0.8408399820327759
1.5292755489999998,0,0,1.4676456451416016,0,0,0.5350799560546875
1.5302774609999998,0,0,1.5131354331970215,0,0,0.9937199950218201
1.531294447,0,0,1.525106430053711,0,0,0.9937199950218201
1.532307989,0,0,1.2832920551300049,0,0,0.8408399820327759
1.533306809,0,0,1.2880805730819702,0,0,0.8408399820327759
1.5343213690000002,0,0,1.403002142906189,0,0,0.611519992351532
1.5353147630000001,0,0,1.3646949529647827,0,0,0.9937199950218201
1.536313953,0,0,1.359906554222107,0,0,1.2994799613952637
1.537291884,0,0,1.3766659498214722,0,0,0.611519992351532
1.538267963,0,0,1.53707754611969,0,0,0.7644000053405762
1.539268598,0,0,1.4987702369689941,0,0,0.7644000053405762
1.540260195,0,0,1.4676456451416016,0,0,0.7644000053405762
1.541277514,0,0,1.501164436340332,0,0,0.8408399820327759
1.542267593,0,0,1.460463047027588,0,0,0.9937199950218201
1.543247117,0,0,1.4460978507995605,0,0,0.7644000053405762
1.544263825,0,0,1.4221558570861816,0,0,0.5350799560546875
1.545435809,0,0,1.4700398445129395,0,0,0.6879600286483765
1.5462422980000001,0,0,1.3910311460494995,0,0,0.6879600286483765
1.547273173,0,0,1.4245500564575195,0,0,1.223039984703064
1.548271696,0,0,1.3766659498214722,0,0,0.7644000053405762
1.549245424,0,0,1.455674648284912,0,0,0.7644000053405762
1.550224244,0,0,1.50355863571167,0,0,1.070159912109375
1.551224156,0,0,1.501164436340332,0,0,0.6879600286483765
1.5522233650000001,0,0,1.5969325304031372,0,0,0.7644000053405762
1.55322498,0,0,1.5275006294250488,0,0,0.9172800183296204
1.554223596,0,0,1.3694833517074585,0,0,0.8408399820327759
1.555223453,0,0,1.314416766166687,0,0,0.9172800183296204
1.5562234579999998,0,0,1.3431471586227417,0,0,0.9937199950218201
1.557227722,0,0,1.3335703611373901,0,0,0.6879600286483765
1.558223782,0,0,1.3958195447921753,0,0,0.8408399820327759
1.559223713,0,0,1.4652514457702637,0,0,0.8408399820327759
1.56022381,0,0,1.5634137392044067,0,0,0.6879600286483765
1.5612238710000002,0,0,1.5418659448623657,0,0,0.9172800183296204
1.56222382,0,0,1.5083470344543457,0,0,0.5350799560546875
1.5632238250000001,0,0,1.460463047027588,0,0,0.6879600286483765
1.564223645,0,0,1.5322890281677246,0,0,0.9172800183296204
1.565224094,0,0,1.3958195447921753,0,0,0.5350799560546875
1.566223562,0,0,1.3455413579940796,0,0,0.8408399820327759
1.5672238809999999,0,0,1.4245500564575195,0,0,0.9172800183296204
1.5682235709999999,0,0,1.4772224426269531,0,0,1.070159912109375
1.569224428,0,0,1.4963760375976563,0,0,0.9172800183296204
1.5702237289999998,0,0,1.3910311460494995,0,0,0.7644000053405762
1.571223864,0,0,1.50355863571167,0,0,0.4586400091648102
1.572223776,0,0,1.436521053314209,0,0,1.1466000080108643
1.573224336,0,0,1.4053963422775269,0,0,0.7644000053405762
1.574223193,0,0,1.4077905416488647,0,0,0.8408399820327759
1.5752234939999998,0,0,1.558625340461731,0,0,1.1466000080108643
1.576223554,0,0,1.4532804489135742,0,0,0.8408399820327759
1.5772239479999999,0,0,1.3886369466781616,0,0,0.9937199950218201
1.578223749,0,0,1.4628572463989258,0,0,0.7644000053405762
1.579223791,0,0,1.414973258972168,0,0,0.9172800183296204
1.58022387,0,0,1.482010841369629,0,0,1.223039984703064
1.581224856,0,0,1.4508862495422363,0,0,0.8408399820327759
1.582224009,0,0,1.53707754611969,0,0,0.4586400091648102
1.58322381,0,0,1.5179238319396973,0,0,0.7644000053405762
1.5842237780000001,0,0,1.4987702369689941,0,0,0.611519992351532
1.58523469,0,0,1.4939818382263184,0,0,0.9937199950218201
1.5862243249999999,0,0,1.460463047027588,0,0,1.070159912109375
1.587223737,0,0,1.4844050407409668,0,0,0.6879600286483765
1.588223668,0,0,1.381454348564148,0,0,0.8408399820327759
1.589233969,0,0,1.3910311460494995,0,0,0.8408399820327759
1.590227288,0,0,1.3646949529647827,0,0,0.8408399820327759
1.5914948450000002,0,0,1.3455413579940796,0,0,1.070159912109375
1.592385981,0,0,1.3742717504501343,0,0,0.9172800183296204
1.593236247,0,0,1.5107412338256836,0,0,0.8408399820327759
1.594541785,0,0,1.5107412338256836,0,0,0.9172800183296204
1.5952754040000001,0,0,1.5059528350830078,0,0,0.7644000053405762
1.596286354,0,0,1.4293384552001953,0,0,0.7644000053405762
1.597261192,0,0,1.5442601442337036,0,0,0.611519992351532
1.5982685669999999,0,0,1.3862427473068237,0,0,0.8408399820327759
1.599667937,0,0,1.3862427473068237,0,0,0.9172800183296204
1.6003401130000001,0,0,1.400607943534851,0,0,0.7644000053405762
1.60126323,0,0,1.338358759880066,0,0,0.7644000053405762
1.602285142,0,0,1.3934253454208374,0,0,0.6879600286483765
1.603234036,0,0,1.4484920501708984,0,0,0.7644000053405762
1.604230245,0,0,1.534683346748352,0,0,0.8408399820327759
1.605231361,0,0,1.580173134803772,0,0,0.9172800183296204
1.60622681,0,0,1.4915876388549805,0,0,0.4586400091648102
1.6072264440000001,0,0,1.5490485429763794,0,0,0.8408399820327759
1.608226634,0,0,1.5275006294250488,0,0,0
1.6092264360000001,0,0,1.3263877630233765,0,0,0.7644000053405762
1.610226403,0,0,1.3120225667953491,0,0,0.8408399820327759
1.6112263709999999,0,0,1.3239935636520386,0,0,0.9172800183296204
1.6122264309999998,0,0,1.359906554222107,0,0,0.9172800183296204
1.613226492,0,0,1.37906014919281,0,0,0.7644000053405762
1.61422646,0,0,1.3192051649093628,0,0,0.5350799560546875
1.615226316,0,0,1.4700398445129395,0,0,0.9172800183296204
1.616226525,0,0,1.482010841369629,0,0,0.8408399820327759
1.6172263820000001,0,0,1.4748282432556152,0,0,0.6879600286483765
1.6182239790000001,0,0,1.522712230682373,0,0,0.7644000053405762
1.619223428,0,0,1.5682021379470825,0,0,1.070159912109375
1.620223915,0,0,1.5107412338256836,0,0,0.4586400091648102
1.621227197,0,0,1.4317326545715332,0,0,0.9172800183296204
1.6222269059999999,0,0,1.357512354850769,0,0,0.9172800183296204
1.623226614,0,0,1.3335703611373901,0,0,0.9172800183296204
1.6242267670000001,0,0,1.436521053314209,0,0,0.9172800183296204
1.625227809,0,0,1.455674648284912,0,0,0.5350799560546875
1.626226629,0,0,1.50355863571167,0,0,0.6879600286483765
1.627230411,0,0,1.5322890281677246,0,0,0.9172800183296204
1.6282291199999999,0,0,1.4891934394836426,0,0,0.8408399820327759
1.629226791,0,0,1.434126853942871,0,0,0.8408399820327759
1.6302239630000002,0,0,1.4221558570861816,0,0,0.9172800183296204
1.631223893,0,0,1.359906554222107,0,0,0.4586400091648102
1.6322240460000002,0,0,1.37906014919281,0,0,0.7644000053405762
1.633227218,0,0,1.4460978507995605,0,0,0.9172800183296204
1.634226704,0,0,1.3623007535934448,0,0,0.611519992351532
1.635226246,0,0,1.3072341680526733,0,0,0.8408399820327759
1.6362263989999999,0,0,1.357512354850769,0,0,0.611519992351532
1.637226682,0,0,1.4891934394836426,0,0,0.7644000053405762
1.638226094,0,0,1.5203180313110352,0,0,0.5350799560546875
1.6392308949999999,0,0,1.4844050407409668,0,0,0.5350799560546875
1.640272066,0,0,1.5059528350830078,0,0,0.7644000053405762
1.641270441,0,0,1.5203180313110352,0,0,0.9937199950218201
1.642270261,0,0,1.4772224426269531,0,0,0.5350799560546875
1.643276784,0,0,1.3694833517074585,0,0,0.611519992351532
1.6442726589999999,0,0,1.3646949529647827,0,0,0.7644000053405762
1.645273942,0,0,1.2976573705673218,0,0,0.9172800183296204
1.646274317,0,0,1.2210428714752197,0,0,0.6879600286483765
1.647280544,0,0,1.3192051649093628,0,0,0.7644000053405762
1.64826803,0,0,1.4628572463989258,0,0,0.8408399820327759
1.649312461,0,0,1.556231141090393,0,0,1.070159912109375
1.650414242,0,0,1.556231141090393,0,0,0.5350799560546875
1.651257175,0,0,1.434126853942871,0,0,0.8408399820327759
1.652229124,0,0,1.460463047027588,0,0,1.070159912109375
1.653233851,0,0,1.4245500564575195,0,0,0.9172800183296204
1.654227004,0,0,1.37906014919281,0,0,0.9937199950218201
1.655226509,0,0,1.414973258972168,0,0,0.7644000053405762
1.6562264949999999,0,0,1.3694833517074585,0,0,0.8408399820327759
1.657232982,0,0,1.3120225667953491,0,0,0.9937199950218201
1.658226561,0,0,1.3048399686813354,0,0,0.9937199950218201
1.659226399,0,0,1.4652514457702637,0,0,0.9172800183296204
1.660226255,0,0,1.4915876388549805,0,0,1.070159912109375
1.661227316,0,0,1.4724340438842773,0,0,0.7644000053405762
1.662225765,0,0,1.4389152526855469,0,0,0.9172800183296204
1.66324451,0,0,1.4724340438842773,0,0,1.1466000080108643
1.664227071,0,0,1.5442601442337036,0,0,0.6879600286483765
1.665227465,0,0,1.3311761617660522,0,0,0.9937199950218201
1.666226303,0,0,1.3862427473068237,0,0,0.611519992351532
1.667226308,0,0,1.4413094520568848,0,0,0.6879600286483765
1.668226072,0,0,1.3982137441635132,0,0,0.8408399820327759
1.6692272620000002,0,0,1.3000515699386597,0,0,0.9937199950218201
1.670226193,0,0,1.4173674583435059,0,0,0.7644000053405762
1.671226049,0,0,1.50355863571167,0,0,1.070159912109375
1.672226147,0,0,1.4077905416488647,0,0,0.611519992351532
1.6732274660000002,0,0,1.4460978507995605,0,0,0.6879600286483765
1.674226323,0,0,1.50355863571167,0,0,1.1466000080108643
1.675226198,0,0,1.4628572463989258,0,0,0.9937199950218201
1.6762264070000001,0,0,1.335964560508728,0,0,0.611519992351532
1.677227263,0,0,1.434126853942871,0,0,0.7644000053405762
1.678226194,0,0,1.434126853942871,0,0,0.9172800183296204
1.679226347,0,0,1.280897855758667,0,0,0.9172800183296204
1.680225778,0,0,1.2737152576446533,0,0,0.8408399820327759
1.6812272639999999,0,0,1.455674648284912,0,0,0.6879600286483765
1.6822261950000001,0,0,1.5179238319396973,0,0,0.9172800183296204
1.6832259029999999,0,0,1.479616641998291,0,0,0.2293200045824051
1.684225853,0,0,1.4532804489135742,0,0,0.8408399820327759
1.685226987,0,0,1.4915876388549805,0,0,0.9937199950218201
1.686225992,0,0,1.4676456451416016,0,0,1.1466000080108643
1.687226349,0,0,1.338358759880066,0,0,0.4586400091648102
1.6882262049999999,0,0,1.3287819623947144,0,0,0.7644000053405762
1.689227395,0,0,1.37906014919281,0,0,0.611519992351532
1.6902262700000001,0,0,1.338358759880066,0,0,0.6879600286483765
1.6912262569999998,0,0,1.403002142906189,0,0,0.9172800183296204
1.692226243,0,0,1.5107412338256836,0,0,0.9937199950218201
1.693227211,0,0,1.4724340438842773,0,0,0.7644000053405762
1.6942261790000002,0,0,1.4652514457702637,0,0,0.611519992351532
1.695226128,0,0,1.3958195447921753,0,0,0.8408399820327759
1.696226299,0,0,1.460463047027588,0,0,0.9172800183296204
1.6972271559999998,0,0,1.4389152526855469,0,0,0.8408399820327759
1.698225957,0,0,1.41257905960083,0,0,0.8408399820327759
1.699226258,0,0,1.3958195447921753,0,0,1.070159912109375
1.700226263,0,0,1.3527239561080933,0,0,0.8408399820327759
1.7012276750000002,0,0,1.3958195447921753,0,0,0.611519992351532
1.702226069,0,0,1.3048399686813354,0,0,0.6879600286483765
1.7032687960000001,0,0,1.357512354850769,0,0,0.9172800183296204
1.7042606340000002,0,0,1.4772224426269531,0,0,0.9937199950218201
1.707712846,0,0,1.4772224426269531,0,0,0.9172800183296204
1.707881547,0,0,1.4772224426269531,0,0,0.9172800183296204
1.7080465999999999,0,0,1.4772224426269531,0,0,0.9937199950218201
1.708210913,0,0,1.4389152526855469,0,0,0.7644000053405762
1.709237769,0,0,1.3479355573654175,0,0,0.7644000053405762
1.710224904,0,0,1.3742717504501343,0,0,0.9172800183296204
1.711224853,0,0,1.3886369466781616,0,0,1.070159912109375
1.7122234509999998,0,0,1.2449848651885986,0,0,0.8408399820327759
1.713243529,0,0,1.314416766166687,0,0,0.9172800183296204
1.714224757,0,0,1.4508862495422363,0,0,0.7644000053405762
1.715223984,0,0,1.5442601442337036,0,0,0.8408399820327759
1.7162166920000002,0,0,1.5083470344543457,0,0,0.611519992351532
1.7172265119999999,0,0,1.5634137392044067,0,0,0.7644000053405762
1.718224331,0,0,1.5394717454910278,0,0,1.070159912109375
1.7192238359999998,0,0,1.4987702369689941,0,0,0.611519992351532
1.7202236370000001,0,0,1.3431471586227417,0,0,0.7644000053405762
1.721223605,0,0,1.357512354850769,0,0,20.409481048583984
1.72222374,0,0,1.4245500564575195,0,0,0
1.723226263,0,0,1.3431471586227417,0,0,0.9937199950218201
1.724224027,0,0,1.3958195447921753,0,0,0.9172800183296204
1.7252247729999999,0,0,1.5442601442337036,0,0,0.5350799560546875
1.7262235179999998,0,0,1.558625340461731,0,0,0.9172800183296204
1.727223301,0,0,1.4867992401123047,0,0,0.611519992351532
1.7282236389999999,0,0,1.4508862495422363,0,0,1.070159912109375
1.729228144,0,0,1.5298948287963867,0,0,0.9172800183296204
1.730226797,0,0,1.4676456451416016,0,0,0.7644000053405762
1.731226653,0,0,1.3934253454208374,0,0,0.7644000053405762
1.732226658,0,0,1.3886369466781616,0,0,0.9172800183296204
1.7332265329999998,0,0,1.400607943534851,0,0,0.6879600286483765
1.734226557,0,0,1.400607943534851,0,0,0.7644000053405762
1.735226339,0,0,1.4245500564575195,0,0,0.9172800183296204
1.736226603,0,0,1.4628572463989258,0,0,0.9172800183296204
1.73722683,0,0,1.4676456451416016,0,0,0.6879600286483765
1.738226576,0,0,1.482010841369629,0,0,0.9172800183296204
1.739226414,0,0,1.5442601442337036,0,0,0.6879600286483765
1.740226493,0,0,1.5753847360610962,0,0,0.6879600286483765
1.7412264610000001,0,0,1.5514427423477173,0,0,0.7644000053405762
1.7422238920000002,0,0,1.4293384552001953,0,0,0.7644000053405762
1.743223878,0,0,1.403002142906189,0,0,1.070159912109375
1.7442239750000001,0,0,1.3623007535934448,0,0,0.8408399820327759
1.7452304239999998,0,0,1.3623007535934448,0,0,0.611519992351532
1.74622717,0,0,1.3766659498214722,0,0,0.8408399820327759
1.747226323,0,0,1.482010841369629,0,0,0.6879600286483765
1.7482259949999999,0,0,1.4772224426269531,0,0,0.7644000053405762
1.749227203,0,0,1.4460978507995605,0,0,0
1.7502261890000002,0,0,1.4197616577148438,0,0,0.9937199950218201
1.7512265089999999,0,0,1.4532804489135742,0,0,0.8408399820327759
1.752226032,0,0,1.3934253454208374,0,0,0.6879600286483765
1.7532273520000001,0,0,1.3239935636520386,0,0,0.6879600286483765
1.754226338,0,0,1.4101848602294922,0,0,0.9172800183296204
1.7552261759999999,0,0,1.3623007535934448,0,0,0.8408399820327759
1.7562262180000001,0,0,1.3120225667953491,0,0,0.6879600286483765
1.75722713,0,0,1.3646949529647827,0,0,0.9172800183296204
1.758234691,0,0,1.4915876388549805,0,0,0.9937199950218201
1.7592273440000001,0,0,1.558625340461731,0,0,0.7644000053405762
1.760226793,0,0,1.4987702369689941,0,0,0.611519992351532
1.761227983,0,0,1.501164436340332,0,0,0.9937199950218201
1.7622262659999999,0,0,1.4389152526855469,0,0,0.9172800183296204
1.763227826,0,0,1.3623007535934448,0,0,0.9172800183296204
1.764226312,0,0,1.3455413579940796,0,0,0.6879600286483765
1.765228299,0,0,1.4197616577148438,0,0,0.9172800183296204
1.766226192,0,0,1.4077905416488647,0,0,0.8408399820327759
1.767225808,0,0,1.3431471586227417,0,0,0.7644000053405762
1.7682258320000002,0,0,1.460463047027588,0,0,0.6879600286483765
1.769226966,0,0,1.5538369417190552,0,0,0.611519992351532
1.770225712,0,0,1.5322890281677246,0,0,1.070159912109375
1.771243809,0,0,1.4772224426269531,0,0,0.3822000026702881
1.7722279250000001,0,0,1.525106430053711,0,0,0.7644000053405762
1.773227893,0,0,1.4700398445129395,0,0,1.1466000080108643
1.774226453,0,0,1.3215993642807007,0,0,0.7644000053405762
1.775225958,0,0,1.314416766166687,0,0,0.6879600286483765
1.7762263520000001,0,0,1.3096283674240112,0,0,1.223039984703064
1.7772438560000001,0,0,1.2856862545013428,0,0,0.8408399820327759
1.778227009,0,0,1.4437036514282227,0,0,0.5350799560546875
1.7792261809999999,0,0,1.4484920501708984,0,0,0.8408399820327759
1.780226297,0,0,1.5705963373184204,0,0,0.6879600286483765
1.7812274129999999,0,0,1.5131354331970215,0,0,0.7644000053405762
1.7822263619999998,0,0,1.5155296325683594,0,0,0.8408399820327759
1.7832261630000001,0,0,1.5849615335464478,0,0,0.7644000053405762
1.784226242,0,0,1.4700398445129395,0,0,0.9937199950218201
1.78522721,0,0,1.4101848602294922,0,0,0.6879600286483765
1.786226141,0,0,1.2521674633026123,0,0,0.8408399820327759
1.787226071,0,0,1.314416766166687,0,0,0.8408399820327759
1.78822565,0,0,1.3407529592514038,0,0,0.5350799560546875
1.7892272660000001,0,0,1.3048399686813354,0,0,0.5350799560546875
1.7902262530000002,0,0,1.3718775510787964,0,0,0.9172800183296204
1.791225609,0,0,1.4963760375976563,0,0,0.7644000053405762
1.7922257990000001,0,0,1.4460978507995605,0,0,0.8408399820327759
1.793227304,0,0,1.4772224426269531,0,0,0.9172800183296204
1.794226179,0,0,1.460463047027588,0,0,0.9937199950218201
1.795225999,0,0,1.45806884765625,0,0,0.9937199950218201
1.796226244,0,0,1.359906554222107,0,0,0.9937199950218201
1.797225786,0,0,1.2713210582733154,0,0,0.7644000053405762
1.79822381,0,0,1.4245500564575195,0,0,1.1466000080108643
1.79922524,0,0,1.3958195447921753,0,0,0.5350799560546875
1.800229541,0,0,1.335964560508728,0,0,0.9172800183296204
1.8012273429999999,0,0,1.4173674583435059,0,0,0.7644000053405762
1.802226459,0,0,1.501164436340332,0,0,0.8408399820327759
1.803226241,0,0,1.4628572463989258,0,0,0
1.804226153,0,0,1.4293384552001953,0,0,0.8408399820327759
1.8052274910000001,0,0,1.5275006294250488,0,0,0.9937199950218201
1.8062262,0,0,1.580173134803772,0,0,0.9172800183296204
1.807226149,0,0,1.4389152526855469,0,0,0.6879600286483765
1.808225747,0,0,1.335964560508728,0,0,0.7644000053405762
1.809227122,0,0,1.3910311460494995,0,0,1.070159912109375
1.810226127,0,0,1.3311761617660522,0,0,0.7644000053405762
1.8112260199999999,0,0,1.3670891523361206,0,0,0.9172800183296204
1.8122261549999998,0,0,1.4293384552001953,0,0,0.9937199950218201
1.813226512,0,0,1.580173134803772,0,0,0.611519992351532
1.814226109,0,0,1.50355863571167,0,0,0.611519992351532
1.815226058,0,0,1.4173674583435059,0,0,0.8408399820327759
1.8162260080000001,0,0,1.4844050407409668,0,0,0.7644000053405762
1.81722692,0,0,1.53707754611969,0,0,0.9172800183296204
1.818226091,0,0,1.3215993642807007,0,0,0.7644000053405762
1.819225892,0,0,1.3048399686813354,0,0,0.7644000053405762
1.820225916,0,0,1.37906014919281,0,0,1.1466000080108643
1.821226939,0,0,1.3718775510787964,0,0,0.9172800183296204
1.822226036,0,0,1.3335703611373901,0,0,0.9937199950218201
1.823225949,0,0,1.3742717504501343,0,0,0.8408399820327759
1.824225972,0,0,1.482010841369629,0,0,0.6879600286483765
1.825226958,0,0,1.50355863571167,0,0,0.4586400091648102
1.8262262219999998,0,0,1.455674648284912,0,0,1.070159912109375
1.827225986,0,0,1.4508862495422363,0,0,0.611519992351532
1.828226028,0,0,1.4508862495422363,0,0,0.9172800183296204
1.82922707,0,0,1.3407529592514038,0,0,1.070159912109375
1.830225908,0,0,1.2497732639312744,0,0,0.6879600286483765
1.83122558,0,0,1.335964560508728,0,0,0.9937199950218201
1.8322258439999999,0,0,1.403002142906189,0,0,0.8408399820327759
1.833227182,0,0,1.3311761617660522,0,0,0.611519992351532
1.834243557,0,0,1.4700398445129395,0,0,0.9172800183296204
1.835226636,0,0,1.4915876388549805,0,0,0.8408399820327759
1.83622603,0,0,1.4772224426269531,0,0,0.8408399820327759
1.837227109,0,0,1.4939818382263184,0,0,1.070159912109375
1.838225891,0,0,1.5418659448623657,0,0,0.7644000053405762
1.839226063,0,0,1.5275006294250488,0,0,1.1466000080108643
1.8402261420000001,0,0,1.455674648284912,0,0,0.8408399820327759
1.841232572,0,0,1.3910311460494995,0,0,0.7644000053405762
1.842225892,0,0,1.460463047027588,0,0,0.9172800183296204
1.843225564,0,0,1.3862427473068237,0,0,0.6879600286483765
1.844510102,0,0,1.37906014919281,0,0,0.9172800183296204
1.8452299810000001,0,0,1.436521053314209,0,0,0.7644000053405762
1.8463074289999999,0,0,1.53707754611969,0,0,0.9172800183296204
1.847246583,0,0,1.525106430053711,0,0,0.8408399820327759
1.848228421,0,0,1.4748282432556152,0,0,0.6879600286483765
1.849230333,0,0,1.501164436340332,0,0,0.6879600286483765
1.850226097,0,0,1.5322890281677246,0,0,0.8408399820327759
1.8512260280000001,0,0,1.4317326545715332,0,0,0.6879600286483765
1.8522259399999998,0,0,1.3982137441635132,0,0,0.7644000053405762
1.8532269270000001,0,0,1.434126853942871,0,0,0.9937199950218201
1.85422608,0,0,1.3958195447921753,0,0,0.611519992351532
1.855226158,0,0,1.3694833517074585,0,0,0.6879600286483765
1.856225756,0,0,1.4101848602294922,0,0,0.9937199950218201
1.857226853,0,0,1.4963760375976563,0,0,0.611519992351532
1.858226191,0,0,1.4891934394836426,0,0,0.7644000053405762
1.859273862,0,0,1.482010841369629,0,0,1.223039984703064
1.860229571,0,0,1.5610195398330688,0,0,0.7644000053405762
1.861229317,0,0,1.5203180313110352,0,0,0.9937199950218201
1.8622555809999999,0,0,1.4221558570861816,0,0,0.6879600286483765
1.8632663630000001,0,0,1.3958195447921753,0,0,0.9172800183296204
1.864230609,0,0,1.3670891523361206,0,0,1.070159912109375
1.8652508540000001,0,0,1.3335703611373901,0,0,0.7644000053405762
1.86622786,0,0,1.3287819623947144,0,0,0.6879600286483765
1.867226753,0,0,1.3407529592514038,0,0,0.9172800183296204
1.868226425,0,0,1.5490485429763794,0,0,0.8408399820327759
1.869228948,0,0,1.4844050407409668,0,0,1.1466000080108643
1.870226564,0,0,1.5658079385757446,0,0,0.9172800183296204
1.871226328,0,0,1.6065093278884888,0,0,0.4586400091648102
1.872226666,0,0,1.558625340461731,0,0,0.8408399820327759
1.873227375,0,0,1.45806884765625,0,0,0.8408399820327759
1.8742265649999998,0,0,1.3335703611373901,0,0,0.9937199950218201
1.875226347,0,0,1.3886369466781616,0,0,1.1466000080108643
1.876226334,0,0,1.314416766166687,0,0,0.9172800183296204
1.8772272829999999,0,0,1.400607943534851,0,0,0.7644000053405762
1.878226658,0,0,1.4437036514282227,0,0,0.9937199950218201
1.879226515,0,0,1.5634137392044067,0,0,0.8408399820327759
1.880226372,0,0,1.556231141090393,0,0,0.6879600286483765
1.881227173,0,0,1.4772224426269531,0,0,1.070159912109375
1.882226548,0,0,1.482010841369629,0,0,0.5350799560546875
1.88322646,0,0,1.5682021379470825,0,0,0.7644000053405762
1.884226372,0,0,1.5179238319396973,0,0,0.6879600286483765
1.885227488,0,0,1.45806884765625,0,0,0.611519992351532
1.886226586,0,0,1.3838485479354858,0,0,1.1466000080108643
1.887226424,0,0,1.3910311460494995,0,0,0.8408399820327759
1.888226318,0,0,1.3862427473068237,0,0,0.6879600286483765
1.889228285,0,0,1.4173674583435059,0,0,0.9172800183296204
1.8902528269999999,0,0,1.4915876388549805,0,0,0.7644000053405762
1.891255443,0,0,1.501164436340332,0,0,0.7644000053405762
1.8922514480000001,0,0,1.5059528350830078,0,0,1.070159912109375
1.8932500270000001,0,0,1.5418659448623657,0,0,0.611519992351532
1.894246457,0,0,1.50355863571167,0,0,0.5350799560546875
1.8952532579999999,0,0,1.3910311460494995,0,0,0.5350799560546875
1.896247411,0,0,1.400607943534851,0,0,0.9937199950218201
1.897265175,0,0,1.3958195447921753,0,0,1.070159912109375
1.8982750130000001,0,0,1.3670891523361206,0,0,0.611519992351532
1.899274611,0,0,1.3215993642807007,0,0,0.8408399820327759
1.9009631059999998,0,0,1.3335703611373901,0,0,0.611519992351532
1.901239269,0,0,1.4939818382263184,0,0,0.6879600286483765
1.9022497,0,0,1.4867992401123047,0,0,0.8408399820327759
1.903265371,0,0,1.5394717454910278,0,0,0.8408399820327759
1.9042553199999999,0,0,1.5203180313110352,0,0,0.611519992351532
1.905257714,0,0,1.4724340438842773,0,0,0.6879600286483765
1.9062637,0,0,1.357512354850769,0,0,0.8408399820327759
1.907279853,0,0,1.37906014919281,0,0,0.8408399820327759
1.9082551730000001,0,0,1.37906014919281,0,0,1.223039984703064
1.909237326,0,0,1.2880805730819702,0,0,0.6879600286483765
1.9102242010000001,0,0,1.359906554222107,0,0,0.6879600286483765
1.911224077,0,0,1.37906014919281,0,0,1.1466000080108643
1.912223822,0,0,1.482010841369629,0,0,0.4586400091648102
1.913226179,0,0,1.4077905416488647,0,0,0.7644000053405762
1.91422385,0,0,1.4413094520568848,0,0,0.9172800183296204
1.915223855,0,0,1.4652514457702637,0,0,0.6879600286483765
1.916223934,0,0,1.4772224426269531,0,0,0.9937199950218201
1.917224568,0,0,1.4484920501708984,0,0,0.9172800183296204
1.918223814,0,0,1.3527239561080933,0,0,0.8408399820327759
1.919223634,0,0,1.3192051649093628,0,0,0.7644000053405762
1.9202236940000001,0,0,1.3120225667953491,0,0,0.9172800183296204
1.921224329,0,0,1.3551181554794312,0,0,0.7644000053405762
1.922223889,0,0,1.4437036514282227,0,0,0.8408399820327759
1.923226894,0,0,1.4389152526855469,0,0,0.6879600286483765
1.924223713,0,0,1.5275006294250488,0,0,0.611519992351532
1.925223811,0,0,1.434126853942871,0,0,0.9172800183296204
1.926224019,0,0,1.53707754611969,0,0,0.7644000053405762
1.927228006,0,0,1.5179238319396973,0,0,0.9937199950218201
1.928227159,0,0,1.3958195447921753,0,0,1.223039984703064
1.92922846,0,0,1.414973258972168,0,0,0.9172800183296204
1.930223964,0,0,1.3287819623947144,0,0,0.9172800183296204
1.931223747,0,0,1.3072341680526733,0,0,0.9937199950218201
1.932223845,0,0,1.3670891523361206,0,0,0.9937199950218201
1.933224053,0,0,1.3335703611373901,0,0,1.070159912109375
1.9342240579999999,0,0,1.4748282432556152,0,0,0.6879600286483765
1.935223766,0,0,1.6184803247451782,0,0,0.6879600286483765
1.936223864,0,0,1.434126853942871,0,0,0.9172800183296204
1.938089523,0,0,1.434126853942871,0,0,0.9172800183296204
1.93825328,0,0,1.4484920501708984,0,0,0.8408399820327759
1.939225026,0,0,1.4317326545715332,0,0,0.7644000053405762
1.940223772,0,0,1.3910311460494995,0,0,0.9172800183296204
1.941226147,0,0,1.41257905960083,0,0,0.9937199950218201
1.942223615,0,0,1.3335703611373901,0,0,0.9172800183296204
1.943223305,0,0,1.2880805730819702,0,0,0.8408399820327759
1.944223884,0,0,1.3431471586227417,0,0,0.6879600286483765
1.945228907,0,0,1.4101848602294922,0,0,0.5350799560546875
1.9462269490000002,0,0,1.50355863571167,0,0,0.611519992351532
1.947226565,0,0,1.45806884765625,0,0,0.8408399820327759
1.948226718,0,0,1.4987702369689941,0,0,0.8408399820327759
1.9492265560000002,0,0,1.45806884765625,0,0,0.9172800183296204
1.9502264870000001,0,0,1.3862427473068237,0,0,0.9937199950218201
1.951226529,0,0,1.359906554222107,0,0,0.6879600286483765
1.952226515,0,0,1.3311761617660522,0,0,0.8408399820327759
1.953226946,0,0,1.3982137441635132,0,0,0.6879600286483765
1.9542265250000002,0,0,1.280897855758667,0,0,0.7644000053405762
1.955226511,0,0,1.3838485479354858,0,0,0.9172800183296204
1.956226145,0,0,1.4748282432556152,0,0,0.7644000053405762
1.957228521,0,0,1.5275006294250488,0,0,1.2994799613952637
1.958226248,0,0,1.6328455209732056,0,0,0.8408399820327759
1.959226326,0,0,1.5466543436050415,0,0,0.6879600286483765
1.960226665,0,0,1.5298948287963867,0,0,0.7644000053405762
1.961226262,0,0,1.482010841369629,0,0,0.9172800183296204
1.962226526,0,0,1.3431471586227417,0,0,0.6879600286483765
1.963226457,0,0,1.3263877630233765,0,0,0.8408399820327759
1.964228943,0,0,1.4197616577148438,0,0,1.070159912109375
1.9652484289999999,0,0,1.357512354850769,0,0,0.6879600286483765
1.9662277860000001,0,0,1.3215993642807007,0,0,0.9172800183296204
1.9672264579999998,0,0,1.4915876388549805,0,0,0.9172800183296204
1.96822674,0,0,1.5083470344543457,0,0,0.6879600286483765
1.969248041,0,0,1.5203180313110352,0,0,0.7644000053405762
1.970227972,0,0,1.5131354331970215,0,0,0.611519992351532
1.971226403,0,0,1.4532804489135742,0,0,0.611519992351532
1.972226426,0,0,1.4508862495422363,0,0,0.9937199950218201
1.973227727,0,0,1.3742717504501343,0,0,0.7644000053405762
1.974226454,0,0,1.3838485479354858,0,0,1.070159912109375
1.9752267,0,0,1.4652514457702637,0,0,0.9172800183296204
1.97622652,0,0,1.4652514457702637,0,0,0.7644000053405762
1.9772273949999999,0,0,1.4269442558288574,0,0,0.9172800183296204
1.9782265479999999,0,0,1.400607943534851,0,0,1.070159912109375
1.9792261450000002,0,0,1.41257905960083,0,0,0.8408399820327759
1.9802264649999999,0,0,1.455674648284912,0,0,0.7644000053405762
1.9812269329999999,0,0,1.460463047027588,0,0,0.611519992351532
1.9822259,0,0,1.5059528350830078,0,0,0.611519992351532
1.98322635,0,0,1.5322890281677246,0,0,0.9172800183296204
1.984226577,0,0,1.4484920501708984,0,0,0.8408399820327759
1.985227785,0,0,1.400607943534851,0,0,0.9172800183296204
1.986226105,0,0,1.4077905416488647,0,0,0.611519992351532
1.98722648,0,0,1.4413094520568848,0,0,0.9937199950218201
1.988226633,0,0,1.3263877630233765,0,0,0.9937199950218201
1.989227675,0,0,1.4245500564575195,0,0,0.6879600286483765
1.990226624,0,0,1.525106430053711,0,0,0.7644000053405762
1.991226647,0,0,1.53707754611969,0,0,1.2994799613952637
1.992226467,0,0,1.5418659448623657,0,0,0.7644000053405762
1.99322749,0,0,1.5083470344543457,0,0,0.611519992351532
1.9942264029999999,0,0,1.4724340438842773,0,0,0.8408399820327759
1.995226333,0,0,1.3215993642807007,0,0,0.9172800183296204
1.996226394,0,0,1.3742717504501343,0,0,0.9172800183296204
1.997227343,0,0,1.3838485479354858,0,0,0.6879600286483765
1.9982265890000002,0,0,1.3646949529647827,0,0,0.6879600286483765
1.999226482,0,0,1.3407529592514038,0,0,0.8408399820327759
2.000226487,0,0,1.381454348564148,0,0,0.611519992351532
2.001227547,0,0,1.5275006294250488,0,0,0.9172800183296204
2.002226589,0,0,1.5107412338256836,0,0,1.223039984703064
2.003226816,0,0,1.5322890281677246,0,0,0.6879600286483765
2.004226229,0,0,1.556231141090393,0,0,0.6879600286483765
2.005227474,0,0,1.5682021379470825,0,0,0.611519992351532
2.006226479,0,0,1.4437036514282227,0,0,0.9172800183296204
2.007225928,0,0,1.3742717504501343,0,0,0.9937199950218201
2.008226211,0,0,1.3670891523361206,0,0,0.6879600286483765
2.009227345,0,0,1.4077905416488647,0,0,0.9172800183296204
2.01022648,0,0,1.4053963422775269,0,0,0.8408399820327759
2.011226503,0,0,1.5131354331970215,0,0,0.9172800183296204
2.012226545,0,0,1.5298948287963867,0,0,0.8408399820327759
2.013227476,0,0,1.4963760375976563,0,0,0.7644000053405762
2.014226258,0,0,1.4748282432556152,0,0,0.3822000026702881
2.015226504,0,0,1.5322890281677246,0,0,0.8408399820327759
2.016226546,0,0,1.479616641998291,0,0,1.1466000080108643
2.017227551,0,0,1.3766659498214722,0,0,0.9937199950218201
2.018226722,0,0,1.3886369466781616,0,0,0.8408399820327759
2.019226394,0,0,1.338358759880066,0,0,0.9937199950218201
2.020226621,0,0,1.3287819623947144,0,0,0.9172800183296204
2.021227496,0,0,1.3335703611373901,0,0,0.8408399820327759
2.022226352,0,0,1.455674648284912,0,0,0.611519992351532
2.023226635,0,0,1.4772224426269531,0,0,0.8408399820327759
2.024226399,0,0,1.5155296325683594,0,0,0.9172800183296204
2.025227459,0,0,1.50355863571167,0,0,0.305759996175766
2.026226483,0,0,1.534683346748352,0,0,0.611519992351532
2.027226432,0,0,1.4532804489135742,0,0,0.6879600286483765
2.02822627,0,0,1.4101848602294922,0,0,0.5350799560546875
2.029226997,0,0,1.4245500564575195,0,0,0.9172800183296204
2.030226835,0,0,1.403002142906189,0,0,0.6879600286483765
2.031226451,0,0,1.3670891523361206,0,0,0.7644000053405762
2.032226641,0,0,1.3718775510787964,0,0,0.9172800183296204
2.033234257,0,0,1.4532804489135742,0,0,0.7644000053405762
2.03422691,0,0,1.4508862495422363,0,0,0.7644000053405762
2.035226637,0,0,1.5179238319396973,0,0,0.9172800183296204
2.036226642,0,0,1.525106430053711,0,0,0.4586400091648102
2.037227721,0,0,1.5490485429763794,0,0,0.7644000053405762
2.038226522,0,0,1.4915876388549805,0,0,0.6879600286483765
2.039226286,0,0,1.3192051649093628,0,0,0.8408399820327759
2.040226458,0,0,1.4221558570861816,0,0,0.7644000053405762
2.041227666,0,0,1.4269442558288574,0,0,0.7644000053405762
2.04222656,0,0,1.2521674633026123,0,0,1.1466000080108643
2.043226528,0,0,1.357512354850769,0,0,0.9172800183296204
2.044226495,0,0,1.482010841369629,0,0,0.611519992351532
2.045227519,0,0,1.522712230682373,0,0,0.6879600286483765
2.046226542,0,0,1.5538369417190552,0,0,0.7644000053405762
2.047226158,0,0,1.4724340438842773,0,0,0.5350799560546875
2.048226515,0,0,1.4628572463989258,0,0,0.9172800183296204
2.049346148,0,0,1.4628572463989258,0,0,0.7644000053405762
2.050229673,0,0,1.3982137441635132,0,0,1.070159912109375
2.051226566,0,0,1.3335703611373901,0,0,0.9172800183296204
2.052226645,0,0,1.4508862495422363,0,0,0.8408399820327759
2.053227798,0,0,1.4460978507995605,0,0,0.8408399820327759
2.05422647,0,0,1.4676456451416016,0,0,0.7644000053405762
2.05522653,0,0,1.4508862495422363,0,0,0.8408399820327759
2.056226553,0,0,1.41257905960083,0,0,0.5350799560546875
2.057227577,0,0,1.4508862495422363,0,0,0.7644000053405762
2.058226526,0,0,1.45806884765625,0,0,0.8408399820327759
2.059226383,0,0,1.5418659448623657,0,0,0.5350799560546875
2.060226517,0,0,1.5466543436050415,0,0,0.6879600286483765
2.061227374,0,0,1.3958195447921753,0,0,0.611519992351532
2.062226453,0,0,1.3455413579940796,0,0,0.9172800183296204
2.063226587,0,0,1.3096283674240112,0,0,0.9172800183296204
2.064226259,0,0,1.2545616626739502,0,0,0.6879600286483765
2.065227763,0,0,1.3718775510787964,0,0,0.611519992351532
2.066226361,0,0,1.4317326545715332,0,0,0.8408399820327759
2.067226199,0,0,1.4867992401123047,0,0,0.7644000053405762
2.068226482,0,0,1.556231141090393,0,0,0.8408399820327759
2.069227116,0,0,1.50355863571167,0,0,0.8408399820327759
2.070226491,0,0,1.4867992401123047,0,0,0.9172800183296204
