Time,AccelX1,AccelY1,AccelZ1,AccelX2,AccelY2,AccelZ2
0.000009519,0,0,0,0,0,0.8408399820327759
0.007530994,0,0,0,0,0,0.8408399820327759
0.007721381,0,0,0,0,0,0.9937199950218201
0.007887601,0,0,0,0,0,0.9937199950218201
0.008052691,0,0,0,0,0,1.1466000080108643
0.008238448,0,0,0,0,0,0.9937199950218201
0.008411224,0,0,0,0,0,0.9937199950218201
0.008578018,0,0,0,0,0,0.9172800183296204
0.008745238,0,0,0,0,0,0.8408399820327759
0.009232472,0,0,0,0,0,0.9937199950218201
0.010224885,0,0,0,0,0,0.6879600286483765
0.011224483,0,0,0,0,0,0.8408399820327759
0.012237822,0,0,0,0,0,0.4586400091648102
0.013224846,0,0,0,0,0,0.7644000053405762
0.0142235,0,0,0,0,0,0.9937199950218201
0.015232264,0,0,0,0,0,0.9172800183296204
0.016224047,0,0,0,0,0,0.6879600286483765
0.017235516,0,0,0,0,0,1.1466000080108643
0.018224447,0,0,0,0,0,0.9172800183296204
0.019224193,0,0,0,0,0,1.2994799613952637
0.020223106,0,0,0,0,0,0.6879600286483765
0.021223704,0,0,0,0,0,0.611519992351532
0.022223136,0,0,0,0,0,0.9937199950218201
0.023224715,0,0,0,0,0,0.5350799560546875
0.02422285,0,0,0,0,0,0.9172800183296204
0.025222856,0,0,0,0,0,1.1466000080108643
0.026222713,0,0,0,0,0,0.8408399820327759
0.027237663,0,0,0,0,0,1.1466000080108643
0.028224113,0,0,0,0,0,0.7644000053405762
0.029222822,0,0,0,0,0,0.9172800183296204
0.030222624,0,0,0,0,0,1.070159912109375
0.031223592,0,0,0,0,0,0.6879600286483765
0.032222598,0,0,0,0,0,0.5350799560546875
0.033224677,0,0,0,0,0,1.1466000080108643
0.034222553,0,0,0,0,0,0.5350799560546875
0.035224558,0,0,0,0,0,0.6879600286483765
0.036222416,0,0,0,0,0,0.7644000053405762
0.037222495,0,0,0,0,0,0.8408399820327759
0.038222538,0,0,0,0,0,0.9172800183296204
0.039222636,0,0,0,0,0,0.7644000053405762
0.040222178,0,0,0,0,0,0.8408399820327759
0.041222406,0,0,0,0,0,0.9172800183296204
0.042221948,0,0,0,0,0,1.070159912109375
0.043222954,0,0,0,0,0,0.5350799560546875
0.04422233,0,0,0,0,0,1.1466000080108643
0.045222057,0,0,0,0,0,0.6879600286483765
0.046221915,0,0,0,0,0,0.7644000053405762
0.047223494,0,0,0,0,0,0.9937199950218201
0.048222351,0,0,0,0,0,0.8408399820327759
0.049222672,0,0,0,0,0,0.9937199950218201
0.050222214,0,0,0,0,0,0.9172800183296204
0.05122296,0,0,0,0,0,0.611519992351532
0.052222596,0,0,0,0,0,1.1466000080108643
0.053222231,0,0,0,0,0,0.6879600286483765
0.05422231,0,0,0,0,0,0.3822000026702881
0.055222593,0,0,0,0,0,1.223039984703064
0.05622234,0,0,0,0,0,0.6879600286483765
0.057222308,0,0,0,0,0,1.070159912109375
0.058222462,0,0,0,0,0,0.8408399820327759
0.059223004,0,0,0,0,0,0.8408399820327759
0.060222621,0,0,0,0,0,1.223039984703064
0.061261866,0,0,0,0,0,0.9937199950218201
0.062223502,0,0,0,0,0,0.9172800183296204
0.063222655,0,0,0,0,0,0.9172800183296204
0.064222124,0,0,0,0,0,0.9172800183296204
0.065234166,0,0,0,0,0,0.8408399820327759
0.066223283,0,0,0,0,0,1.070159912109375
0.067226474,0,0,0,0,0,0.9172800183296204
0.068224738,0,0,0,0,0,0.6879600286483765
0.069224725,0,0,0,0,0,0.8408399820327759
0.070224508,0,0,0,0,0,0.7644000053405762
0.071225866,0,0,0,0,0,0.7644000053405762
0.072224612,0,0,0,0,0,0.9172800183296204
0.073224599,0,0,0,0,0,0.9172800183296204
0.074224826,0,0,0,0,0,1.070159912109375
0.07522548,0,0,0,0,0,1.070159912109375
0.076224615,0,0,0,0,0,0.611519992351532
0.07722475,0,0,0,0,0,0.611519992351532
0.078224682,0,0,0,0,0,1.1466000080108643
0.079225428,0,0,0,0,0,0.9937199950218201
0.080224526,0,0,0,0,0,0.9172800183296204
0.081224679,0,0,0,0,0,0.7644000053405762
0.082224574,0,0,0,0,0,1.1466000080108643
0.083225598,0,0,0,0,0,0.9937199950218201
0.084224418,0,0,0,0,0,0.8408399820327759
0.085224127,0,0,0,0,0,0.8408399820327759
0.086229596,0,0,0,0,0,0.9937199950218201
0.087226768,0,0,0,0,0,1.070159912109375
0.088224532,0,0,0,0,0,0.7644000053405762
0.08922463,0,0,0,0,0,0.7644000053405762
0.090224803,0,0,0,0,0,1.070159912109375
0.091225586,0,0,0,0,0,1.1466000080108643
0.092224517,0,0,0,0,0,1.1466000080108643
0.093224337,0,0,0,0,0,0.9172800183296204
0.094224621,0,0,0,0,0,1.070159912109375
0.095225571,0,0,0,0,0,0.7644000053405762
0.096224632,0,0,0,0,0,0.9172800183296204
0.09722473,0,0,0,0,0,0.7644000053405762
0.09822455,0,0,0,0,0,1.070159912109375
0.099225092,0,0,0,0,0,0.5350799560546875
0.100223987,0,0,0,0,0,0.8408399820327759
0.101224177,0,0,0,0,0,1.1466000080108643
0.102238257,0,0,0,0,0,0.7644000053405762
0.103229207,0,0,0,0,0,0.9937199950218201
0.10422499,0,0,0,0,0,0.6879600286483765
0.106340481,0,0,0,0,0,0.9172800183296204
0.106715902,0,0,0,0,0,1.070159912109375
0.107268598,0,0,0,0,0,0.7644000053405762
0.108276956,0,0,0,0,0,0.9937199950218201
0.109232776,0,0,0,0,0,1.1466000080108643
0.11022656,0,0,0,0,0,0.9172800183296204
0.111232306,0,0,0,0,0,0.9172800183296204
0.112226385,0,0,0,0,0,0.9937199950218201
0.113226409,0,0,0,0,0,0.9937199950218201
0.114225989,0,0,0,0,0,0.9172800183296204
0.115228309,0,0,0,0,0,1.2994799613952637
0.116226518,0,0,0,0,0,0.6879600286483765
0.117226542,0,0,0,0,0,0.6879600286483765
0.118226566,0,0,0,0,0,0.611519992351532
0.119226609,0,0,0,0,0,0.4586400091648102
0.120226466,0,0,0,0,0,1.070159912109375
0.121226397,0,0,0,0,0,0.6879600286483765
0.122226199,0,0,0,0,0,0.6879600286483765
0.123227519,0,0,0,0,0,1.070159912109375
0.124228784,0,0,0,0,0,0.8408399820327759
0.12522679,0,0,0,0,0,0.7644000053405762
0.126226665,0,0,0,0,0,0.611519992351532
0.12722706,0,0,0,0,0,0.5350799560546875
0.128226713,0,0,0,0,0,0.9937199950218201
0.129245126,0,0,0,0,0,0.9172800183296204
0.130229335,0,0,0,0,0,0.6879600286483765
0.131225285,0,0,0,0,0,0.8408399820327759
0.132223476,0,0,0,0,0,0.6879600286483765
0.133224074,0,0,0,0,0,0.9937199950218201
0.134223765,0,0,0,0,0,1.1466000080108643
0.135227566,0,0,0,0,0,0.5350799560546875
0.13622635,0,0,0,0,0,0.7644000053405762
0.137226522,0,0,0,0,0,0.8408399820327759
0.138226268,0,0,0,0,0,0.7644000053405762
0.139226421,0,0,0,0,0,0.9172800183296204
0.140226316,0,0,0,0,0,0.6879600286483765
0.141226284,0,0,0,0,0,0.9172800183296204
0.142226438,0,0,0,0,0,0.9937199950218201
0.143227517,0,0,0,0,0,0.6879600286483765
0.144226301,0,0,0,0,0,0.7644000053405762
0.145226343,0,0,0,0,0,1.1466000080108643
0.146226311,0,0,0,0,0,0.8408399820327759
0.147254946,0,0,0,0,0,0.9937199950218201
0.148313877,0,0,0,0,0,1.1466000080108643
0.149249327,0,0,0,0,0,0.9172800183296204
0.150228704,0,0,0,0,0,0.9172800183296204
0.151228302,0,0,0,0,0,0.6879600286483765
0.15222627,0,0,0,0,0,0.9937199950218201
0.153226368,0,0,0,0,0,0.6879600286483765
0.154226336,0,0,0,0,0,0.9172800183296204
0.155227712,0,0,0,0,0,0.8408399820327759
0.156226218,0,0,0,0,0,0.9172800183296204
0.157226075,0,0,0,0,0,0.9172800183296204
0.158226414,0,0,0,0,0,1.1466000080108643
0.159227308,0,0,0,0,0,0.9937199950218201
0.160226369,0,0,0,0,0,1.1466000080108643
0.161226726,0,0,0,0,0,0.611519992351532
0.162226176,0,0,0,0,0,1.1466000080108643
0.163227293,0,0,0,0,0,0.9937199950218201
0.16422628,0,0,0,0,0,0.5350799560546875
0.165226656,0,0,0,0,0,1.223039984703064
0.166242328,0,0,0,0,0,1.1466000080108643
0.16722913,0,0,0,0,0,0.6879600286483765
0.168226654,0,0,0,0,0,0.9937199950218201
0.169226492,0,0,0,0,0,0.5350799560546875
0.170226405,0,0,0,0,0,0.7644000053405762
0.171227281,0,0,0,0,0,0.6879600286483765
0.172226157,0,0,0,0,0,0.7644000053405762
0.173226588,0,0,0,0,0,0.9937199950218201
0.174226464,0,0,0,0,0,0.9172800183296204
0.175226803,0,0,0,0,0,0.5350799560546875
0.17622616,0,0,0,0,0,0.8408399820327759
0.17722748,0,0,0,0,0,0.9937199950218201
0.178226689,0,0,0,0,0,0.8408399820327759
0.179226991,0,0,0,0,0,0.7644000053405762
0.180226367,0,0,0,0,0,0.9172800183296204
0.181226206,0,0,0,0,0,0.8408399820327759
0.182226934,0,0,0,0,0,1.1466000080108643
0.183227106,0,0,0,0,0,0.8408399820327759
0.18422613,0,0,0,0,0,0.7644000053405762
0.185226431,0,0,0,0,0,0.9937199950218201
0.186243159,0,0,0,0,0,0.6879600286483765
0.187225516,0,0,0,0,0,0.611519992351532
0.188223744,0,0,0,0,0,1.1466000080108643
0.189223898,0,0,0,0,0,1.070159912109375
0.190223755,0,0,0,0,0,0.8408399820327759
0.191226834,0,0,0,0,0,0.9937199950218201
0.19222621,0,0,0,0,0,0.7644000053405762
0.193225901,0,0,0,0,0,0.5350799560546875
0.194225777,0,0,0,0,0,0.611519992351532
0.195227097,0,0,0,0,0,0.7644000053405762
0.196226158,0,0,0,0,0,0.9937199950218201
0.197227552,0,0,0,0,0,0.6879600286483765
0.198225687,0,0,0,0,0,0.6879600286483765
0.199226767,0,0,0,0,0,1.223039984703064
0.200225309,0,0,0,0,0,0.7644000053405762
0.20123713,0,0,0,0,0,0.8408399820327759
0.202226987,0,0,0,0,0,0.8408399820327759
0.203227641,0,0,0,0,0,0.5350799560546875
0.204225905,0,0,0,0,0,0.8408399820327759
0.205225966,0,0,0,0,0,0.8408399820327759
0.206226009,0,0,0,0,0,0.611519992351532
0.207226829,0,0,0,0,0,0.9172800183296204
0.20822576,0,0,0,0,0,0.7644000053405762
0.209225729,0,0,0,0,0,0.8408399820327759
0.210225845,0,0,0,0,0,0.9172800183296204
0.211225517,0,0,0,0,0,0.6879600286483765
0.212226004,0,0,0,0,0,0.7644000053405762
0.213225936,0,0,0,0,0,1.1466000080108643
0.214225849,0,0,0,0,0,0.9937199950218201
0.215227039,0,0,0,0,0,0.9172800183296204
0.216225748,0,0,0,0,0,0.6879600286483765
0.217225902,0,0,0,0,0,1.223039984703064
0.21822537,0,0,0,0,0,0.8408399820327759
0.219227043,0,0,0,0,0,0.9172800183296204
0.220225974,0,0,0,0,0,0.7644000053405762
0.221225776,0,0,0,0,0,1.070159912109375
0.222225355,0,0,0,0,0,0.9172800183296204
0.223226787,0,0,0,0,0,1.070159912109375
0.224225718,0,0,0,0,0,0.9172800183296204
0.225225909,0,0,0,0,0,0.5350799560546875
0.226226099,0,0,0,0,0,1.1466000080108643
0.227226753,0,0,0,0,0,0.6879600286483765
0.228225795,0,0,0,0,0,0.9172800183296204
0.229225875,0,0,0,0,0,0.8408399820327759
0.23022588,0,0,0,0,0,0.6879600286483765
0.231226738,0,0,0,0,0,0.9172800183296204
0.23222591,0,0,0,0,0,0.9172800183296204
0.233225748,0,0,0,0,0,0.611519992351532
0.234225828,0,0,0,0,0,1.375920057296753
0.235226926,0,0,0,0,0,0.6879600286483765
0.23622582,0,0,0,0,0,0.611519992351532
0.237225696,0,0,0,0,0,0.8408399820327759
0.238225757,0,0,0,0,0,0.7644000053405762
0.239226966,0,0,0,0,0,0.9172800183296204
0.240225342,0,0,0,0,0,0.3822000026702881
0.241225977,0,0,0,0,0,1.1466000080108643
0.24222576,0,0,0,0,0,1.1466000080108643
0.243226581,0,0,0,0,0,0.8408399820327759
0.244225327,0,0,0,0,0,0.6879600286483765
0.245225906,0,0,0,0,0,1.2994799613952637
0.246226097,0,0,0,0,0,0.9172800183296204
0.247227491,0,0,0,0,0,0.7644000053405762
0.248225738,0,0,0,0,0,0.9937199950218201
0.249225817,0,0,0,0,0,0.611519992351532
0.250235545,0,0,0,0,0,1.070159912109375
0.251227254,0,0,0,0,0,0.3822000026702881
0.252226482,0,0,0,0,0,0.7644000053405762
0.253226117,0,0,0,0,0,0.9937199950218201
0.254226122,0,0,0,0,0,0.9172800183296204
0.255227239,0,0,0,0,0,0.8408399820327759
0.256226059,0,0,0,0,0,0.5350799560546875
0.257243231,0,0,0,0,0,1.070159912109375
0.25822744,0,0,0,0,0,0.611519992351532
0.259227205,0,0,0,0,0,0.2293200045824051
0.260226155,0,0,0,0,0,0.0764399990439415
0.261226031,0,0,0,0,0,0.9172800183296204
0.262225814,0,0,0,0,0,-0.9937199950218201
0.263226986,0,0,0,0,0,0.152879998087883
0.264225973,0,0,0,0,0,-0.3822000026702881
0.26522546,0,0,0,0,0,-0.5350799560546875
0.266226262,0,0,0,0,0,0.4586400091648102
0.267226897,0,0,0,0,0,0
0.268225976,0,0,0,0,0,0
0.269226056,0,0,0,0,0,0.305759996175766
0.270226024,0,0,0,0,0,0.8408399820327759
0.271226881,0,0,0,0,0,0.6879600286483765
0.272225961,0,0,0,0,0,1.070159912109375
0.2732263,0,0,0,0,0,1.070159912109375
0.274226083,0,0,0,0,0,0.4586400091648102
0.275226885,0,0,0,0,0,1.2994799613952637
0.276225946,0,0,0,0,0,0.5350799560546875
0.277226044,0,0,0,0,0,0
0.27822616,0,0,0,0,0,0.611519992351532
0.279227036,0,0,0,0,0,0
0.280226245,0,0,0,0,0,0
0.28122588,0,0,0,0,0,0
0.282225941,0,0,0,0,0,-0.3822000026702881
0.283226132,0,0,0,0,0,0
0.284315488,0,0,0,0,0,0.152879998087883
0.285314568,0,0,0,0,0,0.305759996175766
0.286281018,0,0,0,0,0,0.5350799560546875
0.287760517,0,0,0,0,0,0.5350799560546875
0.288240955,0,0,0,0,0,1.070159912109375
0.289240442,0,0,0,0,0,0.5350799560546875
0.290226818,0,0,0,0,0,0.7644000053405762
0.291226768,0,0,0,0,0,0.9172800183296204
0.2922262,0,0,0,0,0,0.152879998087883
0.293226242,0,0,0,0,0,0
0.294226303,0,0,0,0,0,0.2293200045824051
0.295226068,0,0,0,0,0,0
0.29622611,0,0,0,0,0,0.0764399990439415
0.297226079,0,0,0,0,0,0.3822000026702881
0.298226177,0,0,0,0,0,0.5350799560546875
0.299226016,0,0,0,0,0,0.9172800183296204
0.300225577,0,0,0,0,0,0.611519992351532
0.301225915,0,0,0,0,0,0.0764399990439415
0.302225902,0,0,0,0,0,0
0.303225426,0,0,0,0,0,-0.2293200045824051
0.304225802,0,0,0,0,0,-0.4586400091648102
0.305225919,0,0,0,0,0,0.2293200045824051
0.306226017,0,0,0,0,0,0.305759996175766
0.307226189,0,0,0,0,0,0.5350799560546875
0.308226046,0,0,0,0,0,0.9172800183296204
0.309225792,0,0,0,0,0,0.2293200045824051
0.31022602,0,0,0,0,0,0
0.311228025,0,0,0,0,0,-0.611519992351532
0.312866041,0,0,0,0,0,-0.4586400091648102
0.31323261,0,0,0,0,0,-0.152879998087883
0.314228282,0,0,0,0,0,0.0764399990439415
0.315228547,0,0,0,0,0,0.7644000053405762
0.316226219,0,0,0,0,0,1.2994799613952637
0.317226669,0,0,0,0,0,1.223039984703064
0.318227656,0,0,0,0,0,1.070159912109375
0.319227143,0,0,0,0,0,0.5350799560546875
0.320226611,0,0,0,0,0,0.7644000053405762
0.321243376,0,0,0,0,0,0.2293200045824051
0.322227845,0,0,0,0,0,0.305759996175766
0.323226257,0,0,0,0,0,0.7644000053405762
0.324226337,0,0,0,0,0,0.152879998087883
0.325229879,0,0,0,0,0,-0.2293200045824051
0.326225996,0,0,0,0,0,0.305759996175766
0.327227168,0,0,0,0,0,-0.152879998087883
0.328226451,0,0,0,0,0,-0.152879998087883
0.329226198,0,0,0,0,0,0.305759996175766
0.330225888,0,0,0,0,0,-0.2293200045824051
0.331225116,0,0,0,0,0,-0.305759996175766
0.332223825,0,0,0,0,0,0
0.333223738,0,0,0,0,0,0
0.334223632,0,0,0,0,0,0
0.335227952,0,0,0,0,0,0.4586400091648102
0.33622668,0,0,0,0,0,0.4586400091648102
0.337226482,0,0,0,0,0,0.611519992351532
0.338226654,0,0,0,0,0,0.9937199950218201
0.339226382,0,0,0,0,0,1.375920057296753
0.34022635,0,0,0,0,0,0.9937199950218201
0.341226244,0,0,0,0,0,1.758120059967041
0.342226287,0,0,0,0,0,0.5350799560546875
0.343226644,0,0,0,0,0,0.5350799560546875
0.344223909,0,0,0,0,0,0.305759996175766
0.345223322,0,0,0,0,0,0.0764399990439415
0.346223587,0,0,0,0,0,0.0764399990439415
0.347229203,0,0,0,0,0,0
0.348225949,0,0,0,0,0,0.6879600286483765
0.349226325,0,0,0,0,0,-0.152879998087883
0.350226571,0,0,0,0,0,-0.5350799560546875
0.351227206,0,0,0,0,0,0
0.352225897,0,0,0,0,0,-0.611519992351532
0.353227439,0,0,0,0,0,0.2293200045824051
0.354226945,0,0,0,0,0,-0.611519992351532
0.355226413,0,0,0,0,0,0.7644000053405762
0.356226234,0,0,0,0,0,1.375920057296753
0.357226258,0,0,0,0,0,1.223039984703064
0.358226615,0,0,0,0,0,2.06387996673584
0.359227417,0,0,0,0,0,1.6816799640655518
0.360226367,0,0,0,0,0,0.8408399820327759
0.361227076,0,0,0,0,0,0.611519992351532
0.362226118,0,0,0,0,0,0.2293200045824051
0.36322729,0,0,0,0,0,0.5350799560546875
0.364226573,0,0,0,0,0,0.4586400091648102
0.36522619,0,0,0,0,0,0.2293200045824051
0.366226436,0,0,0,0,0,-0.2293200045824051
0.367227368,0,0,0,0,0,-0.3822000026702881
0.368226262,0,0,0,0,0,-0.4586400091648102
0.36922623,0,0,0,0,0,-1.070159912109375
0.370226162,0,0,0,0,0,0
0.371227297,0,0,0,0,0,-0.152879998087883
0.372226358,0,0,0,0,0,0.152879998087883
0.373225993,0,0,0,0,0,1.452359914779663
0.374226258,0,0,0,0,0,1.605239987373352
0.375227207,0,0,0,0,0,1.1466000080108643
0.376226269,0,0,0,0,0,0.152879998087883
0.377226126,0,0,0,0,0,0.4586400091648102
0.378226316,0,0,0,0,0,0.2293200045824051
0.379227044,0,0,0,0,0,-0.152879998087883
0.380226364,0,0,0,0,0,0.6879600286483765
0.381226148,0,0,0,0,0,0.152879998087883
0.382248616,0,0,0,0,0,0.152879998087883
0.383228918,0,0,0,0,0,0.7644000053405762
0.38422646,0,0,0,0,0,0.305759996175766
0.385226466,0,0,0,0,0,-0.152879998087883
0.386246101,0,0,0,0,0,1.223039984703064
0.38722618,0,0,0,0,0,0.9172800183296204
0.388224223,0,0,0,0,0,-0.5350799560546875
0.389224025,0,0,0,0,0,0.6879600286483765
0.39022366,0,0,0,0,0,0.305759996175766
0.391227091,0,0,0,0,0,-0.9937199950218201
0.392226448,0,0,0,0,0,0.3822000026702881
0.393226398,0,0,0,0,0,0.305759996175766
0.394225663,0,0,0,0,0,-0.9172800183296204
0.395226279,0,0,0,0,0,1.223039984703064
0.39622634,0,0,0,0,0,1.223039984703064
0.397232327,0,0,0,0,0,0.3822000026702881
0.398286591,0,0,0,0,0,2.5989599227905273
0.399266634,0,0,0,0,0,0.611519992351532
0.400229196,0,0,0,0,0,-0.3822000026702881
0.401228534,0,0,0,0,0,1.1466000080108643
0.40222654,0,0,0,0,0,-0.4586400091648102
0.403229804,0,0,0,0,0,-0.611519992351532
0.404226532,0,0,0,0,0,1.223039984703064
0.405226297,0,0,0,0,0,-0.152879998087883
0.406226321,0,0,0,0,0,0.7644000053405762
0.407227234,0,0,0,0,0,1.223039984703064
0.408226498,0,0,0,0,0,0.4586400091648102
0.409226467,0,0,0,0,0,0.9172800183296204
0.410253639,0,0,0,0,0,-0.9937199950218201
0.411247515,0,0,0,0,0,-0.5350799560546875
0.412226465,0,0,0,0,0,-1.070159912109375
0.413226507,0,0,0,0,0,-0.4586400091648102
0.414226161,0,0,0,0,0,0.4586400091648102
0.415228537,0,0,0,0,0,-0.9937199950218201
0.416225616,0,0,0,0,0,2.2167599201202393
0.417226473,0,0,0,0,0,1.375920057296753
0.418226423,0,0,0,0,0,0.7644000053405762
0.419227281,0,0,0,0,0,3.8219997882843018
0.420226175,0,0,0,0,0,0
0.421226477,0,0,0,0,0,1.6816799640655518
0.422226445,0,0,0,0,0,-0.611519992351532
0.423227173,0,0,0,0,0,-1.070159912109375
0.424226586,0,0,0,0,0,1.2994799613952637
0.425226295,0,0,0,0,0,-0.4586400091648102
0.426226485,0,0,0,0,0,2.2167599201202393
0.427227602,0,0,0,0,0,1.5288000106811523
0.428226348,0,0,0,0,0,2.446079969406128
0.429226465,0,0,0,0,0,2.6754000186920166
0.430226266,0,0,0,0,0,0.2293200045824051
0.431227253,0,0,0,0,0,1.758120059967041
0.432226277,0,0,0,0,0,-0.9172800183296204
0.433226412,0,0,0,0,0,0.2293200045824051
0.434225862,0,0,0,0,0,0
0.435227553,0,0,0,0,0,0.3822000026702881
0.436226133,0,0,0,0,0,1.605239987373352
0.437226157,0,0,0,0,0,0.6879600286483765
0.438225884,0,0,0,0,0,2.5989599227905273
0.439227538,0,0,0,0,0,0.9937199950218201
0.440226321,0,0,0,0,0,0.4586400091648102
0.441226382,0,0,0,0,0,0.611519992351532
0.44222635,0,0,0,0,0,-0.6879600286483765
0.443226245,0,0,0,0,0,0.8408399820327759
0.444226232,0,0,0,0,0,-0.305759996175766
0.445226237,0,0,0,0,0,1.223039984703064
0.446226317,0,0,0,0,0,1.452359914779663
0.447227489,0,0,0,0,0,1.758120059967041
0.448226253,0,0,0,0,0,2.3696401119232178
0.449226222,0,0,0,0,0,0.4586400091648102
0.450226357,0,0,0,0,0,1.223039984703064
0.451227251,0,0,0,0,0,0
0.452226331,0,0,0,0,0,-0.3822000026702881
0.453226318,0,0,0,0,0,0.611519992351532
0.454226342,0,0,0,0,0,-0.3822000026702881
0.455227347,0,0,0,0,0,1.8345600366592407
0.456225945,0,0,0,0,0,0.4586400091648102
0.457226321,0,0,0,0,0,2.9811599254608154
0.458226234,0,0,0,0,0,1.5288000106811523
0.459226591,0,0,0,0,0,0.152879998087883
0.460226078,0,0,0,0,0,1.5288000106811523
0.461226602,0,0,0,0,0,-0.8408399820327759
0.462226496,0,0,0,0,0,0.8408399820327759
0.463226465,0,0,0,0,0,0.0764399990439415
0.464226248,0,0,0,0,0,0.7644000053405762
0.46522642,0,0,0,0,0,2.2932000160217285
0.466241962,0,0,0,0,0,1.452359914779663
0.467229209,0,0,0,0,0,3.134040117263794
0.468226659,0,0,0,0,0,0
0.469226442,0,0,0,0,0,0.6879600286483765
0.470226447,0,0,0,0,0,-0.152879998087883
0.471227268,0,0,0,0,0,-0.9172800183296204
0.472226403,0,0,0,0,0,0.305759996175766
0.473226482,0,0,0,0,0,0
0.474236525,0,0,0,0,0,1.2994799613952637
0.475227938,0,0,0,0,0,0.9172800183296204
0.476226313,0,0,0,0,0,1.9874399900436401
0.477226245,0,0,0,0,0,2.446079969406128
0.47822625,0,0,0,0,0,0
0.479227348,0,0,0,0,0,1.070159912109375
0.480226409,0,0,0,0,0,-0.7644000053405762
0.481225804,0,0,0,0,0,0.9172800183296204
0.482226476,0,0,0,0,0,0.611519992351532
0.483227148,0,0,0,0,0,0.8408399820327759
0.484226024,0,0,0,0,0,2.9811599254608154
0.485226085,0,0,0,0,0,1.452359914779663
0.486226257,0,0,0,0,0,2.6754000186920166
0.487227336,0,0,0,0,0,1.223039984703064
0.488226101,0,0,0,0,0,0
0.489226421,0,0,0,0,0,0
0.490226186,0,0,0,0,0,-0.9172800183296204
0.491227229,0,0,0,0,0,1.452359914779663
0.492226327,0,0,0,0,0,0.3822000026702881
0.493226184,0,0,0,0,0,2.2932000160217285
0.494226226,0,0,0,0,0,2.06387996673584
0.495227158,0,0,0,0,0,1.452359914779663
0.496226274,0,0,0,0,0,2.2932000160217285
0.497226483,0,0,0,0,0,-0.4586400091648102
0.498226285,0,0,0,0,0,0.3822000026702881
0.49922705,0,0,0,0,0,-0.9172800183296204
0.500226074,0,0,0,0,0,0.611519992351532
0.501226153,0,0,0,0,0,0.6879600286483765
0.50222577,0,0,0,0,0,0.4586400091648102
0.503225627,0,0,0,0,0,2.9811599254608154
0.504223762,0,0,0,0,0,1.223039984703064
0.505223749,0,0,0,0,0,2.3696401119232178
0.506223829,0,0,0,0,0,1.6816799640655518
0.507227871,0,0,0,0,0,-0.611519992351532
0.50822621,0,0,0,0,0,0.5350799560546875
0.509225901,0,0,0,0,0,-0.9937199950218201
0.510225777,0,0,0,0,0,0.305759996175766
0.511227134,0,0,0,0,0,0.8408399820327759
0.512225862,0,0,0,0,0,1.6816799640655518
0.513255459,0,0,0,0,0,2.3696401119232178
0.514227502,0,0,0,0,0,1.8345600366592407
0.515226841,0,0,0,0,0,2.6754000186920166
0.516225865,0,0,0,0,0,0.152879998087883
0.517225907,0,0,0,0,0,0.2293200045824051
0.518225968,0,0,0,0,0,-0.4586400091648102
0.519226955,0,0,0,0,0,-0.8408399820327759
0.520225905,0,0,0,0,0,0.8408399820327759
0.521225855,0,0,0,0,0,0
0.522225675,0,0,0,0,0,2.446079969406128
0.52322657,0,0,0,0,0,1.223039984703064
0.524225445,0,0,0,0,0,2.2932000160217285
0.525228303,0,0,0,0,0,2.2932000160217285
0.526225864,0,0,0,0,0,-0.611519992351532
0.527226647,0,0,0,0,0,0.4586400091648102
0.528226634,0,0,0,0,0,-1.605239987373352
0.52922625,0,0,0,0,0,0.2293200045824051
0.53022596,0,0,0,0,0,0.6879600286483765
0.531227002,0,0,0,0,0,0.9172800183296204
0.532223971,0,0,0,0,0,2.9811599254608154
0.533223791,0,0,0,0,0,1.8345600366592407
0.534223685,0,0,0,0,0,2.828279972076416
0.535227672,0,0,0,0,0,0.611519992351532
0.53622614,0,0,0,0,0,0.0764399990439415
0.537226016,0,0,0,0,0,-0.5350799560546875
0.538226225,0,0,0,0,0,-0.9937199950218201
0.539225694,0,0,0,0,0,1.223039984703064
0.54022607,0,0,0,0,0,0.4586400091648102
0.54122602,0,0,0,0,0,2.14031982421875
0.542225395,0,0,0,0,0,2.828279972076416
0.543227308,0,0,0,0,0,1.6816799640655518
0.544226054,0,0,0,0,0,2.828279972076416
0.545225856,0,0,0,0,0,-9.784319877624512
0.546225491,0,0,0,0,0,0
0.54722696,0,0,0,0,0,-1.223039984703064
0.548226021,0,0,0,0,0,0.2293200045824051
0.549225915,0,0,0,0,0,0.3822000026702881
0.550225902,0,0,0,0,0,0.3822000026702881
0.551226889,0,0,0,0,0,2.446079969406128
0.552225894,0,0,0,0,0,1.223039984703064
0.553225918,0,0,0,0,0,2.06387996673584
0.554225998,0,0,0,0,0,2.06387996673584
0.5552268,0,0,0,0,0,0
0.556225935,0,0,0,0,0,0.305759996175766
0.55722594,0,0,0,0,0,-0.5350799560546875
0.558226057,0,0,0,0,0,0.7644000053405762
0.559226895,0,0,0,0,0,-0.152879998087883
0.560225956,0,0,0,0,0,2.14031982421875
0.561225814,0,0,0,0,0,2.522519826889038
0.562225764,0,0,0,0,0,1.8345600366592407
0.563226954,0,0,0,0,0,3.0576000213623047
0.564225441,0,0,0,0,0,0.611519992351532
0.565225836,0,0,0,0,0,0
0.566225897,0,0,0,0,0,-0.3822000026702881
0.567226309,0,0,0,0,0,-0.9937199950218201
0.568226037,0,0,0,0,0,0.4586400091648102
0.569225765,0,0,0,0,0,0
0.570226085,0,0,0,0,0,2.446079969406128
0.571226757,0,0,0,0,0,1.452359914779663
0.572226096,0,0,0,0,0,2.14031982421875
0.573225805,0,0,0,0,0,2.2932000160217285
0.574226033,0,0,0,0,0,-0.152879998087883
0.575226909,0,0,0,0,0,0.8408399820327759
0.57622597,0,0,0,0,0,-0.611519992351532
0.577235438,0,0,0,0,0,-0.2293200045824051
0.578226092,0,0,0,0,0,0.305759996175766
0.57922693,0,0,0,0,0,0.6879600286483765
0.58022601,0,0,0,0,0,2.446079969406128
0.581225978,0,0,0,0,0,1.6816799640655518
0.582225854,0,0,0,0,0,3.516240119934082
0.583227008,0,0,0,0,0,1.070159912109375
0.584225661,0,0,0,0,0,0.0764399990439415
0.585225259,0,0,0,0,0,-0.152879998087883
0.586226154,0,0,0,0,0,-1.375920057296753
0.587227029,0,0,0,0,0,0.5350799560546875
0.588225979,0,0,0,0,0,-0.9937199950218201
0.58922567,0,0,0,0,0,1.223039984703064
0.590225879,0,0,0,0,0,2.06387996673584
0.591226792,0,0,0,0,0,2.14031982421875
0.59222602,0,0,0,0,0,2.9811599254608154
0.593225914,0,0,0,0,0,0.3822000026702881
0.594225808,0,0,0,0,0,0.9172800183296204
0.595226314,0,0,0,0,0,0
0.596292744,0,0,0,0,0,0.2293200045824051
0.597226862,0,0,0,0,0,0.611519992351532
0.598223886,0,0,0,0,0,0.2293200045824051
0.599224113,0,0,0,0,0,2.2932000160217285
0.600223526,0,0,0,0,0,1.2994799613952637
0.601223698,0,0,0,0,0,2.522519826889038
0.602223408,0,0,0,0,0,1.605239987373352
0.60322432,0,0,0,0,0,0.5350799560546875
0.604223789,0,0,0,0,0,0.305759996175766
0.605232646,0,0,0,0,0,-1.070159912109375
0.606224966,0,0,0,0,0,0.305759996175766
0.607224416,0,0,0,0,0,-0.9937199950218201
0.608224107,0,0,0,0,0,0.305759996175766
0.609223779,0,0,0,0,0,1.9109998941421509
0.610223285,0,0,0,0,0,0.6879600286483765
0.611226771,0,0,0,0,0,3.3633599281311035
0.61222674,0,0,0,0,0,1.8345600366592407
0.613226375,0,0,0,0,0,0.8408399820327759
0.61423064,0,0,0,0,0,0
0.615231775,0,0,0,0,0,-0.4586400091648102
0.616226188,0,0,0,0,0,0
0.617226193,0,0,0,0,0,-0.4586400091648102
0.618226402,0,0,0,0,0,1.758120059967041
0.619226185,0,0,0,0,0,0.7644000053405762
0.62022382,0,0,0,0,0,2.2932000160217285
0.621223678,0,0,0,0,0,3.0576000213623047
0.622223702,0,0,0,0,0,0.5350799560546875
0.623227096,0,0,0,0,0,1.375920057296753
0.62422612,0,0,0,0,0,0.2293200045824051
0.625225885,0,0,0,0,0,0.5350799560546875
0.626225835,0,0,0,0,0,-0.3822000026702881
0.62722684,0,0,0,0,0,0.305759996175766
0.628225975,0,0,0,0,0,1.8345600366592407
0.629225832,0,0,0,0,0,0.6879600286483765
0.630225875,0,0,0,0,0,2.522519826889038
0.631226917,0,0,0,0,0,1.5288000106811523
0.632225534,0,0,0,0,0,0.5350799560546875
0.633226039,0,0,0,0,0,0.5350799560546875
0.634225952,0,0,0,0,0,-0.7644000053405762
0.635226828,0,0,0,0,0,0.611519992351532
0.636225926,0,0,0,0,0,-0.152879998087883
0.637225895,0,0,0,0,0,1.605239987373352
0.638225752,0,0,0,0,0,1.375920057296753
0.639226943,0,0,0,0,0,1.9874399900436401
0.640225874,0,0,0,0,0,3.0576000213623047
0.641226065,0,0,0,0,0,0.7644000053405762
0.642225829,0,0,0,0,0,1.452359914779663
0.643226853,0,0,0,0,0,0
0.644225951,0,0,0,0,0,-0.152879998087883
0.645225846,0,0,0,0,0,0.152879998087883
0.646225795,0,0,0,0,0,-0.8408399820327759
0.647226856,0,0,0,0,0,2.06387996673584
0.648255991,0,0,0,0,0,0.152879998087883
0.649266978,0,0,0,0,0,2.904719829559326
0.650227817,0,0,0,0,0,2.14031982421875
0.65123173,0,0,0,0,0,0
0.652226106,0,0,0,0,0,1.2994799613952637
0.653226148,0,0,0,0,0,-0.611519992351532
0.654225524,0,0,0,0,0,0.305759996175766
0.6552269,0,0,0,0,0,-0.152879998087883
0.656225887,0,0,0,0,0,0.8408399820327759
0.65722593,0,0,0,0,0,1.9874399900436401
0.658225842,0,0,0,0,0,0.8408399820327759
0.659226977,0,0,0,0,0,2.904719829559326
0.660225927,0,0,0,0,0,0.9172800183296204
0.661225914,0,0,0,0,0,1.375920057296753
0.662226105,0,0,0,0,0,0.611519992351532
0.663226925,0,0,0,0,0,-0.4586400091648102
0.664225949,0,0,0,0,0,0.5350799560546875
0.665225732,0,0,0,0,0,-0.4586400091648102
0.666225942,0,0,0,0,0,1.8345600366592407
0.667226873,0,0,0,0,0,0.3822000026702881
0.668227008,0,0,0,0,0,1.223039984703064
0.669225717,0,0,0,0,0,2.6754000186920166
0.670225908,0,0,0,0,0,0.2293200045824051
0.671227172,0,0,0,0,0,1.070159912109375
0.672225493,0,0,0,0,0,-0.6879600286483765
0.673225813,0,0,0,0,0,0.611519992351532
0.674225837,0,0,0,0,0,0.2293200045824051
0.675226528,0,0,0,0,0,0.3822000026702881
0.676226181,0,0,0,0,0,1.2994799613952637
0.677225798,0,0,0,0,0,0.8408399820327759
0.678225951,0,0,0,0,0,2.828279972076416
0.679227068,0,0,0,0,0,1.223039984703064
0.680226092,0,0,0,0,0,0.4586400091648102
0.681225912,0,0,0,0,0,1.223039984703064
0.682226103,0,0,0,0,0,-0.2293200045824051
0.683227238,0,0,0,0,0,0.8408399820327759
0.684225947,0,0,0,0,0,0
0.685225915,0,0,0,0,0,1.758120059967041
0.686243606,0,0,0,0,0,0.7644000053405762
0.687228574,0,0,0,0,0,1.223039984703064
0.68822621,0,0,0,0,0,3.2869198322296143
0.689225993,0,0,0,0,0,0.2293200045824051
0.690225961,0,0,0,0,0,1.452359914779663
0.691226893,0,0,0,0,0,0.2293200045824051
0.692225842,0,0,0,0,0,-0.305759996175766
0.693225292,0,0,0,0,0,0
0.694225724,0,0,0,0,0,0
0.69522697,0,0,0,0,0,1.5288000106811523
0.696225624,0,0,0,0,0,0
0.697225555,0,0,0,0,0,1.9109998941421509
0.698225838,0,0,0,0,0,1.452359914779663
0.699226307,0,0,0,0,0,-0.2293200045824051
0.700226979,0,0,0,0,0,1.2994799613952637
0.701226058,0,0,0,0,0,0
0.702225971,0,0,0,0,0,0.9937199950218201
0.703226662,0,0,0,0,0,0.2293200045824051
0.704226223,0,0,0,0,0,1.605239987373352
0.705226839,0,0,0,0,0,1.2994799613952637
0.706226382,0,0,0,0,0,1.452359914779663
0.70722685,0,0,0,0,0,3.6691200733184814
0.708225707,0,0,0,0,0,0.305759996175766
0.709225861,0,0,0,0,0,1.1466000080108643
0.710225811,0,0,0,0,0,0.611519992351532
0.711226909,0,0,0,0,0,-0.305759996175766
0.712225896,0,0,0,0,0,0.7644000053405762
0.713225901,0,0,0,0,0,0.152879998087883
0.714225888,0,0,0,0,0,1.9109998941421509
0.715226931,0,0,0,0,0,1.1466000080108643
0.716225751,0,0,0,0,0,1.9874399900436401
0.717225664,0,0,0,0,0,1.375920057296753
0.718225799,0,0,0,0,0,-0.7644000053405762
0.719226619,0,0,0,0,0,0.611519992351532
0.720226106,0,0,0,0,0,-0.9172800183296204
0.721226038,0,0,0,0,0,0.305759996175766
0.722225728,0,0,0,0,0,0.5350799560546875
0.723227234,0,0,0,0,0,1.2994799613952637
0.724225832,0,0,0,0,0,2.446079969406128
0.72522617,0,0,0,0,0,1.223039984703064
0.726228565,0,0,0,0,0,2.9811599254608154
0.727226792,0,0,0,0,0,0.0764399990439415
0.72822665,0,0,0,0,0,0.7644000053405762
0.729234655,0,0,0,0,0,0.0764399990439415
0.730227772,0,0,0,0,0,-0.611519992351532
0.731224722,0,0,0,0,0,1.223039984703064
0.732223746,0,0,0,0,0,0.305759996175766
0.73322364,0,0,0,0,0,1.8345600366592407
0.734223794,0,0,0,0,0,1.758120059967041
0.735227151,0,0,0,0,0,1.452359914779663
0.736226267,0,0,0,0,0,2.446079969406128
0.737226125,0,0,0,0,0,-0.611519992351532
0.738225741,0,0,0,0,0,0.2293200045824051
0.739225821,0,0,0,0,0,-0.6879600286483765
0.740225604,0,0,0,0,0,-0.3822000026702881
0.741226035,0,0,0,0,0,0.152879998087883
0.74222593,0,0,0,0,0,0.611519992351532
0.74322688,0,0,0,0,0,2.446079969406128
0.744225922,0,0,0,0,0,1.2994799613952637
0.745225798,0,0,0,0,0,2.751840114593506
0.746225952,0,0,0,0,0,1.605239987373352
0.747244309,0,0,0,0,0,-0.3822000026702881
0.748226796,0,0,0,0,0,1.5288000106811523
0.749225875,0,0,0,0,0,-0.4586400091648102
0.75022601,0,0,0,0,0,1.2994799613952637
0.75122696,0,0,0,0,0,0.3822000026702881
0.752226947,0,0,0,0,0,1.6816799640655518
0.753225971,0,0,0,0,0,1.9109998941421509
0.754226014,0,0,0,0,0,1.070159912109375
0.755226852,0,0,0,0,0,2.751840114593506
0.756226136,0,0,0,0,0,0.0764399990439415
0.757225993,0,0,0,0,0,0.305759996175766
0.758225517,0,0,0,0,0,0.2293200045824051
0.759227041,0,0,0,0,0,-0.7644000053405762
0.76022588,0,0,0,0,0,1.375920057296753
0.76122583,0,0,0,0,0,0.2293200045824051
0.762226465,0,0,0,0,0,1.605239987373352
0.763227081,0,0,0,0,0,0.8408399820327759
0.764226161,0,0,0,0,0,2.3696401119232178
0.765226092,0,0,0,0,0,1.8345600366592407
0.766240412,0,0,0,0,0,-1.070159912109375
0.767229196,0,0,0,0,0,0.9172800183296204
0.768226423,0,0,0,0,0,-1.223039984703064
0.769226058,0,0,0,0,0,0
0.77022599,0,0,0,0,0,0.3822000026702881
0.77122681,0,0,0,0,0,0.3822000026702881
0.772226019,0,0,0,0,0,2.2932000160217285
0.773225895,0,0,0,0,0,1.2994799613952637
0.77422603,0,0,0,0,0,3.4398000240325928
0.775226906,0,0,0,0,0,1.070159912109375
0.776225911,0,0,0,0,0,0.3822000026702881
0.777225861,0,0,0,0,0,0
0.778225811,0,0,0,0,0,-0.7644000053405762
0.779226594,0,0,0,0,0,0.7644000053405762
0.780232915,0,0,0,0,0,0
0.781234642,0,0,0,0,0,1.605239987373352
0.782227259,0,0,0,0,0,2.522519826889038
0.783227338,0,0,0,0,0,2.446079969406128
0.784226103,0,0,0,0,0,2.2167599201202393
0.785226109,0,0,0,0,0,-0.5350799560546875
0.786226077,0,0,0,0,0,0.6879600286483765
0.787227082,0,0,0,0,0,-1.375920057296753
0.788226125,0,0,0,0,0,-0.611519992351532
0.789226056,0,0,0,0,0,0.3822000026702881
0.790225969,0,0,0,0,0,0.152879998087883
0.791227049,0,0,0,0,0,2.3696401119232178
0.79222611,0,0,0,0,0,2.06387996673584
0.793238319,0,0,0,0,0,3.134040117263794
0.79422625,0,0,0,0,0,2.828279972076416
0.795226811,0,0,0,0,0,0.3822000026702881
0.796226168,0,0,0,0,0,0
0.797226322,0,0,0,0,0,-1.452359914779663
0.798225716,0,0,0,0,0,0.305759996175766
0.799227055,0,0,0,0,0,0
0.800226042,0,0,0,0,0,1.5288000106811523
0.801225585,0,0,0,0,0,2.2932000160217285
0.802225997,0,0,0,0,0,2.06387996673584
0.803226873,0,0,0,0,0,2.9811599254608154
0.804225786,0,0,0,0,0,0.6879600286483765
0.805225643,0,0,0,0,0,0.152879998087883
0.806225871,0,0,0,0,0,-1.070159912109375
0.807226988,0,0,0,0,0,-0.9172800183296204
0.808225882,0,0,0,0,0,0.8408399820327759
0.809226165,0,0,0,0,0,0
0.810226078,0,0,0,0,0,2.2167599201202393
0.811226547,0,0,0,0,0,2.06387996673584
0.812225385,0,0,0,0,0,2.3696401119232178
0.813225372,0,0,0,0,0,2.522519826889038
0.814253155,0,0,0,0,0,-0.152879998087883
0.815364141,0,0,0,0,0,0.8408399820327759
0.816227852,0,0,0,0,0,-1.1466000080108643
0.817226653,0,0,0,0,0,0.4586400091648102
0.818226585,0,0,0,0,0,0
0.819227701,0,0,0,0,0,0.9172800183296204
0.820226392,0,0,0,0,0,1.758120059967041
0.821226508,0,0,0,0,0,1.452359914779663
0.822226532,0,0,0,0,0,2.6754000186920166
0.823226945,0,0,0,0,0,0.7644000053405762
0.824226247,0,0,0,0,0,0.2293200045824051
0.825226364,0,0,0,0,0,0.305759996175766
0.826225851,0,0,0,0,0,-0.9937199950218201
0.827226986,0,0,0,0,0,1.1466000080108643
0.828226454,0,0,0,0,0,-0.3822000026702881
0.829226367,0,0,0,0,0,1.9874399900436401
0.830226206,0,0,0,0,0,1.223039984703064
0.831227174,0,0,0,0,0,1.8345600366592407
0.832226328,0,0,0,0,0,3.134040117263794
0.833226352,0,0,0,0,0,0.305759996175766
0.834226283,0,0,0,0,0,1.375920057296753
0.835227214,0,0,0,0,0,0.0764399990439415
0.836226424,0,0,0,0,0,-0.305759996175766
0.837226392,0,0,0,0,0,0.611519992351532
0.838226305,0,0,0,0,0,-0.9172800183296204
0.839227421,0,0,0,0,0,1.758120059967041
0.840226316,0,0,0,0,0,1.223039984703064
0.841226451,0,0,0,0,0,2.904719829559326
0.84222653,0,0,0,0,0,1.8345600366592407
0.843227314,0,0,0,0,0,0.5350799560546875
0.844226412,0,0,0,0,0,1.452359914779663
0.845226454,0,0,0,0,0,-1.223039984703064
0.846226145,0,0,0,0,0,0.305759996175766
0.847227372,0,0,0,0,0,-0.611519992351532
0.848225915,0,0,0,0,0,0.152879998087883
0.849226291,0,0,0,0,0,1.9109998941421509
0.850226537,0,0,0,0,0,1.223039984703064
0.851227431,0,0,0,0,0,3.3633599281311035
0.852226381,0,0,0,0,0,1.223039984703064
0.853226294,0,0,0,0,0,2.06387996673584
0.854226281,0,0,0,0,0,0.7644000053405762
0.855226471,0,0,0,0,0,-0.6879600286483765
0.856226458,0,0,0,0,0,0.4586400091648102
0.857234649,0,0,0,0,0,-0.152879998087883
0.858226692,0,0,0,0,0,2.14031982421875
0.859227549,0,0,0,0,0,2.2932000160217285
0.860226425,0,0,0,0,0,3.210479974746704
0.861226338,0,0,0,0,0,4.12775993347168
0.862226361,0,0,0,0,0,1.9874399900436401
0.863227293,0,0,0,0,0,2.446079969406128
0.864226335,0,0,0,0,0,0
0.865226433,0,0,0,0,0,0
0.866226087,0,0,0,0,0,1.070159912109375
0.867226148,0,0,0,0,0,0
0.868223876,0,0,0,0,0,1.9109998941421509
0.86922314,0,0,0,0,0,1.605239987373352
0.870223257,0,0,0,0,0,1.6816799640655518
0.871227614,0,0,0,0,0,2.904719829559326
0.87222612,0,0,0,0,0,0.2293200045824051
0.87322581,0,0,0,0,0,0.9937199950218201
0.874226205,0,0,0,0,0,0.611519992351532
0.875227062,0,0,0,0,0,0
0.876225919,0,0,0,0,0,2.2167599201202393
0.877225906,0,0,0,0,0,0.8408399820327759
0.878225838,0,0,0,0,0,1.1466000080108643
0.879227084,0,0,0,0,0,2.522519826889038
0.880226015,0,0,0,0,0,1.5288000106811523
0.881226132,0,0,0,0,0,2.2932000160217285
0.882225878,0,0,0,0,0,2.14031982421875
0.883226883,0,0,0,0,0,1.2994799613952637
0.884226055,0,0,0,0,0,1.375920057296753
0.885226042,0,0,0,0,0,0.9937199950218201
0.886225937,0,0,0,0,0,0.3822000026702881
0.887226831,0,0,0,0,0,0.4586400091648102
0.888225874,0,0,0,0,0,1.223039984703064
0.889225898,0,0,0,0,0,0.4586400091648102
0.890225736,0,0,0,0,0,0.8408399820327759
0.891226482,0,0,0,0,0,1.8345600366592407
0.892226118,0,0,0,0,0,2.2932000160217285
0.893225882,0,0,0,0,0,1.375920057296753
0.894225962,0,0,0,0,0,2.14031982421875
0.895226819,0,0,0,0,0,1.9874399900436401
0.896226028,0,0,0,0,0,1.223039984703064
0.897225867,0,0,0,0,0,2.3696401119232178
0.898225928,0,0,0,0,0,1.1466000080108643
0.899259229,0,0,0,0,0,1.223039984703064
0.900267809,0,0,0,0,0,2.3696401119232178
0.901229093,0,0,0,0,0,0.9172800183296204
0.902227302,0,0,0,0,0,0.5350799560546875
0.903230826,0,0,0,0,0,1.8345600366592407
0.904226016,0,0,0,0,0,0.611519992351532
0.905227059,0,0,0,0,0,0.611519992351532
0.906226249,0,0,0,0,0,1.9109998941421509
0.907227384,0,0,0,0,0,1.605239987373352
0.908226038,0,0,0,0,0,1.1466000080108643
0.909225692,0,0,0,0,0,1.758120059967041
0.91022603,0,0,0,0,0,1.2994799613952637
0.911227314,0,0,0,0,0,1.452359914779663
0.912226041,0,0,0,0,0,1.5288000106811523
0.913225917,0,0,0,0,0,1.9109998941421509
0.914225997,0,0,0,0,0,1.8345600366592407
0.915227521,0,0,0,0,0,1.452359914779663
0.916225971,0,0,0,0,0,1.2994799613952637
0.917226106,0,0,0,0,0,1.2994799613952637
0.918226204,0,0,0,0,0,1.605239987373352
0.919226968,0,0,0,0,0,1.070159912109375
0.920226178,0,0,0,0,0,1.452359914779663
0.921243164,0,0,0,0,0,1.8345600366592407
0.922227077,0,0,0,0,0,1.758120059967041
0.923227083,0,0,0,0,0,1.5288000106811523
0.924226348,0,0,0,0,0,0.9172800183296204
0.925228408,0,0,0,0,0,1.452359914779663
0.92622697,0,0,0,0,0,1.223039984703064
0.927227123,0,0,0,0,0,1.605239987373352
0.92822661,0,0,0,0,0,1.605239987373352
0.929226393,0,0,0,0,0,1.5288000106811523
0.93022651,0,0,0,0,0,1.5288000106811523
0.931224812,0,0,0,0,0,0.9172800183296204
0.93222391,0,0,0,0,0,0.6879600286483765
0.933223582,0,0,0,0,0,0.5350799560546875
0.934223198,0,0,0,0,0,0.9172800183296204
0.935227407,0,0,0,0,0,1.6816799640655518
0.936226746,0,0,0,0,0,1.5288000106811523
0.937226048,0,0,0,0,0,1.5288000106811523
0.938226109,0,0,0,0,0,1.6816799640655518
0.939226466,0,0,0,0,0,1.375920057296753
0.940226101,0,0,0,0,0,1.452359914779663
0.941226218,0,0,0,0,0,1.452359914779663
0.942225927,0,0,0,0,0,0.9937199950218201
0.943227284,0,0,0,0,0,2.06387996673584
0.944226197,0,0,0,0,0,1.6816799640655518
0.945226388,0,0,0,0,0,1.605239987373352
0.946226171,0,0,0,0,0,1.9109998941421509
0.947227325,0,0,0,0,0,0.4586400091648102
0.948226312,0,0,0,0,0,1.1466000080108643
0.949226262,0,0,0,0,0,0.9937199950218201
0.950226082,0,0,0,0,0,0.7644000053405762
0.951227087,0,0,0,0,0,0.9937199950218201
0.952226167,0,0,0,0,0,0.9172800183296204
0.953226117,0,0,0,0,0,1.5288000106811523
0.954226141,0,0,0,0,0,1.2994799613952637
0.955227183,0,0,0,0,0,1.6816799640655518
0.956225633,0,0,0,0,0,1.6816799640655518
0.957225842,0,0,0,0,0,2.2932000160217285
0.958230514,0,0,0,0,0,1.070159912109375
0.959339944,0,0,0,0,0,1.2994799613952637
0.960234655,0,0,0,0,0,1.9874399900436401
0.961227401,0,0,0,0,0,1.9874399900436401
0.962226351,0,0,0,0,0,1.605239987373352
0.96322643,0,0,0,0,0,1.605239987373352
0.964226917,0,0,0,0,0,1.605239987373352
0.965226645,0,0,0,0,0,0.6879600286483765
0.966226206,0,0,0,0,0,0.9172800183296204
0.967226397,0,0,0,0,0,1.2994799613952637
0.968226217,0,0,0,0,0,1.6816799640655518
0.969226352,0,0,0,0,0,1.452359914779663
0.970226006,0,0,0,0,0,1.1466000080108643
0.9712274,0,0,0,0,0,1.223039984703064
0.972226405,0,0,0,0,0,0.8408399820327759
0.973226189,0,0,0,0,0,0.611519992351532
0.974225657,0,0,0,0,0,0.8408399820327759
0.975227014,0,0,0,0,0,1.375920057296753
0.976226094,0,0,0,0,0,2.14031982421875
0.977225451,0,0,0,0,0,1.9874399900436401
0.978225623,0,0,0,0,0,1.9109998941421509
0.979227295,0,0,0,0,0,1.6816799640655518
0.980226282,0,0,0,0,0,0.611519992351532
0.981226288,0,0,0,0,0,0.9937199950218201
0.982226164,0,0,0,0,0,1.375920057296753
0.983227225,0,0,0,0,0,1.5288000106811523
0.984226082,0,0,0,0,0,1.605239987373352
0.985242772,0,0,0,0,0,2.06387996673584
0.986243574,0,0,0,0,0,1.9874399900436401
0.987229709,0,0,0,0,0,2.06387996673584
0.988226567,0,0,0,0,0,1.452359914779663
0.989227702,0,0,0,0,0,1.223039984703064
0.990225966,0,0,0,0,0,0.9937199950218201
0.991227268,0,0,0,0,0,0.611519992351532
0.992226033,0,0,0,0,0,0.7644000053405762
0.993226038,0,0,0,0,0,1.1466000080108643
0.994225933,0,0,0,0,0,1.070159912109375
0.995227012,0,0,0,0,0,1.2994799613952637
0.996225981,0,0,0,0,0,1.452359914779663
0.997227597,0,0,0,0,0,1.375920057296753
0.998298917,0,0,0,0,0,1.5288000106811523
0.999310644,0,0,0,0,0,1.1466000080108643
1.000284446,0,0,0,0,0,1.452359914779663
1.001268285,0,0,0,0,0,1.452359914779663
1.002286809,0,0,0,0,0,1.375920057296753
1.003336536,0,0,0,0,0,1.605239987373352
1.004303357,0,0,0,0,0,1.758120059967041
1.005272974,0,0,0,0,0,1.223039984703064
1.006306738,0,0,0,0,0,1.758120059967041
1.007257336,0,0,0,0,0,1.375920057296753
1.008256416,0,0,0,0,0,0.9937199950218201
1.009281014,0,0,0,0,0,1.375920057296753
1.010311741,0,0,0,0,0,0.7644000053405762
1.011291413,0,0,0,0,0,1.2994799613952637
1.012268512,0,0,0,0,0,0.9937199950218201
1.013282498,0,0,0,0,0,1.375920057296753
1.014355318,0,0,0,0,0,1.452359914779663
1.015281769,0,0,0,0,0,1.223039984703064
1.016268274,0,0,0,0,0,1.070159912109375
1.017266743,0,0,0,0,0,1.223039984703064
1.01825423,0,0,0,0,0,0.8408399820327759
1.019327549,0,0,0,0,0,1.1466000080108643
1.020255296,0,0,0,0,0,1.452359914779663
1.021240672,0,0,0,0,0,1.452359914779663
1.022275862,0,0,0,0,0,1.452359914779663
1.02324885,0,0,0,0,0,0.9937199950218201
1.024298429,0,0,0,0,0,1.070159912109375
1.025348563,0,0,0,0,0,1.1466000080108643
1.026243236,0,0,0,0,0,1.605239987373352
1.027237575,0,0,0,0,0,0.7644000053405762
1.028230933,0,0,0,0,0,1.452359914779663
1.029231957,0,0,0,0,0,2.06387996673584
1.030231573,0,0,0,0,0,1.1466000080108643
1.031234801,0,0,0,0,0,2.3696401119232178
1.032231455,0,0,0,0,0,1.452359914779663
1.033231738,0,0,0,0,0,1.9109998941421509
1.034230873,0,0,0,0,0,1.223039984703064
1.035233786,0,0,0,0,0,1.5288000106811523
1.036229254,0,0,0,0,0,1.6816799640655518
1.037231111,0,0,0,0,0,1.375920057296753
1.03823008,0,0,0,0,0,1.9109998941421509
1.039237752,0,0,0,0,0,1.9109998941421509
1.040232961,0,0,0,0,0,1.452359914779663
1.041236004,0,0,0,0,0,0.9937199950218201
1.042408359,0,0,0,0,0,1.070159912109375
1.043259144,0,0,0,0,0,1.1466000080108643
1.044252723,0,0,0,0,0,1.5288000106811523
1.045245155,0,0,0,0,0,0.7644000053405762
1.046307437,0,0,0,0,0,1.070159912109375
1.04729511,0,0,0,0,0,1.5288000106811523
1.0482687450000001,0,0,0,0,0,0.9937199950218201
1.049289269,0,0,0,0,0,1.6816799640655518
1.050295589,0,0,0,0,0,1.2994799613952637
1.05135489,0,0,0,0,0,1.452359914779663
1.052267822,0,0,0,0,0,1.6816799640655518
1.053280513,0,0,0,0,0,1.8345600366592407
1.054253445,0,0,0,0,0,1.758120059967041
1.055294042,0,0,0,0,0,1.6816799640655518
1.056259326,0,0,0,0,0,1.605239987373352
1.057257424,0,0,0,0,0,1.070159912109375
1.058252503,0,0,0,0,0,1.223039984703064
1.059284842,0,0,0,0,0,1.070159912109375
1.060261125,0,0,0,0,0,1.070159912109375
1.061275797,0,0,0,0,0,1.6816799640655518
1.062287377,0,0,0,0,0,1.9109998941421509
1.063281827,0,0,0,0,0,1.452359914779663
1.064274814,0,0,0,0,0,1.6816799640655518
1.06526506,0,0,0,0,0,1.8345600366592407
1.066295491,0,0,0,0,0,1.9109998941421509
1.067274293,0,0,0,0,0,1.223039984703064
1.068268428,0,0,0,0,0,0.6879600286483765
1.0692676190000001,0,0,0,0,0,0.9172800183296204
1.07029579,0,0,0,0,0,1.1466000080108643
1.071277889,0,0,0,0,0,1.375920057296753
1.072229321,0,0,0,0,0,1.375920057296753
1.073224826,0,0,0,0,0,1.2994799613952637
1.074224128,0,0,0,0,0,1.375920057296753
1.075224837,0,0,0,0,0,1.1466000080108643
1.076223898,0,0,0,0,0,0.6879600286483765
1.077223848,0,0,0,0,0,0.9172800183296204
1.078223446,0,0,0,0,0,0.9172800183296204
1.079223526,0,0,0,0,0,1.758120059967041
1.080223827,0,0,0,0,0,2.522519826889038
1.081223481,0,0,0,0,0,2.06387996673584
1.082222986,0,0,0,0,0,2.06387996673584
1.083225492,0,0,0,0,0,1.758120059967041
1.084223738,0,0,0,0,0,1.1466000080108643
1.085223077,0,0,0,0,0,0.9172800183296204
1.086223156,0,0,0,0,0,1.1466000080108643
1.087224125,0,0,0,0,0,1.1466000080108643
1.088232241,0,0,0,0,0,1.223039984703064
1.089224136,0,0,0,0,0,1.8345600366592407
1.090223419,0,0,0,0,0,1.070159912109375
1.091226609,0,0,0,0,0,1.375920057296753
1.092224096,0,0,0,0,0,1.605239987373352
1.093223565,0,0,0,0,0,1.2994799613952637
1.094223978,0,0,0,0,0,1.2994799613952637
1.095223872,0,0,0,0,0,1.2994799613952637
1.096223489,0,0,0,0,0,1.5288000106811523
1.097223772,0,0,0,0,0,0.7644000053405762
1.09822374,0,0,0,0,0,0.7644000053405762
1.099224746,0,0,0,0,0,1.1466000080108643
1.10022351,0,0,0,0,0,0.611519992351532
1.101223738,0,0,0,0,0,0.7644000053405762
1.102223799,0,0,0,0,0,1.8345600366592407
1.103223916,0,0,0,0,0,1.375920057296753
1.104223884,0,0,0,0,0,2.3696401119232178
1.105223723,0,0,0,0,0,2.06387996673584
1.106223506,0,0,0,0,0,1.452359914779663
1.107228437,0,0,0,0,0,2.14031982421875
1.108227072,0,0,0,0,0,1.1466000080108643
1.109226393,0,0,0,0,0,1.375920057296753
1.110226343,0,0,0,0,0,1.605239987373352
1.111226626,0,0,0,0,0,1.070159912109375
1.112226428,0,0,0,0,0,2.3696401119232178
1.113226378,0,0,0,0,0,1.605239987373352
1.114226235,0,0,0,0,0,1.605239987373352
1.115227555,0,0,0,0,0,1.758120059967041
1.116226357,0,0,0,0,0,0.2293200045824051
1.117226399,0,0,0,0,0,0.7644000053405762
1.118226516,0,0,0,0,0,0.8408399820327759
1.119226669,0,0,0,0,0,0.152879998087883
1.120226193,0,0,0,0,0,1.2994799613952637
1.121226532,0,0,0,0,0,1.452359914779663
1.122226464,0,0,0,0,0,2.14031982421875
1.12322808,0,0,0,0,0,2.3696401119232178
1.124226474,0,0,0,0,0,2.3696401119232178
1.125226387,0,0,0,0,0,1.9874399900436401
1.126229356,0,0,0,0,0,1.452359914779663
1.127226509,0,0,0,0,0,1.1466000080108643
1.128226422,0,0,0,0,0,1.223039984703064
1.129225965,0,0,0,0,0,0.8408399820327759
1.130226396,0,0,0,0,0,1.375920057296753
1.1312261239999999,0,0,0,0,0,1.452359914779663
1.1322265,0,0,0,0,0,0.611519992351532
1.133226264,0,0,0,0,0,0
1.134226436,0,0,0,0,0,0.4586400091648102
1.135226571,0,0,0,0,0,1.1466000080108643
1.136226355,0,0,0,0,0,0.9172800183296204
1.137226249,0,0,0,0,0,1.758120059967041
1.138226643,0,0,0,0,0,2.6754000186920166
1.139226371,0,0,0,0,0,2.2932000160217285
1.140226525,0,0,0,0,0,2.14031982421875
1.141226419,0,0,0,0,0,1.9874399900436401
1.142226387,0,0,0,0,0,1.8345600366592407
1.143227541,0,0,0,0,0,0.6879600286483765
1.144226398,0,0,0,0,0,1.6816799640655518
1.145226293,0,0,0,0,0,1.9874399900436401
1.146226243,0,0,0,0,0,0.6879600286483765
1.147227044,0,0,0,0,0,1.1466000080108643
1.14822629,0,0,0,0,0,0.9937199950218201
1.149242185,0,0,0,0,0,0.305759996175766
1.150390225,0,0,0,0,0,1.1466000080108643
1.151243807,0,0,0,0,0,2.06387996673584
1.152227849,0,0,0,0,0,1.1466000080108643
1.153226651,0,0,0,0,0,2.3696401119232178
1.154226471,0,0,0,0,0,2.5989599227905273
1.15522881,0,0,0,0,0,1.2994799613952637
1.156226649,0,0,0,0,0,1.223039984703064
1.157226691,0,0,0,0,0,1.8345600366592407
1.158226234,0,0,0,0,0,-0.152879998087883
1.159226665,0,0,0,0,0,1.375920057296753
1.160226652,0,0,0,0,0,1.9874399900436401
1.161226269,0,0,0,0,0,0.152879998087883
1.162226459,0,0,0,0,0,1.9109998941421509
1.16322665,0,0,0,0,0,2.06387996673584
1.164226285,0,0,0,0,0,0.305759996175766
1.165226272,0,0,0,0,0,1.5288000106811523
1.166226537,0,0,0,0,0,0.9172800183296204
1.167226487,0,0,0,0,0,0
1.168225899,0,0,0,0,0,1.452359914779663
1.169226294,0,0,0,0,0,0.5350799560546875
1.170226466,0,0,0,0,0,0.9172800183296204
1.171226712,0,0,0,0,0,1.223039984703064
1.17222594,0,0,0,0,0,1.223039984703064
1.173226353,0,0,0,0,0,2.3696401119232178
1.174226303,0,0,0,0,0,2.2167599201202393
1.175226512,0,0,0,0,0,2.446079969406128
1.176226221,0,0,0,0,0,2.751840114593506
1.177226689,0,0,0,0,0,1.2994799613952637
1.178226213,0,0,0,0,0,2.446079969406128
1.179227552,0,0,0,0,0,1.223039984703064
1.180226354,0,0,0,0,0,0.9172800183296204
1.181231155,0,0,0,0,0,1.223039984703064
1.182226661,0,0,0,0,0,-0.9172800183296204
1.183227611,0,0,0,0,0,2.06387996673584
1.184226524,0,0,0,0,0,1.452359914779663
1.18522627,0,0,0,0,0,0.9172800183296204
1.186243812,0,0,0,0,0,3.7455599308013916
1.187229299,0,0,0,0,0,0.4586400091648102
1.188226897,0,0,0,0,0,1.6816799640655518
1.189226366,0,0,0,0,0,0.2293200045824051
1.190225797,0,0,0,0,0,-0.9937199950218201
1.191227432,0,0,0,0,0,-0.305759996175766
1.192226345,0,0,0,0,0,-1.2994799613952637
1.193226091,0,0,0,0,0,1.375920057296753
1.19422606,0,0,0,0,0,0.7644000053405762
1.195227324,0,0,0,0,0,1.6816799640655518
1.1962265890000001,0,0,0,0,0,1.758120059967041
1.1972264830000001,0,0,0,0,0,0.305759996175766
1.198226081,0,0,0,0,0,1.070159912109375
1.19922718,0,0,0,0,0,-0.611519992351532
1.200226203,0,0,0,0,0,0.0764399990439415
1.201226431,0,0,0,0,0,-0.152879998087883
1.20222627,0,0,0,0,0,1.2994799613952637
1.203227312,0,0,0,0,0,2.828279972076416
1.2042262990000001,0,0,0,0,0,1.758120059967041
1.205226231,0,0,0,0,0,3.134040117263794
1.206226125,0,0,0,0,0,1.605239987373352
1.207227538,0,0,0,0,0,1.452359914779663
1.208226414,0,0,0,0,0,0.5350799560546875
1.209226512,0,0,0,0,0,-0.5350799560546875
1.210226295,0,0,0,0,0,0.8408399820327759
1.211226541,0,0,0,0,0,-0.7644000053405762
1.212226343,0,0,0,0,0,1.1466000080108643
1.213226274,0,0,0,0,0,1.605239987373352
1.214226354,0,0,0,0,0,1.452359914779663
1.215227378,0,0,0,0,0,1.6816799640655518
1.216226235,0,0,0,0,0,0
1.217226241,0,0,0,0,0,0.611519992351532
1.21822632,0,0,0,0,0,-1.1466000080108643
1.219227437,0,0,0,0,0,-0.152879998087883
1.220226183,0,0,0,0,0,-0.305759996175766
1.221226355,0,0,0,0,0,0
1.222226379,0,0,0,0,0,2.446079969406128
1.223227329,0,0,0,0,0,0.9937199950218201
1.224226464,0,0,0,0,0,2.904719829559326
1.225226469,0,0,0,0,0,1.6816799640655518
1.226226345,0,0,0,0,0,1.5288000106811523
1.227227443,0,0,0,0,0,1.2994799613952637
1.228226375,0,0,0,0,0,-0.9172800183296204
1.229226473,0,0,0,0,0,0.9172800183296204
1.23022646,0,0,0,0,0,-1.070159912109375
1.231227298,0,0,0,0,0,0.7644000053405762
1.232226452,0,0,0,0,0,1.9109998941421509
1.233225754,0,0,0,0,0,1.223039984703064
1.234226389,0,0,0,0,0,2.904719829559326
1.235227116,0,0,0,0,0,1.452359914779663
1.236226566,0,0,0,0,0,1.375920057296753
1.237225961,0,0,0,0,0,-0.6879600286483765
1.2382265399999999,0,0,0,0,0,-0.9937199950218201
1.239227212,0,0,0,0,0,-1.452359914779663
1.240226292,0,0,0,0,0,-1.2994799613952637
1.241226371,0,0,0,0,0,1.2994799613952637
1.2422265989999999,0,0,0,0,0,0.9937199950218201
1.243227197,0,0,0,0,0,2.446079969406128
1.244226221,0,0,0,0,0,2.904719829559326
1.245226541,0,0,0,0,0,1.6816799640655518
1.24622638,0,0,0,0,0,1.9874399900436401
1.247228089,0,0,0,0,0,-0.2293200045824051
1.248226317,0,0,0,0,0,0
1.249226211,0,0,0,0,0,-1.375920057296753
1.2502263089999999,0,0,0,0,0,0.2293200045824051
1.251227444,0,0,0,0,0,2.3696401119232178
1.252226468,0,0,0,0,0,1.452359914779663
1.253226529,0,0,0,0,0,3.3633599281311035
1.254226183,0,0,0,0,0,2.446079969406128
1.2552268180000001,0,0,0,0,0,2.3696401119232178
1.256226398,0,0,0,0,0,1.2994799613952637
1.257226162,0,0,0,0,0,-0.4586400091648102
1.258226038,0,0,0,0,0,-0.611519992351532
1.2592442099999999,0,0,0,0,0,-2.06387996673584
1.260226956,0,0,0,0,0,0.6879600286483765
1.26122648,0,0,0,0,0,0.2293200045824051
1.262226338,0,0,0,0,0,1.2994799613952637
1.263227436,0,0,0,0,0,2.446079969406128
1.264226534,0,0,0,0,0,1.070159912109375
1.265226373,0,0,0,0,0,1.9874399900436401
1.266226563,0,0,0,0,0,0
1.267227235,0,0,0,0,0,0
1.268226111,0,0,0,0,0,-0.9172800183296204
1.269226394,0,0,0,0,0,-0.9172800183296204
1.270226233,0,0,0,0,0,2.2167599201202393
1.27122735,0,0,0,0,0,1.5288000106811523
1.2722265400000001,0,0,0,0,0,3.592679977416992
1.2732265090000001,0,0,0,0,0,2.14031982421875
1.27422631,0,0,0,0,0,1.605239987373352
1.275227334,0,0,0,0,0,1.6816799640655518
1.276225895,0,0,0,0,0,-0.6879600286483765
1.277226197,0,0,0,0,0,0.611519992351532
1.2782264620000001,0,0,0,0,0,-0.6879600286483765
1.27922719,0,0,0,0,0,0
1.280225862,0,0,0,0,0,1.375920057296753
1.28122646,0,0,0,0,0,0.6879600286483765
1.28222628,0,0,0,0,0,2.522519826889038
1.283227211,0,0,0,0,0,0.9937199950218201
1.284226328,0,0,0,0,0,1.605239987373352
1.285226278,0,0,0,0,0,-0.305759996175766
1.286298986,0,0,0,0,0,-0.9172800183296204
1.287306232,0,0,0,0,0,0
1.288269905,0,0,0,0,0,-1.223039984703064
1.289534425,0,0,0,0,0,1.6816799640655518
1.290306267,0,0,0,0,0,1.1466000080108643
1.291264903,0,0,0,0,0,2.14031982421875
1.292266223,0,0,0,0,0,2.5989599227905273
1.293243321,0,0,0,0,0,1.223039984703064
1.2942493449999999,0,0,0,0,0,1.5288000106811523
1.295263147,0,0,0,0,0,-0.3822000026702881
1.296250208,0,0,0,0,0,0.4586400091648102
1.297227065,0,0,0,0,0,-0.9937199950218201
1.298223423,0,0,0,0,0,0
1.299226317,0,0,0,0,0,1.8345600366592407
1.30022373,0,0,0,0,0,1.605239987373352
1.301223032,0,0,0,0,0,2.751840114593506
1.302223222,0,0,0,0,0,1.452359914779663
1.303229709,0,0,0,0,0,1.8345600366592407
1.304226678,0,0,0,0,0,0.6879600286483765
1.305226961,0,0,0,0,0,0
1.3062265960000001,0,0,0,0,0,0.305759996175766
1.3072264900000001,0,0,0,0,0,-1.758120059967041
1.308226274,0,0,0,0,0,0.305759996175766
1.3092262049999999,0,0,0,0,0,0.4586400091648102
1.310226377,0,0,0,0,0,0.611519992351532
1.311228531,0,0,0,0,0,2.751840114593506
1.312226129,0,0,0,0,0,0.7644000053405762
1.31322643,0,0,0,0,0,1.6816799640655518
1.314226325,0,0,0,0,0,0.5350799560546875
1.315227904,0,0,0,0,0,0.2293200045824051
1.316226188,0,0,0,0,0,-0.2293200045824051
1.31722636,0,0,0,0,0,-0.9937199950218201
1.318226384,0,0,0,0,0,2.3696401119232178
1.3192265,0,0,0,0,0,1.070159912109375
1.3202264320000001,0,0,0,0,0,2.522519826889038
1.321226548,0,0,0,0,0,2.06387996673584
1.322226387,0,0,0,0,0,1.758120059967041
1.32322604,0,0,0,0,0,1.452359914779663
1.324226157,0,0,0,0,0,0.305759996175766
1.325228774,0,0,0,0,0,0.5350799560546875
1.326226853,0,0,0,0,0,-0.5350799560546875
1.327226766,0,0,0,0,0,1.1466000080108643
1.32822629,0,0,0,0,0,1.070159912109375
1.329226351,0,0,0,0,0,0.8408399820327759
1.330226245,0,0,0,0,0,2.522519826889038
1.331225936,0,0,0,0,0,0.3822000026702881
1.332226571,0,0,0,0,0,1.2994799613952637
1.333226021,0,0,0,0,0,0.611519992351532
1.334226341,0,0,0,0,0,0.2293200045824051
1.335226236,0,0,0,0,0,0.5350799560546875
1.336226426,0,0,0,0,0,-1.070159912109375
1.337226191,0,0,0,0,0,1.1466000080108643
1.338226752,0,0,0,0,0,0.9172800183296204
1.33922622,0,0,0,0,0,1.6816799640655518
1.3402265039999999,0,0,0,0,0,1.9109998941421509
1.341226083,0,0,0,0,0,0.8408399820327759
1.342226459,0,0,0,0,0,1.5288000106811523
1.343228094,0,0,0,0,0,0.152879998087883
1.344226322,0,0,0,0,0,0.611519992351532
1.345225883,0,0,0,0,0,-0.611519992351532
1.346226333,0,0,0,0,0,-0.3822000026702881
1.347227468,0,0,0,0,0,2.2167599201202393
1.3482263620000001,0,0,0,0,0,0.3822000026702881
1.349226571,0,0,0,0,0,2.446079969406128
1.350226317,0,0,0,0,0,0.2293200045824051
1.351227286,0,0,0,0,0,1.070159912109375
1.352226458,0,0,0,0,0,0.4586400091648102
1.353226463,0,0,0,0,0,0
1.354226302,0,0,0,0,0,0.4586400091648102
1.355227585,0,0,0,0,0,-0.7644000053405762
1.356226498,0,0,0,0,0,1.375920057296753
1.357226448,0,0,0,0,0,1.9874399900436401
1.358226287,0,0,0,0,0,1.1466000080108643
1.359227385,0,0,0,0,0,2.3696401119232178
1.360226298,0,0,0,0,0,0.6879600286483765
1.361226192,0,0,0,0,0,1.070159912109375
1.362226346,0,0,0,0,0,0.0764399990439415
1.363226944,0,0,0,0,0,0.6879600286483765
1.3642263749999999,0,0,0,0,0,0.152879998087883
1.3652261399999999,0,0,0,0,0,0
1.366245867,0,0,0,0,0,2.2932000160217285
1.367228873,0,0,0,0,0,0.8408399820327759
1.368226526,0,0,0,0,0,1.375920057296753
1.369226402,0,0,0,0,0,1.2994799613952637
1.370226482,0,0,0,0,0,0.152879998087883
1.371227543,0,0,0,0,0,1.223039984703064
1.3722266410000001,0,0,0,0,0,0.2293200045824051
1.3732263869999999,0,0,0,0,0,1.223039984703064
1.374226393,0,0,0,0,0,-0.3822000026702881
1.37522725,0,0,0,0,0,1.605239987373352
1.376226366,0,0,0,0,0,2.446079969406128
1.377226427,0,0,0,0,0,0.7644000053405762
1.378226451,0,0,0,0,0,2.2167599201202393
1.379227309,0,0,0,0,0,0.4586400091648102
1.380226425,0,0,0,0,0,0.3822000026702881
1.3812263200000001,0,0,0,0,0,0.2293200045824051
1.382226455,0,0,0,0,0,-0.2293200045824051
1.383229201,0,0,0,0,0,0
1.384274743,0,0,0,0,0,-0.4586400091648102
1.385228341,0,0,0,0,0,2.3696401119232178
1.386226532,0,0,0,0,0,1.1466000080108643
1.387226612,0,0,0,0,0,1.9874399900436401
1.3882930230000001,0,0,0,0,0,2.3696401119232178
1.3892717700000001,0,0,0,0,0,0.611519992351532
1.390227961,0,0,0,0,0,1.223039984703064
1.391227041,0,0,0,0,0,-0.3822000026702881
1.392226565,0,0,0,0,0,0.3822000026702881
1.393226311,0,0,0,0,0,-0.5350799560546875
1.394226335,0,0,0,0,0,9.325679779052734
1.395226655,0,0,0,0,0,2.06387996673584
1.396226512,0,0,0,0,0,0.6879600286483765
1.397226444,0,0,0,0,0,2.9811599254608154
1.39822669,0,0,0,0,0,1.452359914779663
1.399230362,0,0,0,0,0,0.9172800183296204
1.4002561820000001,0,0,0,0,0,1.070159912109375
1.401260502,0,0,0,0,0,0
1.402230212,0,0,0,0,0,0.305759996175766
1.403228384,0,0,0,0,0,-1.070159912109375
1.40422626,0,0,0,0,0,0.611519992351532
1.405226561,0,0,0,0,0,1.375920057296753
1.406226178,0,0,0,0,0,1.758120059967041
1.4072286649999999,0,0,0,0,0,2.6754000186920166
1.408226559,0,0,0,0,0,0.8408399820327759
1.409226213,0,0,0,0,0,1.5288000106811523
1.410226959,0,0,0,0,0,0
1.411227631,0,0,0,0,0,0.152879998087883
1.412226803,0,0,0,0,0,-0.9937199950218201
1.413226512,0,0,0,0,0,-1.070159912109375
1.414226277,0,0,0,0,0,2.2167599201202393
1.415227875,0,0,0,0,0,0.7644000053405762
1.416226547,0,0,0,0,0,2.2932000160217285
1.417226479,0,0,0,0,0,1.605239987373352
1.418226521,0,0,0,0,0,1.452359914779663
1.419227416,0,0,0,0,0,0.6879600286483765
1.420226588,0,0,0,0,0,19.797958374023438
1.421226556,0,0,0,0,0,0
1.422226524,0,0,0,0,0,-0.305759996175766
1.423227437,0,0,0,0,0,1.6816799640655518
1.424226628,0,0,0,0,0,2.446079969406128
1.42522643,0,0,0,0,0,1.375920057296753
1.426226565,0,0,0,0,0,2.5989599227905273
1.427227718,0,0,0,0,0,1.1466000080108643
1.4282263720000001,0,0,0,0,0,0.8408399820327759
1.429241599,0,0,0,0,0,-0.611519992351532
1.430228531,0,0,0,0,0,-0.4586400091648102
1.4312270360000001,0,0,0,0,0,-0.5350799560546875
1.432226412,0,0,0,0,0,-1.375920057296753
1.43323227,0,0,0,0,0,1.9874399900436401
1.434227034,0,0,0,0,0,1.375920057296753
1.435227632,0,0,0,0,0,1.9874399900436401
1.436226379,0,0,0,0,0,2.828279972076416
1.437226551,0,0,0,0,0,0.2293200045824051
1.438226371,0,0,0,0,0,1.1466000080108643
1.4392275429999999,0,0,0,0,0,-0.152879998087883
1.440226271,0,0,0,0,0,-0.152879998087883
1.441226572,0,0,0,0,0,-0.8408399820327759
1.4422263929999999,0,0,0,0,0,1.1466000080108643
1.443227306,0,0,0,0,0,2.6754000186920166
1.444226459,0,0,0,0,0,1.375920057296753
1.445226613,0,0,0,0,0,2.751840114593506
1.446226674,0,0,0,0,0,1.375920057296753
1.447227438,0,0,0,0,0,0.9937199950218201
1.448226351,0,0,0,0,0,0.4586400091648102
1.449226338,0,0,0,0,0,0
1.450226362,0,0,0,0,0,0
1.451227405,0,0,0,0,0,-0.7644000053405762
1.452226262,0,0,0,0,0,1.8345600366592407
1.453226119,0,0,0,0,0,1.223039984703064
1.454226754,0,0,0,0,0,2.06387996673584
1.455227427,0,0,0,0,0,2.751840114593506
1.456226413,0,0,0,0,0,0.611519992351532
1.45722653,0,0,0,0,0,1.223039984703064
1.458226387,0,0,0,0,0,-0.6879600286483765
1.459227189,0,0,0,0,0,-0.6879600286483765
1.460226806,0,0,0,0,0,-1.070159912109375
1.461226348,0,0,0,0,0,-0.8408399820327759
1.462226557,0,0,0,0,0,1.375920057296753
1.4632276,0,0,0,0,0,0.8408399820327759
1.46422655,0,0,0,0,0,3.2869198322296143
1.465226537,0,0,0,0,0,1.9874399900436401
1.466226449,0,0,0,0,0,1.1466000080108643
1.46722677,0,0,0,0,0,1.9109998941421509
1.468226646,0,0,0,0,0,0
1.469226355,0,0,0,0,0,0.6879600286483765
1.470226453,0,0,0,0,0,-1.1466000080108643
1.471227421,0,0,0,0,0,0.2293200045824051
1.472226353,0,0,0,0,0,1.8345600366592407
1.473226432,0,0,0,0,0,1.223039984703064
1.474225882,0,0,0,0,0,3.3633599281311035
1.475227647,0,0,0,0,0,0.7644000053405762
1.476226504,0,0,0,0,0,0.9172800183296204
1.477226435,0,0,0,0,0,0
1.478226496,0,0,0,0,0,-1.1466000080108643
1.479227428,0,0,0,0,0,-0.6879600286483765
1.480226341,0,0,0,0,0,-1.605239987373352
1.481226383,0,0,0,0,0,1.758120059967041
1.482226629,0,0,0,0,0,1.605239987373352
1.483227412,0,0,0,0,0,2.751840114593506
1.484226251,0,0,0,0,0,3.2869198322296143
1.485226609,0,0,0,0,0,1.5288000106811523
1.486226262,0,0,0,0,0,1.605239987373352
1.487227527,0,0,0,0,0,-0.3822000026702881
1.488226477,0,0,0,0,0,-0.611519992351532
1.489226204,0,0,0,0,0,-1.605239987373352
1.490226654,0,0,0,0,0,0.2293200045824051
1.491227549,0,0,0,0,0,1.8345600366592407
1.492226128,0,0,0,0,0,1.375920057296753
1.493226671,0,0,0,0,0,3.516240119934082
1.494226602,0,0,0,0,0,2.2167599201202393
1.495227311,0,0,0,0,0,0.5350799560546875
1.496225835,0,0,0,0,0,-0.3822000026702881
1.497232674,0,0,0,0,0,-1.223039984703064
1.498226828,0,0,0,0,0,-1.375920057296753
1.499227389,0,0,0,0,0,-1.452359914779663
1.500226431,0,0,0,0,0,1.452359914779663
1.501226529,0,0,0,0,0,1.452359914779663
1.5022263489999998,0,0,0,0,0,2.14031982421875
1.5032275579999999,0,0,0,0,0,2.6754000186920166
1.5042263230000001,0,0,0,0,0,0.611519992351532
1.505226569,0,0,0,0,0,0.8408399820327759
1.506226427,0,0,0,0,0,-0.9937199950218201
1.507227377,0,0,0,0,0,-1.5288000106811523
1.508226938,0,0,0,0,0,-1.2994799613952637
1.509226221,0,0,0,0,0,-1.2994799613952637
1.510226152,0,0,0,0,0,1.605239987373352
1.5112270840000002,0,0,0,0,0,0.6879600286483765
1.5122264410000001,0,0,0,0,0,1.6816799640655518
1.51322652,0,0,0,0,0,2.14031982421875
1.514226044,0,0,0,0,0,0
1.515226698,0,0,0,0,0,1.452359914779663
1.516226278,0,0,0,0,0,0.2293200045824051
1.5172258570000001,0,0,0,0,0,-1.223039984703064
1.518226029,0,0,0,0,0,1.070159912109375
1.519227405,0,0,0,0,0,-1.070159912109375
1.520226429,0,0,0,0,0,1.605239987373352
1.521226416,0,0,0,0,0,1.9109998941421509
1.522226255,0,0,0,0,0,0.4586400091648102
1.523227242,0,0,0,0,0,2.2167599201202393
1.524226599,0,0,0,0,0,0.305759996175766
1.525226623,0,0,0,0,0,-0.6879600286483765
1.5262288320000001,0,0,0,0,0,0.152879998087883
1.527225208,0,0,0,0,0,-1.452359914779663
1.5282240470000001,0,0,0,0,0,-1.1466000080108643
1.529223774,0,0,0,0,0,-0.8408399820327759
1.530223891,0,0,0,0,0,0
1.531229044,0,0,0,0,0,0.5350799560546875
1.5322268650000002,0,0,0,0,0,1.1466000080108643
1.533225963,0,0,0,0,0,1.8345600366592407
1.5342257830000001,0,0,0,0,0,1.070159912109375
1.5352259369999999,0,0,0,0,0,1.070159912109375
1.5362258309999999,0,0,0,0,0,1.375920057296753
1.537225985,0,0,0,0,0,0
1.5382260460000001,0,0,0,0,0,0.9937199950218201
1.539225551,0,0,0,0,0,0.6879600286483765
1.540225853,0,0,0,0,0,-0.305759996175766
1.54122608,0,0,0,0,0,0.0764399990439415
1.5422260300000001,0,0,0,0,0,0.2293200045824051
1.543227054,0,0,0,0,0,0
1.544225856,0,0,0,0,0,0.0764399990439415
1.545226121,0,0,0,0,0,0.611519992351532
1.546225811,0,0,0,0,0,-0.3822000026702881
1.5472267240000002,0,0,0,0,0,-0.2293200045824051
1.548225878,0,0,0,0,0,0.2293200045824051
1.549225754,0,0,0,0,0,-0.152879998087883
1.550226055,0,0,0,0,0,0
1.551226839,0,0,0,0,0,0.4586400091648102
1.55222577,0,0,0,0,0,0.2293200045824051
1.553225979,0,0,0,0,0,0.6879600286483765
1.5542260030000001,0,0,0,0,0,-0.305759996175766
1.555226916,0,0,0,0,0,0.305759996175766
1.556226162,0,0,0,0,0,1.2994799613952637
1.5572255940000002,0,0,0,0,0,0.3822000026702881
1.5582260799999998,0,0,0,0,0,0.4586400091648102
1.559227086,0,0,0,0,0,1.1466000080108643
1.5602257769999999,0,0,0,0,0,0.6879600286483765
1.561234819,0,0,0,0,0,0.152879998087883
1.562226732,0,0,0,0,0,0.152879998087883
1.5632260150000001,0,0,0,0,0,0.3822000026702881
1.5642259649999999,0,0,0,0,0,0.7644000053405762
1.565226026,0,0,0,0,0,0.4586400091648102
1.566225883,0,0,0,0,0,0.4586400091648102
1.5672272409999999,0,0,0,0,0,0.4586400091648102
1.568226005,0,0,0,0,0,0
1.569226029,0,0,0,0,0,-0.9172800183296204
1.570226109,0,0,0,0,0,-0.3822000026702881
1.571227188,0,0,0,0,0,0
1.572226046,0,0,0,0,0,0.305759996175766
1.5732259769999999,0,0,0,0,0,0.9172800183296204
1.5742261119999998,0,0,0,0,0,0.8408399820327759
1.575226858,0,0,0,0,0,1.375920057296753
1.57622603,0,0,0,0,0,0.2293200045824051
1.577225943,0,0,0,0,0,0.2293200045824051
1.578226134,0,0,0,0,0,0
1.5792270099999999,0,0,0,0,0,0
1.5802260339999998,0,0,0,0,0,0.611519992351532
1.5812258909999999,0,0,0,0,0,0.6879600286483765
1.582225582,0,0,0,0,0,0.9937199950218201
1.5832268649999999,0,0,0,0,0,1.2994799613952637
1.584226185,0,0,0,0,0,0.6879600286483765
1.585226265,0,0,0,0,0,0
1.586242548,0,0,0,0,0,-0.305759996175766
1.587228905,0,0,0,0,0,-1.223039984703064
1.5882262630000001,0,0,0,0,0,-0.7644000053405762
1.5892261570000001,0,0,0,0,0,0.5350799560546875
1.59022607,0,0,0,0,0,0.611519992351532
1.591227075,0,0,0,0,0,0.9172800183296204
1.592225895,0,0,0,0,0,1.223039984703064
1.593225975,0,0,0,0,0,0.0764399990439415
1.5942261100000001,0,0,0,0,0,0.9172800183296204
1.595226949,0,0,0,0,0,0.3822000026702881
1.596225936,0,0,0,0,0,0.2293200045824051
1.597226034,0,0,0,0,0,0.611519992351532
1.598226002,0,0,0,0,0,0.6879600286483765
1.599232063,0,0,0,0,0,0.8408399820327759
1.600237661,0,0,0,0,0,0.9937199950218201
1.601226611,0,0,0,0,0,0.9937199950218201
1.602225968,0,0,0,0,0,0.3822000026702881
1.6032269000000001,0,0,0,0,0,0.3822000026702881
1.604225646,0,0,0,0,0,0.0764399990439415
1.605265262,0,0,0,0,0,-0.152879998087883
1.6062824340000001,0,0,0,0,0,-0.152879998087883
1.607229051,0,0,0,0,0,-0.4586400091648102
1.608226779,0,0,0,0,0,-0.152879998087883
1.6092261730000001,0,0,0,0,0,0.2293200045824051
1.61022629,0,0,0,0,0,0.152879998087883
1.6112344429999998,0,0,0,0,0,0.305759996175766
1.612227078,0,0,0,0,0,0.8408399820327759
1.613232639,0,0,0,0,0,1.070159912109375
1.614227497,0,0,0,0,0,1.070159912109375
1.615231576,0,0,0,0,0,0.8408399820327759
1.6162271929999998,0,0,0,0,0,0.7644000053405762
1.617226402,0,0,0,0,0,0.305759996175766
1.618231352,0,0,0,0,0,0.3822000026702881
1.619228061,0,0,0,0,0,0.2293200045824051
1.6202264,0,0,0,0,0,0.0764399990439415
1.621226202,0,0,0,0,0,0.8408399820327759
1.622225374,0,0,0,0,0,0.5350799560546875
1.623227083,0,0,0,0,0,0.5350799560546875
1.624226181,0,0,0,0,0,0.611519992351532
1.625241501,0,0,0,0,0,0.0764399990439415
1.626226544,0,0,0,0,0,0
1.62722729,0,0,0,0,0,0.152879998087883
1.6282260549999998,0,0,0,0,0,0.0764399990439415
1.629225893,0,0,0,0,0,0.2293200045824051
1.6302258429999998,0,0,0,0,0,0.8408399820327759
1.631227201,0,0,0,0,0,0.6879600286483765
1.632225928,0,0,0,0,0,0.9172800183296204
1.6332261,0,0,0,0,0,0.3822000026702881
1.634226328,0,0,0,0,0,0.0764399990439415
1.635226908,0,0,0,0,0,0.5350799560546875
1.636228265,0,0,0,0,0,0.0764399990439415
1.6372274,0,0,0,0,0,0.2293200045824051
1.6382257199999999,0,0,0,0,0,0.611519992351532
1.639226281,0,0,0,0,0,0.5350799560546875
1.640225824,0,0,0,0,0,0.3822000026702881
1.641226088,0,0,0,0,0,0.6879600286483765
1.64222589,0,0,0,0,0,0
1.643225729,0,0,0,0,0,0.2293200045824051
1.644226086,0,0,0,0,0,-0.152879998087883
1.6452262210000002,0,0,0,0,0,0.4586400091648102
1.646225912,0,0,0,0,0,0.611519992351532
1.6472266580000001,0,0,0,0,0,0.5350799560546875
1.64822609,0,0,0,0,0,0.3822000026702881
1.649226002,0,0,0,0,0,0.7644000053405762
1.650250841,0,0,0,0,0,0.4586400091648102
1.651266883,0,0,0,0,0,0.0764399990439415
1.6522335,0,0,0,0,0,0.2293200045824051
1.653226265,0,0,0,0,0,-0.152879998087883
1.654226937,0,0,0,0,0,0.2293200045824051
1.655230183,0,0,0,0,0,-0.2293200045824051
1.6562257630000001,0,0,0,0,0,0.3822000026702881
1.6572260829999998,0,0,0,0,0,0.611519992351532
1.65822607,0,0,0,0,0,0
1.6592270569999998,0,0,0,0,0,0.7644000053405762
1.660226192,0,0,0,0,0,0.5350799560546875
1.661225975,0,0,0,0,0,0.4586400091648102
1.662226055,0,0,0,0,0,1.1466000080108643
1.6632268749999999,0,0,0,0,0,0.6879600286483765
1.664225973,0,0,0,0,0,0.6879600286483765
1.665225553,0,0,0,0,0,0.9172800183296204
1.666246428,0,0,0,0,0,0.2293200045824051
1.667228563,0,0,0,0,0,0.305759996175766
1.66822605,0,0,0,0,0,0.305759996175766
1.6692256109999999,0,0,0,0,0,0.305759996175766
1.670226117,0,0,0,0,0,0.3822000026702881
1.671227344,0,0,0,0,0,0.305759996175766
1.67222622,0,0,0,0,0,0.611519992351532
1.673225892,0,0,0,0,0,0.5350799560546875
1.674226065,0,0,0,0,0,0.5350799560546875
1.6752270889999998,0,0,0,0,0,0
1.676225853,0,0,0,0,0,0
1.677225933,0,0,0,0,0,-0.152879998087883
1.678225901,0,0,0,0,0,-0.3822000026702881
1.67922774,0,0,0,0,0,0.4586400091648102
1.6802258380000001,0,0,0,0,0,0.2293200045824051
1.681250065,0,0,0,0,0,0.611519992351532
1.682290959,0,0,0,0,0,0.5350799560546875
1.6839217899999999,0,0,0,0,0,0.2293200045824051
1.684291526,0,0,0,0,0,0.4586400091648102
1.685272439,0,0,0,0,0,0.152879998087883
1.686295407,0,0,0,0,0,0.2293200045824051
1.687259505,0,0,0,0,0,0.4586400091648102
1.688234493,0,0,0,0,0,0.8408399820327759
1.68928272,0,0,0,0,0,0.611519992351532
1.690226781,0,0,0,0,0,0
1.691229565,0,0,0,0,0,0.3822000026702881
1.692225163,0,0,0,0,0,0.2293200045824051
1.693225038,0,0,0,0,0,-0.152879998087883
1.6942248960000001,0,0,0,0,0,0
1.695225809,0,0,0,0,0,0
1.6962250920000002,0,0,0,0,0,0.152879998087883
1.69722482,0,0,0,0,0,0.4586400091648102
1.698224806,0,0,0,0,0,0.611519992351532
1.699225719,0,0,0,0,0,0.3822000026702881
1.700224577,0,0,0,0,0,0.7644000053405762
1.701224434,0,0,0,0,0,0.7644000053405762
1.702224643,0,0,0,0,0,0.6879600286483765
1.70322576,0,0,0,0,0,0.7644000053405762
1.704224821,0,0,0,0,0,0.5350799560546875
1.705224734,0,0,0,0,0,0.305759996175766
1.706224646,0,0,0,0,0,0
1.707225893,0,0,0,0,0,-0.2293200045824051
1.708224287,0,0,0,0,0,0
1.709224718,0,0,0,0,0,0
1.71022489,0,0,0,0,0,0.305759996175766
1.711225877,0,0,0,0,0,1.452359914779663
1.7122245120000001,0,0,0,0,0,0.8408399820327759
1.713224796,0,0,0,0,0,0.9172800183296204
1.714224764,0,0,0,0,0,0.5350799560546875
1.715234769,0,0,0,0,0,-0.3822000026702881
1.7162263119999999,0,0,0,0,0,-0.305759996175766
1.717225484,0,0,0,0,0,0
1.718225527,0,0,0,0,0,0
1.719226088,0,0,0,0,0,0.9937199950218201
1.720225445,0,0,0,0,0,0.611519992351532
1.721225395,0,0,0,0,0,1.1466000080108643
1.7222250479999999,0,0,0,0,0,0.611519992351532
1.723225943,0,0,0,0,0,-0.2293200045824051
1.7242261330000002,0,0,0,0,0,-0.7644000053405762
1.7252277679999999,0,0,0,0,0,-0.5350799560546875
1.726225496,0,0,0,0,0,-0.152879998087883
1.727223853,0,0,0,0,0,0
1.728222711,0,0,0,0,0,1.223039984703064
1.729222457,0,0,0,0,0,0.9172800183296204
1.730222036,0,0,0,0,0,0.7644000053405762
1.731229875,0,0,0,0,0,0.305759996175766
1.732225584,0,0,0,0,0,-0.305759996175766
1.733225368,0,0,0,0,0,0
1.734283317,0,0,0,0,0,0.2293200045824051
1.735272674,0,0,0,0,0,0.7644000053405762
1.736291883,0,0,0,0,0,0.8408399820327759
1.737247685,0,0,0,0,0,0.5350799560546875
1.738253339,0,0,0,0,0,0.4586400091648102
1.739248437,0,0,0,0,0,0.2293200045824051
1.740228109,0,0,0,0,0,0
1.7412266330000001,0,0,0,0,0,0.4586400091648102
1.7422254719999999,0,0,0,0,0,0.0764399990439415
1.743225367,0,0,0,0,0,0.0764399990439415
1.7442252790000001,0,0,0,0,0,0.5350799560546875
1.745225396,0,0,0,0,0,0.9937199950218201
1.746225179,0,0,0,0,0,0.5350799560546875
1.747226703,0,0,0,0,0,0.7644000053405762
1.748224949,0,0,0,0,0,0
1.7492252879999999,0,0,0,0,0,0
1.750225312,0,0,0,0,0,0.305759996175766
1.751225818,0,0,0,0,0,0
1.752225082,0,0,0,0,0,0.9937199950218201
1.7532390690000001,0,0,0,0,0,0
1.754225871,0,0,0,0,0,0
1.755226358,0,0,0,0,0,-0.152879998087883
1.756225326,0,0,0,0,0,-0.305759996175766
1.7572252210000001,0,0,0,0,0,0
1.758225226,0,0,0,0,0,0
1.759226269,0,0,0,0,0,0.305759996175766
1.760225144,0,0,0,0,0,1.1466000080108643
1.761225372,0,0,0,0,0,1.1466000080108643
1.762225415,0,0,0,0,0,1.1466000080108643
1.7632263460000002,0,0,0,0,0,1.5288000106811523
1.7642252219999999,0,0,0,0,0,0.5350799560546875
1.765225283,0,0,0,0,0,0.4586400091648102
1.76622514,0,0,0,0,0,0.3822000026702881
1.7672251829999999,0,0,0,0,0,-0.3822000026702881
1.768225466,0,0,0,0,0,0
1.769224897,0,0,0,0,0,-0.152879998087883
1.770225291,0,0,0,0,0,-0.2293200045824051
1.7712322230000002,0,0,0,0,0,0
1.772225654,0,0,0,0,0,-0.305759996175766
1.773224845,0,0,0,0,0,-0.305759996175766
1.774225295,0,0,0,0,0,0.305759996175766
1.775225411,0,0,0,0,0,-0.152879998087883
1.776225269,0,0,0,0,0,0.9172800183296204
1.777225367,0,0,0,0,0,1.1466000080108643
1.778225298,0,0,0,0,0,1.375920057296753
1.779226452,0,0,0,0,0,1.6816799640655518
1.78022529,0,0,0,0,0,1.070159912109375
1.781225018,0,0,0,0,0,0.4586400091648102
1.7822251900000001,0,0,0,0,0,-0.305759996175766
1.78322477,0,0,0,0,0,0
1.7842224230000001,0,0,0,0,0,-0.2293200045824051
1.785222503,0,0,0,0,0,-0.2293200045824051
1.786222545,0,0,0,0,0,-0.5350799560546875
1.787225829,0,0,0,0,0,0.0764399990439415
1.7882248710000002,0,0,0,0,0,0
1.7892248579999999,0,0,0,0,0,-0.6879600286483765
1.7902246229999998,0,0,0,0,0,0.5350799560546875
1.7912254060000001,0,0,0,0,0,0.7644000053405762
1.792224634,0,0,0,0,0,0.4586400091648102
1.79322488,0,0,0,0,0,1.605239987373352
1.7942242369999999,0,0,0,0,0,1.070159912109375
1.79522528,0,0,0,0,0,0.5350799560546875
1.796224859,0,0,0,0,0,0.3822000026702881
1.797224753,0,0,0,0,0,0.9937199950218201
1.798224629,0,0,0,0,0,0
1.799225616,0,0,0,0,0,-0.2293200045824051
1.8002248619999999,0,0,0,0,0,0.9937199950218201
1.801224812,0,0,0,0,0,-0.152879998087883
1.80222467,0,0,0,0,0,0.7644000053405762
1.803225453,0,0,0,0,0,0.8408399820327759
1.8042247919999999,0,0,0,0,0,-0.4586400091648102
1.805224779,0,0,0,0,0,0.2293200045824051
1.806224506,0,0,0,0,0,1.375920057296753
1.807225715,0,0,0,0,0,-1.070159912109375
1.808224702,0,0,0,0,0,0.152879998087883
1.8092246520000002,0,0,0,0,0,1.5288000106811523
1.810224676,0,0,0,0,0,-0.7644000053405762
1.811900654,0,0,0,0,0,0.611519992351532
1.812311797,0,0,0,0,0,1.070159912109375
1.81335208,0,0,0,0,0,-0.152879998087883
1.81455536,0,0,0,0,0,1.9109998941421509
1.815248629,0,0,0,0,0,0.9172800183296204
1.816294319,0,0,0,0,0,-0.305759996175766
1.8173172690000001,0,0,0,0,0,1.758120059967041
1.818346718,0,0,0,0,0,-0.5350799560546875
1.819300798,0,0,0,0,0,-0.611519992351532
1.8203005810000001,0,0,0,0,0,0
1.821280458,0,0,0,0,0,-1.5288000106811523
1.8223027219999999,0,0,0,0,0,-0.611519992351532
1.823274746,0,0,0,0,0,0
1.824304677,0,0,0,0,0,1.223039984703064
1.825315201,0,0,0,0,0,1.5288000106811523
1.826334503,0,0,0,0,0,0.9937199950218201
1.827325953,0,0,0,0,0,2.2167599201202393
1.82831381,0,0,0,0,0,0.2293200045824051
1.829286723,0,0,0,0,0,-0.4586400091648102
1.8303543759999998,0,0,0,0,0,0.2293200045824051
1.83130503,0,0,0,0,0,-1.6816799640655518
1.832275925,0,0,0,0,0,1.605239987373352
1.8332845039999999,0,0,0,0,0,0.3822000026702881
1.834282714,0,0,0,0,0,1.9109998941421509
1.8353286629999999,0,0,0,0,0,2.828279972076416
1.83628941,0,0,0,0,0,0.611519992351532
1.8372815820000001,0,0,0,0,0,2.6754000186920166
1.838247162,0,0,0,0,0,0
1.839254037,0,0,0,0,0,0
1.84024645,0,0,0,0,0,-0.6879600286483765
1.841227919,0,0,0,0,0,-0.5350799560546875
1.8422247760000001,0,0,0,0,0,0.9937199950218201
1.843227486,0,0,0,0,0,-0.4586400091648102
1.8442406199999999,0,0,0,0,0,1.9874399900436401
1.845227071,0,0,0,0,0,2.2932000160217285
1.846225983,0,0,0,0,0,1.375920057296753
1.8472742659999999,0,0,0,0,0,2.522519826889038
1.848283049,0,0,0,0,0,-0.305759996175766
1.849252925,0,0,0,0,0,0.3822000026702881
1.850280838,0,0,0,0,0,-0.9937199950218201
1.851250844,0,0,0,0,0,-0.2293200045824051
1.852242608,0,0,0,0,0,0.0764399990439415
1.853244466,0,0,0,0,0,0.5350799560546875
1.854297656,0,0,0,0,0,2.446079969406128
1.855271699,0,0,0,0,0,1.375920057296753
1.856293259,0,0,0,0,0,3.2869198322296143
1.857255099,0,0,0,0,0,2.06387996673584
1.858252437,0,0,0,0,0,0
1.859281368,0,0,0,0,0,-0.305759996175766
1.8602559300000001,0,0,0,0,0,-0.9937199950218201
1.8612508060000001,0,0,0,0,0,0.6879600286483765
1.862247274,0,0,0,0,0,-0.5350799560546875
1.863249113,0,0,0,0,0,1.5288000106811523
1.864263285,0,0,0,0,0,2.446079969406128
1.865262105,0,0,0,0,0,1.5288000106811523
1.866305925,0,0,0,0,0,3.134040117263794
1.867261579,0,0,0,0,0,0.4586400091648102
1.868249788,0,0,0,0,0,0.4586400091648102
1.869244868,0,0,0,0,0,-0.0764399990439415
1.8702485580000001,0,0,0,0,0,-0.5350799560546875
1.8712448419999999,0,0,0,0,0,0.3822000026702881
1.872242755,0,0,0,0,0,-0.3822000026702881
1.873247241,0,0,0,0,0,2.446079969406128
1.874248006,0,0,0,0,0,1.375920057296753
1.875255271,0,0,0,0,0,2.904719829559326
1.876243036,0,0,0,0,0,2.2167599201202393
1.877242393,0,0,0,0,0,0
1.878247435,0,0,0,0,0,0.611519992351532
1.8792454589999998,0,0,0,0,0,-0.9937199950218201
1.880252798,0,0,0,0,0,0.5350799560546875
1.881385024,0,0,0,0,0,-0.9172800183296204
1.882251846,0,0,0,0,0,1.2994799613952637
1.883285666,0,0,0,0,0,1.9109998941421509
1.8842722269999999,0,0,0,0,0,1.070159912109375
1.885260881,0,0,0,0,0,3.0576000213623047
1.8862986259999999,0,0,0,0,0,1.375920057296753
1.887250077,0,0,0,0,0,0.611519992351532
1.8882593970000001,0,0,0,0,0,0.305759996175766
1.8892524769999999,0,0,0,0,0,-0.9172800183296204
1.890248667,0,0,0,0,0,0.4586400091648102
1.891255321,0,0,0,0,0,-0.9937199950218201
1.8922499,0,0,0,0,0,1.9109998941421509
1.893247591,0,0,0,0,0,1.452359914779663
1.89424456,0,0,0,0,0,2.522519826889038
1.8952472500000002,0,0,0,0,0,2.6754000186920166
1.8962424960000002,0,0,0,0,0,0.305759996175766
1.897242724,0,0,0,0,0,1.070159912109375
1.898237156,0,0,0,0,0,-0.7644000053405762
1.899258068,0,0,0,0,0,0
1.9002848700000001,0,0,0,0,0,-0.7644000053405762
1.90127682,0,0,0,0,0,1.758120059967041
1.9029777970000001,0,0,0,0,0,2.5989599227905273
1.903255738,0,0,0,0,0,1.2994799613952637
1.904412038,0,0,0,0,0,3.3633599281311035
1.905299008,0,0,0,0,0,1.758120059967041
1.906622602,0,0,0,0,0,0.6879600286483765
1.907285334,0,0,0,0,0,0.7644000053405762
1.908256469,0,0,0,0,0,-0.5350799560546875
1.9092930670000001,0,0,0,0,0,0
1.910341294,0,0,0,0,0,-0.5350799560546875
1.91127043,0,0,0,0,0,0.611519992351532
1.9123209719999998,0,0,0,0,0,1.452359914779663
1.9133057359999999,0,0,0,0,0,1.070159912109375
1.914440444,0,0,0,0,0,2.751840114593506
1.915359821,0,0,0,0,0,0.7644000053405762
1.916324178,0,0,0,0,0,0.9937199950218201
1.9172705730000001,0,0,0,0,0,0
1.9182891340000001,0,0,0,0,0,0.0764399990439415
1.9192784729999999,0,0,0,0,0,0.3822000026702881
1.920291793,0,0,0,0,0,-0.305759996175766
1.921288836,0,0,0,0,0,2.2167599201202393
1.922310971,0,0,0,0,0,1.1466000080108643
1.923265217,0,0,0,0,0,2.446079969406128
1.92423639,0,0,0,0,0,2.751840114593506
1.925247599,0,0,0,0,0,0
1.9263656770000002,0,0,0,0,0,0.3822000026702881
1.9274299959999999,0,0,0,0,0,-0.9937199950218201
1.928253782,0,0,0,0,0,0.5350799560546875
1.929231658,0,0,0,0,0,-0.6879600286483765
1.930225941,0,0,0,0,0,0.6879600286483765
1.931226576,0,0,0,0,0,2.3696401119232178
1.932226563,0,0,0,0,0,1.1466000080108643
1.9332251980000001,0,0,0,0,0,3.6691200733184814
1.934225685,0,0,0,0,0,2.06387996673584
1.935228672,0,0,0,0,0,1.1466000080108643
1.9362259370000001,0,0,0,0,0,0.9172800183296204
1.9372262199999999,0,0,0,0,0,-0.6879600286483765
1.9382255590000002,0,0,0,0,0,-0.4586400091648102
1.939230416,0,0,0,0,0,-0.6879600286483765
1.940225181,0,0,0,0,0,1.452359914779663
1.941226038,0,0,0,0,0,0.6879600286483765
1.942226488,0,0,0,0,0,1.605239987373352
1.943232012,0,0,0,0,0,3.0576000213623047
1.944228332,0,0,0,0,0,0.152879998087883
1.945235375,0,0,0,0,0,0.9937199950218201
1.9462283249999999,0,0,0,0,0,-0.152879998087883
1.947227904,0,0,0,0,0,-0.6879600286483765
1.9482251320000001,0,0,0,0,0,0
1.949224952,0,0,0,0,0,0.152879998087883
1.9502272349999998,0,0,0,0,0,2.06387996673584
1.951233667,0,0,0,0,0,1.223039984703064
1.952250931,0,0,0,0,0,2.828279972076416
1.9532582509999998,0,0,0,0,0,2.06387996673584
1.954382089,0,0,0,0,0,0.6879600286483765
1.955283836,0,0,0,0,0,1.605239987373352
1.956248768,0,0,0,0,0,-0.152879998087883
1.957227533,0,0,0,0,0,0.4586400091648102
1.95822252,0,0,0,0,0,-0.305759996175766
1.9592257100000001,0,0,0,0,0,0.7644000053405762
1.960222549,0,0,0,0,0,0.9937199950218201
1.961222388,0,0,0,0,0,1.452359914779663
1.9622223380000001,0,0,0,0,0,2.9811599254608154
1.963222695,0,0,0,0,0,0.0764399990439415
1.964221886,0,0,0,0,0,1.2994799613952637
1.965222336,0,0,0,0,0,-0.152879998087883
1.966232526,0,0,0,0,0,-0.611519992351532
1.967223069,0,0,0,0,0,0.2293200045824051
1.968222482,0,0,0,0,0,0
1.9692227089999998,0,0,0,0,0,1.758120059967041
1.97022227,0,0,0,0,0,1.1466000080108643
1.971224942,0,0,0,0,0,1.6816799640655518
1.972222522,0,0,0,0,0,1.6816799640655518
1.9732223420000001,0,0,0,0,0,0
1.974222366,0,0,0,0,0,1.223039984703064
1.975223094,0,0,0,0,0,0.0764399990439415
1.976222544,0,0,0,0,0,0.6879600286483765
1.977222957,0,0,0,0,0,0.305759996175766
1.9782222950000001,0,0,0,0,0,0.9937199950218201
1.9792224489999999,0,0,0,0,0,1.605239987373352
1.980222269,0,0,0,0,0,0.611519992351532
1.981222349,0,0,0,0,0,3.0576000213623047
1.9822223540000001,0,0,0,0,0,0.7644000053405762
1.9832243969999999,0,0,0,0,0,0.9172800183296204
1.984222476,0,0,0,0,0,0.3822000026702881
1.985221871,0,0,0,0,0,-0.6879600286483765
1.9862224689999999,0,0,0,0,0,0.4586400091648102
1.9872226039999998,0,0,0,0,0,0.0764399990439415
1.988222239,0,0,0,0,0,1.375920057296753
1.989221911,0,0,0,0,0,0.7644000053405762
1.9902223239999999,0,0,0,0,0,0.611519992351532
1.9912227919999999,0,0,0,0,0,2.446079969406128
1.99222239,0,0,0,0,0,-0.5350799560546875
1.993222303,0,0,0,0,0,1.452359914779663
1.9942223829999999,0,0,0,0,0,0
1.995223129,0,0,0,0,0,0.611519992351532
1.9962223749999999,0,0,0,0,0,0.3822000026702881
1.997222399,0,0,0,0,0,0.9172800183296204
1.998222201,0,0,0,0,0,2.522519826889038
1.9992227059999998,0,0,0,0,0,0.611519992351532
2.000222471,0,0,0,0,0,3.0576000213623047
2.001222365,0,0,0,0,0,1.452359914779663
2.00222213,0,0,0,0,0,0.0764399990439415
2.003222469,0,0,0,0,0,0.9172800183296204
2.0042224,0,0,0,0,0,-0.5350799560546875
2.005222313,0,0,0,0,0,0.5350799560546875
2.006222522,0,0,0,0,0,0
2.007222879,0,0,0,0,0,1.5288000106811523
2.008222403,0,0,0,0,0,1.1466000080108643
2.009237649,0,0,0,0,0,0.7644000053405762
2.010222692,0,0,0,0,0,2.06387996673584
2.011272067,0,0,0,0,0,-0.6879600286483765
2.012222777,0,0,0,0,0,0.611519992351532
2.013222597,0,0,0,0,0,0.305759996175766
2.014222529,0,0,0,0,0,-0.9172800183296204
2.015237015,0,0,0,0,0,0.9172800183296204
2.016226465,0,0,0,0,0,0
2.017225508,0,0,0,0,0,2.14031982421875
2.018225254,0,0,0,0,0,1.070159912109375
2.019225463,0,0,0,0,0,2.751840114593506
2.020225191,0,0,0,0,0,1.9109998941421509
2.021225326,0,0,0,0,0,0.0764399990439415
2.022225313,0,0,0,0,0,0.6879600286483765
2.023223911,0,0,0,0,0,-0.611519992351532
2.024222435,0,0,0,0,0,0.9172800183296204
2.025222515,0,0,0,0,0,0.5350799560546875
2.026222613,0,0,0,0,0,0.9172800183296204
2.027226414,0,0,0,0,0,2.14031982421875
2.02822529,0,0,0,0,0,0.9937199950218201
2.029225147,0,0,0,0,0,2.751840114593506
2.030225042,0,0,0,0,0,0
2.031226251,0,0,0,0,0,0.0764399990439415
2.032224682,0,0,0,0,0,-0.2293200045824051
2.033225391,0,0,0,0,0,-1.375920057296753
2.034225193,0,0,0,0,0,0.8408399820327759
2.035226384,0,0,0,0,0,0.152879998087883
2.036225334,0,0,0,0,0,1.8345600366592407
2.037225191,0,0,0,0,0,1.6816799640655518
2.038225178,0,0,0,0,0,1.8345600366592407
2.039224554,0,0,0,0,0,2.5989599227905273
2.040222485,0,0,0,0,0,-0.4586400091648102
2.041222509,0,0,0,0,0,1.070159912109375
2.042222496,0,0,0,0,0,-0.3822000026702881
2.043225983,0,0,0,0,0,0.611519992351532
2.044225174,0,0,0,0,0,0.611519992351532
2.045224883,0,0,0,0,0,0.6879600286483765
2.046225055,0,0,0,0,0,2.446079969406128
2.047226116,0,0,0,0,0,0.8408399820327759
2.04822464,0,0,0,0,0,2.446079969406128
2.04934544,0,0,0,0,0,1.2994799613952637
2.050228521,0,0,0,0,0,-0.611519992351532
2.051226267,0,0,0,0,0,0.4586400091648102
2.052224717,0,0,0,0,0,-0.9937199950218201
2.053224686,0,0,0,0,0,0.8408399820327759
2.054224487,0,0,0,0,0,0.152879998087883
2.055225974,0,0,0,0,0,1.1466000080108643
2.056224887,0,0,0,0,0,1.452359914779663
2.057225078,0,0,0,0,0,1.452359914779663
2.058224824,0,0,0,0,0,2.3696401119232178
2.059225996,0,0,0,0,0,0
2.060224816,0,0,0,0,0,0.152879998087883
2.061224803,0,0,0,0,0,-0.7644000053405762
2.06222492,0,0,0,0,0,8.637720108032227
2.063225833,0,0,0,0,0,0.5350799560546875
2.064224875,0,0,0,0,0,0.6879600286483765
2.065224751,0,0,0,0,0,2.5989599227905273
2.066224794,0,0,0,0,0,1.8345600366592407
2.067225929,0,0,0,0,0,3.134040117263794
2.068224545,0,0,0,0,0,2.522519826889038
2.069224977,0,0,0,0,0,0.152879998087883
2.070224926,0,0,0,0,0,1.070159912109375
2.07122571,0,0,0,0,0,-0.8408399820327759
2.07246149,0,0,0,0,0,0
2.073250998,0,0,0,0,0,0
2.074234911,0,0,0,0,0,1.605239987373352
2.075253787,0,0,0,0,0,2.06387996673584
2.076892339,0,0,0,0,0,2.06387996673584
2.077232668,0,0,0,0,0,2.904719829559326
2.07825097,0,0,0,0,0,-0.611519992351532
2.079678581,0,0,0,0,0,0
2.0807734,0,0,0,0,0,-1.1466000080108643
2.081271523,0,0,0,0,0,-1.6816799640655518
2.082252214,0,0,0,0,0,0.2293200045824051
2.083283682,0,0,0,0,0,-0.3822000026702881
2.084265817,0,0,0,0,0,2.751840114593506
2.085285841,0,0,0,0,0,1.9874399900436401
2.086283624,0,0,0,0,0,2.9811599254608154
2.087258759,0,0,0,0,0,2.6754000186920166
2.088249265,0,0,0,0,0,0
2.089380028,0,0,0,0,0,0.2293200045824051
2.09050318,0,0,0,0,0,-1.2994799613952637
2.091226856,0,0,0,0,0,-0.611519992351532
2.092223361,0,0,0,0,0,0.0764399990439415
2.093222441,0,0,0,0,0,0.5350799560546875
2.094222798,0,0,0,0,0,2.522519826889038
2.095223248,0,0,0,0,0,1.9874399900436401
2.096222457,0,0,0,0,0,2.751840114593506
2.09722187,0,0,0,0,0,-8.637720108032227
2.098518446,0,0,0,0,0,0.0764399990439415
2.099373657,0,0,0,0,0,-0.3822000026702881
2.100223812,0,0,0,0,0,-1.375920057296753
2.101223318,0,0,0,0,0,0.0764399990439415
2.102222508,0,0,0,0,0,-0.3822000026702881
2.103223143,0,0,0,0,0,1.9109998941421509
2.104222408,0,0,0,0,0,2.446079969406128
2.105222247,0,0,0,0,0,2.06387996673584
2.106222567,0,0,0,0,0,3.516240119934082
2.107224017,0,0,0,0,0,0.9172800183296204
2.108222485,0,0,0,0,0,1.1466000080108643
2.109222306,0,0,0,0,0,-1.223039984703064
2.110222496,0,0,0,0,0,-1.070159912109375
2.111234668,0,0,0,0,0,0.4586400091648102
2.112223063,0,0,0,0,0,-0.2293200045824051
2.11322242,0,0,0,0,0,2.446079969406128
2.114222259,0,0,0,0,0,1.452359914779663
2.11523032,0,0,0,0,0,2.522519826889038
2.116223177,0,0,0,0,0,2.3696401119232178
2.117222386,0,0,0,0,0,0.0764399990439415
2.118222095,0,0,0,0,0,1.070159912109375
2.119225916,0,0,0,0,0,-1.223039984703064
2.120224606,0,0,0,0,0,0.3822000026702881
2.121222945,0,0,0,0,0,-0.305759996175766
2.122222302,0,0,0,0,0,1.070159912109375
2.123229104,0,0,0,0,0,1.9874399900436401
2.124223091,0,0,0,0,0,1.070159912109375
2.125222374,0,0,0,0,0,2.751840114593506
2.126224658,0,0,0,0,0,1.1466000080108643
2.127224274,0,0,0,0,0,0.305759996175766
2.128222317,0,0,0,0,0,0.5350799560546875
2.129222359,0,0,0,0,0,-1.223039984703064
2.130222253,0,0,0,0,0,1.070159912109375
2.13122287,0,0,0,0,0,-0.4586400091648102
2.132222561,0,0,0,0,0,1.9874399900436401
2.133222455,0,0,0,0,0,1.6816799640655518
2.134222183,0,0,0,0,0,1.8345600366592407
2.13522391,0,0,0,0,0,2.522519826889038
2.136222731,0,0,0,0,0,0.305759996175766
2.137222421,0,0,0,0,0,1.605239987373352
2.138222464,0,0,0,0,0,-0.5350799560546875
2.139223395,0,0,0,0,0,-0.4586400091648102
2.140222123,0,0,0,0,0,-0.152879998087883
2.14122261,0,0,0,0,0,0
2.142222745,0,0,0,0,0,1.8345600366592407
2.143227009,0,0,0,0,0,1.070159912109375
2.144225237,0,0,0,0,0,2.828279972076416
2.145225298,0,0,0,0,0,1.5288000106811523
2.146225378,0,0,0,0,0,0.9172800183296204
2.147223735,0,0,0,0,0,1.605239987373352
2.148222426,0,0,0,0,0,-0.3822000026702881
2.149222579,0,0,0,0,0,1.223039984703064
2.150222474,0,0,0,0,0,1.2994799613952637
2.152056227,0,0,0,0,0,1.2994799613952637
2.152225873,0,0,0,0,0,2.522519826889038
2.153249767,0,0,0,0,0,2.5989599227905273
2.154225088,0,0,0,0,0,3.592679977416992
2.15522989,0,0,0,0,0,1.223039984703064
2.156225321,0,0,0,0,0,1.605239987373352
2.157225215,0,0,0,0,0,0.7644000053405762
2.158224313,0,0,0,0,0,-0.5350799560546875
2.159226189,0,0,0,0,0,1.2994799613952637
2.160224769,0,0,0,0,0,0.0764399990439415
2.161224404,0,0,0,0,0,1.1466000080108643
2.162224465,0,0,0,0,0,2.2932000160217285
2.163225452,0,0,0,0,0,1.223039984703064
2.164224198,0,0,0,0,0,2.6754000186920166
2.165381479,0,0,0,0,0,0.5350799560546875
2.166225561,0,0,0,0,0,0.7644000053405762
2.167226622,0,0,0,0,0,1.5288000106811523
2.168225035,0,0,0,0,0,0
2.169266965,0,0,0,0,0,2.14031982421875
2.170294508,0,0,0,0,0,1.758120059967041
2.171228069,0,0,0,0,0,0.9172800183296204
2.172225353,0,0,0,0,0,2.2932000160217285
2.173224988,0,0,0,0,0,1.223039984703064
2.174225067,0,0,0,0,0,1.758120059967041
2.175226091,0,0,0,0,0,2.446079969406128
2.176224745,0,0,0,0,0,1.2994799613952637
2.177224806,0,0,0,0,0,1.223039984703064
2.178224737,0,0,0,0,0,0.611519992351532
2.179226002,0,0,0,0,0,0.611519992351532
2.180224915,0,0,0,0,0,0.2293200045824051
2.181224791,0,0,0,0,0,0.305759996175766
2.18222487,0,0,0,0,0,0.611519992351532
2.183543353,0,0,0,0,0,0.4586400091648102
2.184227251,0,0,0,0,0,1.8345600366592407
2.18522609,0,0,0,0,0,2.5989599227905273
2.186240595,0,0,0,0,0,1.223039984703064
2.187228434,0,0,0,0,0,2.522519826889038
2.18822557,0,0,0,0,0,1.375920057296753
2.189225408,0,0,0,0,0,1.1466000080108643
2.19022534,0,0,0,0,0,2.14031982421875
2.191226327,0,0,0,0,0,1.6816799640655518
2.192225369,0,0,0,0,0,0.3822000026702881
2.193225115,0,0,0,0,0,1.9109998941421509
2.194224954,0,0,0,0,0,1.2994799613952637
2.195224682,0,0,0,0,0,0.305759996175766
2.196222502,0,0,0,0,0,1.5288000106811523
2.197222415,0,0,0,0,0,1.223039984703064
2.198222439,0,0,0,0,0,0.6879600286483765
2.199226278,0,0,0,0,0,1.1466000080108643
2.200225246,0,0,0,0,0,1.605239987373352
2.201224752,0,0,0,0,0,1.070159912109375
2.202225387,0,0,0,0,0,1.452359914779663
2.203471,0,0,0,0,0,1.605239987373352
2.20422836,0,0,0,0,0,1.9874399900436401
2.205225107,0,0,0,0,0,1.605239987373352
2.206225186,0,0,0,0,0,1.605239987373352
2.207226118,0,0,0,0,0,1.8345600366592407
2.20822503,0,0,0,0,0,1.375920057296753
2.209225017,0,0,0,0,0,0.9937199950218201
2.210225041,0,0,0,0,0,0.7644000053405762
2.2112255100000002,0,0,0,0,0,1.2994799613952637
2.212224737,0,0,0,0,0,1.1466000080108643
2.213224854,0,0,0,0,0,1.2994799613952637
2.214224952,0,0,0,0,0,1.9109998941421509
2.215230717,0,0,0,0,0,1.8345600366592407
2.216223611,0,0,0,0,0,1.5288000106811523
2.217222728,0,0,0,0,0,1.070159912109375
2.218222418,0,0,0,0,0,1.2994799613952637
2.219226387,0,0,0,0,0,1.375920057296753
2.2202253,0,0,0,0,0,1.6816799640655518
2.221338174,0,0,0,0,0,1.223039984703064
2.222226144,0,0,0,0,0,1.2994799613952637
2.223323963,0,0,0,0,0,1.2994799613952637
2.224227469,0,0,0,0,0,0.9937199950218201
2.225225697,0,0,0,0,0,0.8408399820327759
2.226224814,0,0,0,0,0,0.9937199950218201
2.227226338,0,0,0,0,0,0.7644000053405762
2.228225269,0,0,0,0,0,1.375920057296753
2.229225293,0,0,0,0,0,2.06387996673584
2.230225132,0,0,0,0,0,1.223039984703064
2.231226341,0,0,0,0,0,2.06387996673584
2.232225309,0,0,0,0,0,1.452359914779663
2.233225241,0,0,0,0,0,1.452359914779663
2.234225283,0,0,0,0,0,1.6816799640655518
2.235223955,0,0,0,0,0,0.9172800183296204
2.236222442,0,0,0,0,0,1.758120059967041
2.23722267,0,0,0,0,0,1.9874399900436401
2.23822262,0,0,0,0,0,1.452359914779663
2.239225996,0,0,0,0,0,1.8345600366592407
2.240225038,0,0,0,0,0,1.1466000080108643
2.241224895,0,0,0,0,0,0.7644000053405762
2.242224919,0,0,0,0,0,0.8408399820327759
2.243226036,0,0,0,0,0,0.611519992351532
2.244225153,0,0,0,0,0,0.8408399820327759
2.245224899,0,0,0,0,0,0.611519992351532
2.246224978,0,0,0,0,0,1.2994799613952637
2.24722691,0,0,0,0,0,1.5288000106811523
2.248224397,0,0,0,0,0,1.758120059967041
2.249224883,0,0,0,0,0,2.14031982421875
2.250224926,0,0,0,0,0,1.8345600366592407
2.251224561,0,0,0,0,0,1.5288000106811523
2.252654098,0,0,0,0,0,1.5288000106811523
2.253226942,0,0,0,0,0,1.605239987373352
2.254226226,0,0,0,0,0,1.9874399900436401
2.255227416,0,0,0,0,0,1.6816799640655518
2.256225329,0,0,0,0,0,1.452359914779663
2.257234501,0,0,0,0,0,1.223039984703064
2.258226284,0,0,0,0,0,1.070159912109375
2.259225457,0,0,0,0,0,0.6879600286483765
2.260231369,0,0,0,0,0,0.9937199950218201
2.261225671,0,0,0,0,0,1.5288000106811523
2.262230491,0,0,0,0,0,1.1466000080108643
2.263226886,0,0,0,0,0,1.375920057296753
2.2642247429999998,0,0,0,0,0,1.223039984703064
2.26522486,0,0,0,0,0,0.8408399820327759
2.266235643,0,0,0,0,0,0.9172800183296204
2.267227296,0,0,0,0,0,0.7644000053405762
2.26822508,0,0,0,0,0,1.375920057296753
2.269224733,0,0,0,0,0,1.6816799640655518
2.270224442,0,0,0,0,0,1.8345600366592407
2.271226096,0,0,0,0,0,1.9874399900436401
2.272224842,0,0,0,0,0,1.9874399900436401
2.273224848,0,0,0,0,0,1.223039984703064
2.274224705,0,0,0,0,0,0.9937199950218201
2.275225877,0,0,0,0,0,0.9937199950218201
2.276224808,0,0,0,0,0,0.9937199950218201
2.277224721,0,0,0,0,0,1.605239987373352
2.278224838,0,0,0,0,0,2.06387996673584
2.279225714,0,0,0,0,0,2.06387996673584
2.280225219,0,0,0,0,0,2.06387996673584
2.281224725,0,0,0,0,0,1.2994799613952637
2.282241822,0,0,0,0,0,1.1466000080108643
2.283226569,0,0,0,0,0,1.070159912109375
2.284225148,0,0,0,0,0,0.5350799560546875
2.285224987,0,0,0,0,0,0.9172800183296204
2.28622477,0,0,0,0,0,1.452359914779663
2.287248201,0,0,0,0,0,1.2994799613952637
2.2882932990000002,0,0,0,0,0,1.758120059967041
2.289258916,0,0,0,0,0,1.8345600366592407
2.290551436,0,0,0,0,0,1.605239987373352
2.291235205,0,0,0,0,0,1.758120059967041
2.292229822,0,0,0,0,0,1.2994799613952637
2.293225697,0,0,0,0,0,1.223039984703064
2.294225388,0,0,0,0,0,1.223039984703064
2.295224042,0,0,0,0,0,1.2994799613952637
2.2962225099999998,0,0,0,0,0,1.375920057296753
2.297222719,0,0,0,0,0,1.375920057296753
2.298222558,0,0,0,0,0,1.375920057296753
2.299226119,0,0,0,0,0,1.2994799613952637
2.300225161,0,0,0,0,0,1.223039984703064
2.30122513,0,0,0,0,0,1.223039984703064
2.302225098,0,0,0,0,0,1.223039984703064
2.303224882,0,0,0,0,0,0.611519992351532
2.304224943,0,0,0,0,0,1.223039984703064
2.305225078,0,0,0,0,0,1.1466000080108643
2.306224861,0,0,0,0,0,0.9172800183296204
2.307226514,0,0,0,0,0,1.605239987373352
2.308225112,0,0,0,0,0,1.452359914779663
2.30922447,0,0,0,0,0,1.452359914779663
2.310224846,0,0,0,0,0,1.758120059967041
2.311226129,0,0,0,0,0,0.8408399820327759
2.3122245599999998,0,0,0,0,0,1.2994799613952637
2.313224251,0,0,0,0,0,1.452359914779663
2.314225016,0,0,0,0,0,1.070159912109375
2.3152347620000002,0,0,0,0,0,1.6816799640655518
2.316225952,0,0,0,0,0,1.452359914779663
2.317225273,0,0,0,0,0,0.9937199950218201
2.31846146,0,0,0,0,0,1.1466000080108643
2.319225913,0,0,0,0,0,1.070159912109375
2.320225382,0,0,0,0,0,1.223039984703064
2.321225276,0,0,0,0,0,0.7644000053405762
2.322225263,0,0,0,0,0,1.8345600366592407
2.323227379,0,0,0,0,0,1.605239987373352
2.324225977,0,0,0,0,0,2.3696401119232178
2.325225409,0,0,0,0,0,1.452359914779663
2.326227785,0,0,0,0,0,1.605239987373352
2.327226512,0,0,0,0,0,1.5288000106811523
2.328225536,0,0,0,0,0,1.223039984703064
2.329225357,0,0,0,0,0,1.6816799640655518
2.330225029,0,0,0,0,0,1.1466000080108643
2.33122346,0,0,0,0,0,1.5288000106811523
2.332222706,0,0,0,0,0,1.6816799640655518
2.333222508,0,0,0,0,0,0.9937199950218201
2.33422218,0,0,0,0,0,1.758120059967041
2.33522313,0,0,0,0,0,0.9172800183296204
2.33622271,0,0,0,0,0,1.223039984703064
2.33722253,0,0,0,0,0,1.2994799613952637
2.338389015,0,0,0,0,0,0.6879600286483765
2.339226133,0,0,0,0,0,1.1466000080108643
2.340350785,0,0,0,0,0,1.452359914779663
2.3412231070000002,0,0,0,0,0,0.9937199950218201
2.342222594,0,0,0,0,0,1.5288000106811523
2.343226359,0,0,0,0,0,1.6816799640655518
2.34422542,0,0,0,0,0,1.8345600366592407
2.3452252590000002,0,0,0,0,0,1.8345600366592407
2.346225412,0,0,0,0,0,1.9874399900436401
2.347226325,0,0,0,0,0,1.605239987373352
2.348225442,0,0,0,0,0,1.605239987373352
2.3492252430000002,0,0,0,0,0,1.452359914779663
2.350225156,0,0,0,0,0,1.070159912109375
2.351224458,0,0,0,0,0,1.375920057296753
2.3522220750000002,0,0,0,0,0,1.1466000080108643
2.353222673,0,0,0,0,0,0.8408399820327759
2.35422253,0,0,0,0,0,1.2994799613952637
2.355226146,0,0,0,0,0,1.5288000106811523
2.356224837,0,0,0,0,0,1.6816799640655518
2.357225287,0,0,0,0,0,1.8345600366592407
2.358225441,0,0,0,0,0,1.6816799640655518
2.359226242,0,0,0,0,0,1.452359914779663
2.360225211,0,0,0,0,0,1.1466000080108643
2.3612252160000002,0,0,0,0,0,0.8408399820327759
2.36222524,0,0,0,0,0,0.9937199950218201
2.363226097,0,0,0,0,0,1.070159912109375
2.364225232,0,0,0,0,0,1.2994799613952637
2.365225219,0,0,0,0,0,1.605239987373352
2.366225151,0,0,0,0,0,1.452359914779663
2.367224786,0,0,0,0,0,1.605239987373352
2.368222402,0,0,0,0,0,1.2994799613952637
2.369222426,0,0,0,0,0,0.9172800183296204
2.370222506,0,0,0,0,0,0.7644000053405762
2.371226048,0,0,0,0,0,0.9937199950218201
2.372225091,0,0,0,0,0,1.375920057296753
2.373224967,0,0,0,0,0,2.06387996673584
2.374224268,0,0,0,0,0,2.14031982421875
2.375225904,0,0,0,0,0,2.2932000160217285
2.376224668,0,0,0,0,0,2.06387996673584
2.377224581,0,0,0,0,0,1.5288000106811523
2.378224531,0,0,0,0,0,1.070159912109375
2.379224981,0,0,0,0,0,1.223039984703064
2.380225153,0,0,0,0,0,0.9937199950218201
2.381224825,0,0,0,0,0,1.2994799613952637
2.382224608,0,0,0,0,0,1.452359914779663
2.383226243,0,0,0,0,0,1.452359914779663
2.384250063,0,0,0,0,0,0.9937199950218201
2.3852257359999998,0,0,0,0,0,1.223039984703064
2.386222667,0,0,0,0,0,1.223039984703064
2.387223673,0,0,0,0,0,1.2994799613952637
2.3882222889999998,0,0,0,0,0,1.452359914779663
2.38922248,0,0,0,0,0,1.223039984703064
2.3902223559999998,0,0,0,0,0,1.758120059967041
2.3912227870000002,0,0,0,0,0,1.223039984703064
2.392222274,0,0,0,0,0,0.6879600286483765
2.393222354,0,0,0,0,0,0.6879600286483765
2.3942222109999998,0,0,0,0,0,0.3822000026702881
2.395222976,0,0,0,0,0,1.2994799613952637
2.3962225,0,0,0,0,0,1.223039984703064
2.39722219,0,0,0,0,0,1.9109998941421509
2.398222288,0,0,0,0,0,2.446079969406128
2.399224775,0,0,0,0,0,1.1466000080108643
2.400224725,0,0,0,0,0,1.9874399900436401
2.401224286,0,0,0,0,0,1.223039984703064
2.402527584,0,0,0,0,0,1.1466000080108643
2.403257037,0,0,0,0,0,1.5288000106811523
2.40424158,0,0,0,0,0,1.223039984703064
2.405227641,0,0,0,0,0,2.14031982421875
2.406227035,0,0,0,0,0,1.605239987373352
2.4072324849999998,0,0,0,0,0,1.2994799613952637
2.408226657,0,0,0,0,0,1.8345600366592407
2.409226459,0,0,0,0,0,0.8408399820327759
2.410226576,0,0,0,0,0,0.305759996175766
2.411227544,0,0,0,0,0,1.223039984703064
2.412226457,0,0,0,0,0,0
2.413226574,0,0,0,0,0,1.223039984703064
2.414226412,0,0,0,0,0,1.375920057296753
2.415228529,0,0,0,0,0,1.758120059967041
2.416226183,0,0,0,0,0,1.9874399900436401
2.417226799,0,0,0,0,0,2.14031982421875
2.418226268,0,0,0,0,0,2.14031982421875
2.419227588,0,0,0,0,0,1.605239987373352
2.420226482,0,0,0,0,0,1.452359914779663
2.42122608,0,0,0,0,0,1.452359914779663
2.422226641,0,0,0,0,0,1.375920057296753
2.423227332,0,0,0,0,0,1.2994799613952637
2.424225985,0,0,0,0,0,1.5288000106811523
2.425226306,0,0,0,0,0,0.6879600286483765
2.426226385,0,0,0,0,0,0.2293200045824051
2.427227409,0,0,0,0,0,0.152879998087883
2.428226304,0,0,0,0,0,0.611519992351532
2.42922642,0,0,0,0,0,0.611519992351532
2.43022674,0,0,0,0,0,1.223039984703064
2.431227468,0,0,0,0,0,2.522519826889038
2.432226492,0,0,0,0,0,2.2932000160217285
2.433226534,0,0,0,0,0,2.14031982421875
2.434226262,0,0,0,0,0,1.9874399900436401
2.435227342,0,0,0,0,0,1.9109998941421509
2.43622644,0,0,0,0,0,1.070159912109375
2.437226501,0,0,0,0,0,1.2994799613952637
2.4382264510000002,0,0,0,0,0,1.9874399900436401
2.439227401,0,0,0,0,0,0.305759996175766
2.440226554,0,0,0,0,0,0.5350799560546875
2.441226411,0,0,0,0,0,1.605239987373352
2.442225972,0,0,0,0,0,0.4586400091648102
2.44322757,0,0,0,0,0,0.6879600286483765
2.444226576,0,0,0,0,0,1.8345600366592407
2.445226581,0,0,0,0,0,1.5288000106811523
2.446226013,0,0,0,0,0,1.1466000080108643
2.447227259,0,0,0,0,0,2.5989599227905273
2.448226524,0,0,0,0,0,1.5288000106811523
2.449226696,0,0,0,0,0,1.5288000106811523
2.450226553,0,0,0,0,0,1.9874399900436401
2.451227466,0,0,0,0,0,0.611519992351532
2.452226379,0,0,0,0,0,0.9937199950218201
2.453244328,0,0,0,0,0,2.14031982421875
2.454228334,0,0,0,0,0,0.5350799560546875
2.455227765,0,0,0,0,0,1.2994799613952637
2.456226493,0,0,0,0,0,2.2167599201202393
2.457226536,0,0,0,0,0,0.6879600286483765
2.458226541,0,0,0,0,0,0.9937199950218201
2.459227491,0,0,0,0,0,1.223039984703064
2.460226404,0,0,0,0,0,-0.2293200045824051
2.461226224,0,0,0,0,0,1.2994799613952637
2.462226415,0,0,0,0,0,0.5350799560546875
2.463227272,0,0,0,0,0,0.8408399820327759
2.464226037,0,0,0,0,0,1.758120059967041
2.465226524,0,0,0,0,0,1.223039984703064
2.466226659,0,0,0,0,0,1.8345600366592407
2.467226961,0,0,0,0,0,2.522519826889038
2.468226059,0,0,0,0,0,2.14031982421875
2.469226564,0,0,0,0,0,2.751840114593506
2.470226458,0,0,0,0,0,1.5288000106811523
2.471227279,0,0,0,0,0,2.06387996673584
2.472226506,0,0,0,0,0,1.375920057296753
2.473226067,0,0,0,0,0,0
2.4742262950000002,0,0,0,0,0,2.14031982421875
2.475227374,0,0,0,0,0,-0.611519992351532
2.476226473,0,0,0,0,0,0.9172800183296204
2.477226311,0,0,0,0,0,2.751840114593506
2.478226483,0,0,0,0,0,0.5350799560546875
2.479227211,0,0,0,0,0,2.828279972076416
2.48022655,0,0,0,0,0,1.9874399900436401
2.481226352,0,0,0,0,0,1.070159912109375
2.4822264130000002,0,0,0,0,0,0.611519992351532
2.483227233,0,0,0,0,0,-1.070159912109375
2.484226294,0,0,0,0,0,0
2.485226281,0,0,0,0,0,-1.2994799613952637
2.486231379,0,0,0,0,0,0.4586400091648102
2.4872280509999998,0,0,0,0,0,1.605239987373352
2.488226612,0,0,0,0,0,1.070159912109375
2.48922571,0,0,0,0,0,2.446079969406128
2.490226401,0,0,0,0,0,0.5350799560546875
2.491227221,0,0,0,0,0,0.7644000053405762
2.492226375,0,0,0,0,0,-9.707880020141602
2.493226306,0,0,0,0,0,0
2.49422633,0,0,0,0,0,-0.152879998087883
2.495227483,0,0,0,0,0,0
2.496226545,0,0,0,0,0,2.9811599254608154
2.497226254,0,0,0,0,0,1.8345600366592407
2.498226704,0,0,0,0,0,3.516240119934082
2.499227394,0,0,0,0,0,2.6754000186920166
2.5002264,0,0,0,0,0,1.223039984703064
2.501226387,0,0,0,0,0,1.375920057296753
2.502226392,0,0,0,0,0,-0.8408399820327759
2.503227194,0,0,0,0,0,0
2.504226607,0,0,0,0,0,-0.8408399820327759
2.5052267969999997,0,0,0,0,0,0.9937199950218201
2.50622634,0,0,0,0,0,1.8345600366592407
2.507227012,0,0,0,0,0,1.452359914779663
2.50822661,0,0,0,0,0,2.446079969406128
2.509226523,0,0,0,0,0,0.4586400091648102
2.510225973,0,0,0,0,0,0.0764399990439415
2.511227682,0,0,0,0,0,-0.152879998087883
2.512226669,0,0,0,0,0,-0.6879600286483765
2.513226341,0,0,0,0,0,0
2.51422642,0,0,0,0,0,-1.223039984703064
2.515227389,0,0,0,0,0,2.2167599201202393
2.516226413,0,0,0,0,0,0.9172800183296204
2.517226492,0,0,0,0,0,2.522519826889038
2.518226331,0,0,0,0,0,2.828279972076416
2.519227577,0,0,0,0,0,1.2994799613952637
2.52022636,0,0,0,0,0,2.2932000160217285
2.52122644,0,0,0,0,0,0
2.5222264450000003,0,0,0,0,0,0.305759996175766
2.523227266,0,0,0,0,0,0
2.5242263449999998,0,0,0,0,0,-0.305759996175766
2.525226425,0,0,0,0,0,1.9109998941421509
2.526228782,0,0,0,0,0,0.9172800183296204
2.527226917,0,0,0,0,0,2.904719829559326
2.528226978,0,0,0,0,0,1.375920057296753
2.529227724,0,0,0,0,0,1.223039984703064
2.530226415,0,0,0,0,0,0.2293200045824051
2.531226383,0,0,0,0,0,-1.452359914779663
2.532225944,0,0,0,0,0,-0.611519992351532
2.533226413,0,0,0,0,0,-1.8345600366592407
2.534227511,0,0,0,0,0,0.0764399990439415
2.535230109,0,0,0,0,0,1.223039984703064
2.538484455,0,0,0,0,0,2.446079969406128
2.538667657,0,0,0,0,0,2.446079969406128
2.538831951,0,0,0,0,0,1.452359914779663
2.539234168,0,0,0,0,0,1.8345600366592407
2.540357153,0,0,0,0,0,-0.305759996175766
2.5412659,0,0,0,0,0,0
2.54228422,0,0,0,0,0,-0.3822000026702881
2.543251504,0,0,0,0,0,-0.8408399820327759
2.544353971,0,0,0,0,0,1.9109998941421509
2.5452633479999998,0,0,0,0,0,2.06387996673584
2.546225169,0,0,0,0,0,2.3696401119232178
2.547228397,0,0,0,0,0,3.2869198322296143
2.548231383,0,0,0,0,0,1.6816799640655518
2.549226204,0,0,0,0,0,1.5288000106811523
2.550227061,0,0,0,0,0,-0.5350799560546875
2.551227048,0,0,0,0,0,-0.611519992351532
2.5522261459999998,0,0,0,0,0,-2.14031982421875
2.553226059,0,0,0,0,0,-0.5350799560546875
2.554226046,0,0,0,0,0,0.611519992351532
2.555225959,0,0,0,0,0,0.5350799560546875
2.5562257969999997,0,0,0,0,0,2.5989599227905273
2.557225784,0,0,0,0,0,1.070159912109375
2.55822579,0,0,0,0,0,1.452359914779663
2.559227147,0,0,0,0,0,0.7644000053405762
2.560225764,0,0,0,0,0,-0.305759996175766
2.561225899,0,0,0,0,0,0
2.562225867,0,0,0,0,0,-1.1466000080108643
2.563226169,0,0,0,0,0,1.605239987373352
2.564227045,0,0,0,0,0,1.6816799640655518
2.565225828,0,0,0,0,0,2.751840114593506
2.5662454439999998,0,0,0,0,0,3.0576000213623047
2.5672299130000003,0,0,0,0,0,0.9937199950218201
2.568226752,0,0,0,0,0,1.9874399900436401
2.569226276,0,0,0,0,0,0.2293200045824051
2.570225818,0,0,0,0,0,-0.4586400091648102
2.571227064,0,0,0,0,0,-0.152879998087883
2.572226459,0,0,0,0,0,0
2.57322639,0,0,0,0,0,1.2994799613952637
2.574226173,0,0,0,0,0,0.2293200045824051
2.575226271,0,0,0,0,0,2.6754000186920166
2.576226203,0,0,0,0,0,1.1466000080108643
2.577226375,0,0,0,0,0,1.070159912109375
2.578226121,0,0,0,0,0,0.9937199950218201
2.579226793,0,0,0,0,0,-0.611519992351532
2.5802260759999998,0,0,0,0,0,0.4586400091648102
2.581226434,0,0,0,0,0,-1.452359914779663
2.582226384,0,0,0,0,0,0
2.5832420000000003,0,0,0,0,0,1.375920057296753
2.584228135,0,0,0,0,0,2.2167599201202393
2.585226548,0,0,0,0,0,3.134040117263794
2.5862262940000003,0,0,0,0,0,1.8345600366592407
2.587227596,0,0,0,0,0,1.9109998941421509
2.5882261939999998,0,0,0,0,0,0.0764399990439415
2.589226125,0,0,0,0,0,0
2.59022589,0,0,0,0,0,-0.152879998087883
2.591227247,0,0,0,0,0,-0.9937199950218201
2.592225771,0,0,0,0,0,1.070159912109375
2.593226166,0,0,0,0,0,0.8408399820327759
2.594226171,0,0,0,0,0,2.446079969406128
2.595226066,0,0,0,0,0,1.223039984703064
2.596237404,0,0,0,0,0,1.452359914779663
2.597252113,0,0,0,0,0,1.8345600366592407
2.5983198400000003,0,0,0,0,0,-1.5288000106811523
2.601925404,0,0,0,0,0,-1.8345600366592407
2.602088809,0,0,0,0,0,-1.8345600366592407
2.602251048,0,0,0,0,0,0.5350799560546875
2.602443027,0,0,0,0,0,0.9937199950218201
2.603228054,0,0,0,0,0,-0.305759996175766
2.604223689,0,0,0,0,0,1.9874399900436401
2.605226324,0,0,0,0,0,1.8345600366592407
2.606224051,0,0,0,0,0,2.14031982421875
2.60722552,0,0,0,0,0,0.7644000053405762
2.608224377,0,0,0,0,0,0.305759996175766
2.609252253,0,0,0,0,0,0.5350799560546875
2.610289869,0,0,0,0,0,-1.223039984703064
2.611254041,0,0,0,0,0,1.375920057296753
2.61322659,0,0,0,0,0,0.6879600286483765
2.613456587,0,0,0,0,0,1.758120059967041
2.614291465,0,0,0,0,0,2.522519826889038
2.615228489,0,0,0,0,0,0.8408399820327759
2.616223976,0,0,0,0,0,2.3696401119232178
2.617223852,0,0,0,0,0,0.305759996175766
2.6182237280000002,0,0,0,0,0,0.6879600286483765
2.619225585,0,0,0,0,0,-0.3822000026702881
2.620223998,0,0,0,0,0,-0.6879600286483765
2.621223652,0,0,0,0,0,1.5288000106811523
2.622223546,0,0,0,0,0,0.2293200045824051
2.623238088,0,0,0,0,0,1.9109998941421509
2.624224409,0,0,0,0,0,1.375920057296753
2.625223488,0,0,0,0,0,0.5350799560546875
2.626223605,0,0,0,0,0,1.375920057296753
2.627224981,0,0,0,0,0,0.0764399990439415
2.6282236340000003,0,0,0,0,0,0.8408399820327759
2.629223788,0,0,0,0,0,-0.9172800183296204
2.630223682,0,0,0,0,0,1.223039984703064
2.63122454,0,0,0,0,0,1.452359914779663
2.632223452,0,0,0,0,0,0.9937199950218201
2.633223754,0,0,0,0,0,2.6754000186920166
2.634223649,0,0,0,0,0,0.6879600286483765
2.635224098,0,0,0,0,0,1.6816799640655518
2.636223771,0,0,0,0,0,0
2.637223591,0,0,0,0,0,0.2293200045824051
2.638223633,0,0,0,0,0,0.611519992351532
2.639227305,0,0,0,0,0,-0.8408399820327759
2.640226052,0,0,0,0,0,2.446079969406128
2.641226224,0,0,0,0,0,0.7644000053405762
2.642226155,0,0,0,0,0,1.9874399900436401
2.6432269379999997,0,0,0,0,0,1.9109998941421509
2.644226222,0,0,0,0,0,0.4586400091648102
2.645225986,0,0,0,0,0,0.9172800183296204
2.646225973,0,0,0,0,0,0.2293200045824051
2.647226775,0,0,0,0,0,0.2293200045824051
2.64822591,0,0,0,0,0,-0.5350799560546875
2.649225841,0,0,0,0,0,0
2.650225791,0,0,0,0,0,2.2932000160217285
2.651226186,0,0,0,0,0,21.173879623413086
2.6522308949999998,0,0,0,0,0,0.8408399820327759
2.654088593,0,0,0,0,0,-0.305759996175766
2.65428059,0,0,0,0,0,1.223039984703064
2.655228985,0,0,0,0,0,0
2.656226972,0,0,0,0,0,0.305759996175766
2.657226422,0,0,0,0,0,0.9937199950218201
2.658225983,0,0,0,0,0,-1.1466000080108643
2.659227433,0,0,0,0,0,1.9109998941421509
2.660226087,0,0,0,0,0,1.2994799613952637
2.661225944,0,0,0,0,0,0.9172800183296204
2.662225838,0,0,0,0,0,1.8345600366592407
2.663227251,0,0,0,0,0,0.152879998087883
2.664226071,0,0,0,0,0,0.9172800183296204
2.665226114,0,0,0,0,0,0
2.66622586,0,0,0,0,0,0.6879600286483765
2.667226921,0,0,0,0,0,0.5350799560546875
2.668226056,0,0,0,0,0,0.152879998087883
2.669225969,0,0,0,0,0,2.751840114593506
2.670225956,0,0,0,0,0,0.8408399820327759
2.671226961,0,0,0,0,0,1.758120059967041
2.672226096,0,0,0,0,0,1.375920057296753
2.673226139,0,0,0,0,0,0.2293200045824051
2.674225941,0,0,0,0,0,0.2293200045824051
2.67522665,0,0,0,0,0,0
2.6762261,0,0,0,0,0,0.5350799560546875
2.67722579,0,0,0,0,0,-1.1466000080108643
2.678225425,0,0,0,0,0,1.452359914779663
2.679226764,0,0,0,0,0,1.758120059967041
2.680226121,0,0,0,0,0,0.9172800183296204
2.68122596,0,0,0,0,0,2.904719829559326
2.6822261320000003,0,0,0,0,0,0.3822000026702881
2.683226934,0,0,0,0,0,1.1466000080108643
2.6842258279999998,0,0,0,0,0,0.4586400091648102
2.685225815,0,0,0,0,0,0.0764399990439415
2.686226136,0,0,0,0,0,-0.3822000026702881
2.687226937,0,0,0,0,0,-0.7644000053405762
2.688226109,0,0,0,0,0,2.06387996673584
2.689226022,0,0,0,0,0,0.9172800183296204
2.6902259539999998,0,0,0,0,0,2.14031982421875
2.69122707,0,0,0,0,0,1.9109998941421509
2.692226039,0,0,0,0,0,1.2994799613952637
2.693226211,0,0,0,0,0,1.758120059967041
2.694226031,0,0,0,0,0,0.152879998087883
2.695226962,0,0,0,0,0,0.5350799560546875
2.696226227,0,0,0,0,0,-1.2994799613952637
2.697226029,0,0,0,0,0,0.9937199950218201
2.698225794,0,0,0,0,0,1.758120059967041
2.69922754,0,0,0,0,0,0.5350799560546875
2.700225582,0,0,0,0,0,3.134040117263794
2.701226088,0,0,0,0,0,1.1466000080108643
2.702226538,0,0,0,0,0,0.4586400091648102
2.703227358,0,0,0,0,0,0.5350799560546875
2.7042378080000002,0,0,0,0,0,-0.2293200045824051
2.705227517,0,0,0,0,0,0
2.706226615,0,0,0,0,0,-1.2994799613952637
2.707227824,0,0,0,0,0,1.1466000080108643
2.708226218,0,0,0,0,0,0.8408399820327759
2.709226076,0,0,0,0,0,1.9109998941421509
2.710225915,0,0,0,0,0,2.3696401119232178
2.7112271789999998,0,0,0,0,0,0.9172800183296204
2.7122260369999998,0,0,0,0,0,1.375920057296753
2.713226135,0,0,0,0,0,0
2.714225844,0,0,0,0,0,0.305759996175766
2.715227997,0,0,0,0,0,-0.611519992351532
2.716225873,0,0,0,0,0,0
2.71722599,0,0,0,0,0,2.5989599227905273
2.718225458,0,0,0,0,0,1.1466000080108643
2.719227112,0,0,0,0,0,2.9811599254608154
2.7202260430000003,0,0,0,0,0,1.2994799613952637
2.72122666,0,0,0,0,0,0.2293200045824051
2.722225443,0,0,0,0,0,0.4586400091648102
2.7232266149999997,0,0,0,0,0,-1.452359914779663
2.72422712,0,0,0,0,0,-0.5350799560546875
2.725225496,0,0,0,0,0,-1.223039984703064
2.726476721,0,0,0,0,0,0.7644000053405762
2.727229989,0,0,0,0,0,1.9109998941421509
2.728227568,0,0,0,0,0,1.6816799640655518
2.729226907,0,0,0,0,0,3.210479974746704
2.730226764,0,0,0,0,0,0.9172800183296204
2.731226844,0,0,0,0,0,0.9172800183296204
2.732226683,0,0,0,0,0,-0.305759996175766
2.733226558,0,0,0,0,0,0
2.734226786,0,0,0,0,0,-0.9937199950218201
2.73522694,0,0,0,0,0,-0.2293200045824051
2.736226723,0,0,0,0,0,2.828279972076416
2.737226525,0,0,0,0,0,1.9874399900436401
2.738226549,0,0,0,0,0,2.6754000186920166
2.7392266100000002,0,0,0,0,0,2.904719829559326
2.7402276150000002,0,0,0,0,0,0.8408399820327759
2.741226417,0,0,0,0,0,1.1466000080108643
2.742227293,0,0,0,0,0,-0.305759996175766
2.743226391,0,0,0,0,0,-0.4586400091648102
2.744226544,0,0,0,0,0,-1.375920057296753
2.745226679,0,0,0,0,0,0.8408399820327759
2.74622574,0,0,0,0,0,1.6816799640655518
2.747231412,0,0,0,0,0,1.452359914779663
2.748227251,0,0,0,0,0,3.0576000213623047
2.749270923,0,0,0,0,0,1.6816799640655518
2.750298891,0,0,0,0,0,0.9172800183296204
2.751280397,0,0,0,0,0,0
2.752233977,0,0,0,0,0,-0.9937199950218201
2.7532273529999998,0,0,0,0,0,-1.070159912109375
2.754226043,0,0,0,0,0,-1.375920057296753
2.755230382,0,0,0,0,0,1.9874399900436401
2.756231573,0,0,0,0,0,1.070159912109375
2.757226541,0,0,0,0,0,2.446079969406128
2.758226102,0,0,0,0,0,3.210479974746704
2.759226219,0,0,0,0,0,1.070159912109375
2.760225483,0,0,0,0,0,2.14031982421875
2.761226896,0,0,0,0,0,0.2293200045824051
2.762226087,0,0,0,0,0,0.0764399990439415
2.763230352,0,0,0,0,0,-0.152879998087883
2.764228172,0,0,0,0,0,0
2.765226233,0,0,0,0,0,1.6816799640655518
2.766226053,0,0,0,0,0,1.5288000106811523
2.767226447,0,0,0,0,0,2.828279972076416
2.768226046,0,0,0,0,0,1.223039984703064
2.769225995,0,0,0,0,0,0.7644000053405762
2.770226001,0,0,0,0,0,0.5350799560546875
2.771227191,0,0,0,0,0,-1.2994799613952637
2.772225771,0,0,0,0,0,-0.7644000053405762
2.773225999,0,0,0,0,0,-1.9109998941421509
2.7742259860000003,0,0,0,0,0,0.9172800183296204
2.775227084,0,0,0,0,0,1.6816799640655518
2.776225941,0,0,0,0,0,2.446079969406128
2.777225983,0,0,0,0,0,3.7455599308013916
2.7782259700000003,0,0,0,0,0,1.2994799613952637
2.779231383,0,0,0,0,0,1.9874399900436401
2.78023037,0,0,0,0,0,0.3822000026702881
2.781240264,0,0,0,0,0,-0.611519992351532
2.782348935,0,0,0,0,0,-0.9172800183296204
2.783232757,0,0,0,0,0,2.446079969406128
2.785657299,0,0,0,0,0,3.210479974746704
2.785827001,0,0,0,0,0,1.6816799640655518
2.786236143,0,0,0,0,0,3.0576000213623047
2.78723039,0,0,0,0,0,2.2167599201202393
2.788224488,0,0,0,0,0,0.9172800183296204
2.789224049,0,0,0,0,0,0.6879600286483765
2.790223777,0,0,0,0,0,-1.070159912109375
2.791225152,0,0,0,0,0,-1.2994799613952637
2.792225232,0,0,0,0,0,-2.3696401119232178
2.7932263109999997,0,0,0,0,0,0.4586400091648102
2.794251965,0,0,0,0,0,1.6816799640655518
2.795231248,0,0,0,0,0,1.223039984703064
2.79622518,0,0,0,0,0,2.828279972076416
2.797224241,0,0,0,0,0,0.9172800183296204
2.798224931,0,0,0,0,0,0.5350799560546875
2.7992284,0,0,0,0,0,-0.305759996175766
2.8002249790000002,0,0,0,0,0,-1.8345600366592407
2.801224466,0,0,0,0,0,-0.6879600286483765
2.802224823,0,0,0,0,0,-1.9109998941421509
2.803232532,0,0,0,0,0,0.6879600286483765
2.804227038,0,0,0,0,0,1.605239987373352
2.805226914,0,0,0,0,0,0.611519992351532
2.806226697,0,0,0,0,0,2.751840114593506
2.80723548,0,0,0,0,0,1.1466000080108643
2.808226764,0,0,0,0,0,0.152879998087883
2.809226695,0,0,0,0,0,0.611519992351532
2.810286514,0,0,0,0,0,-1.375920057296753
2.811271224,0,0,0,0,0,0.3822000026702881
2.812241118,0,0,0,0,0,-0.7644000053405762
2.813263438,0,0,0,0,0,0.0764399990439415
2.814229611,0,0,0,0,0,1.452359914779663
2.815232153,0,0,0,0,0,0.611519992351532
2.816235566,0,0,0,0,0,1.1466000080108643
2.817325885,0,0,0,0,0,0.4586400091648102
2.818684923,0,0,0,0,0,-0.152879998087883
2.819270934,0,0,0,0,0,0
2.820285865,0,0,0,0,0,-0.2293200045824051
2.8212646120000002,0,0,0,0,0,-1.1466000080108643
2.822318765,0,0,0,0,0,-0.305759996175766
2.823303733,0,0,0,0,0,0
2.824299572,0,0,0,0,0,0.5350799560546875
2.825261263,0,0,0,0,0,0.8408399820327759
2.826252565,0,0,0,0,0,2.2932000160217285
2.827270237,0,0,0,0,0,0.8408399820327759
2.828239169,0,0,0,0,0,1.1466000080108643
2.82929847,0,0,0,0,0,1.9109998941421509
2.830244365,0,0,0,0,0,-0.305759996175766
2.831256166,0,0,0,0,0,0.9937199950218201
2.832278134,0,0,0,0,0,0
2.833261122,0,0,0,0,0,-1.1466000080108643
2.8342261090000003,0,0,0,0,0,-0.4586400091648102
2.835225337,0,0,0,0,0,0.305759996175766
2.836224416,0,0,0,0,0,-0.4586400091648102
2.83722394,0,0,0,0,0,0.152879998087883
2.838223816,0,0,0,0,0,0.9172800183296204
2.839224914,0,0,0,0,0,0.4586400091648102
2.840223845,0,0,0,0,0,0.2293200045824051
2.841236425,0,0,0,0,0,0.305759996175766
2.842224227,0,0,0,0,0,0.152879998087883
2.843225102,0,0,0,0,0,0.0764399990439415
2.844224071,0,0,0,0,0,0.5350799560546875
2.845223576,0,0,0,0,0,0.5350799560546875
2.8462236929999998,0,0,0,0,0,1.2994799613952637
2.847224846,0,0,0,0,0,0.0764399990439415
2.848223667,0,0,0,0,0,0
2.8492237830000002,0,0,0,0,0,0.3822000026702881
2.850223696,0,0,0,0,0,0.0764399990439415
2.851223757,0,0,0,0,0,-0.305759996175766
2.8522238,0,0,0,0,0,0.2293200045824051
2.853223731,0,0,0,0,0,0.0764399990439415
2.854223736,0,0,0,0,0,-9.784319877624512
2.855228649,0,0,0,0,0,0.0764399990439415
2.8562273400000002,0,0,0,0,0,0.9172800183296204
2.857226012,0,0,0,0,0,0.9172800183296204
2.858226166,0,0,0,0,0,20.409481048583984
2.8592265230000002,0,0,0,0,0,0
2.860226177,0,0,0,0,0,0.7644000053405762
2.861226293,0,0,0,0,0,0.9172800183296204
2.862226076,0,0,0,0,0,0
2.86322636,0,0,0,0,0,-0.7644000053405762
2.864226198,0,0,0,0,0,0.2293200045824051
2.865226093,0,0,0,0,0,-0.5350799560546875
2.866231654,0,0,0,0,0,0.3822000026702881
2.8672262330000002,0,0,0,0,0,0.3822000026702881
2.868226313,0,0,0,0,0,0.7644000053405762
2.869226207,0,0,0,0,0,0
2.870226157,0,0,0,0,0,0
2.8712265329999997,0,0,0,0,0,0
2.872226112,0,0,0,0,0,-0.152879998087883
2.873226062,0,0,0,0,0,0.6879600286483765
2.8742256790000003,0,0,0,0,0,1.223039984703064
2.875226295,0,0,0,0,0,1.375920057296753
2.8762260790000003,0,0,0,0,0,1.070159912109375
2.877226066,0,0,0,0,0,0.7644000053405762
2.878225627,0,0,0,0,0,0.0764399990439415
2.8792262060000002,0,0,0,0,0,-0.4586400091648102
2.88022623,0,0,0,0,0,-0.7644000053405762
2.8812262349999997,0,0,0,0,0,-1.223039984703064
2.882226278,0,0,0,0,0,-0.152879998087883
2.883227839,0,0,0,0,0,0.3822000026702881
2.8842259930000003,0,0,0,0,0,0.5350799560546875
2.885225998,0,0,0,0,0,1.070159912109375
2.886226244,0,0,0,0,0,0.7644000053405762
2.887227064,0,0,0,0,0,0.152879998087883
2.888226237,0,0,0,0,0,0.611519992351532
2.889226094,0,0,0,0,0,0.305759996175766
2.890225988,0,0,0,0,0,0.6879600286483765
2.891227401,0,0,0,0,0,1.070159912109375
2.892226221,0,0,0,0,0,0.611519992351532
2.89322619,0,0,0,0,0,0.9937199950218201
2.894226214,0,0,0,0,0,0.9937199950218201
2.895227164,0,0,0,0,0,0.6879600286483765
2.8962257989999998,0,0,0,0,0,0
2.8972262669999997,0,0,0,0,0,0.2293200045824051
2.898226124,0,0,0,0,0,-0.9172800183296204
2.899285944,0,0,0,0,0,0
2.900253283,0,0,0,0,0,-0.305759996175766
2.901228974,0,0,0,0,0,-0.3822000026702881
2.902226868,0,0,0,0,0,0
2.903256485,0,0,0,0,0,0
2.9042638050000003,0,0,0,0,0,0.2293200045824051
2.905251625,0,0,0,0,0,0.5350799560546875
2.9062300199999997,0,0,0,0,0,0.4586400091648102
2.907237303,0,0,0,0,0,0.611519992351532
2.908227309,0,0,0,0,0,1.070159912109375
2.909230499,0,0,0,0,0,0.9172800183296204
2.91022956,0,0,0,0,0,0.3822000026702881
2.911227899,0,0,0,0,0,0.6879600286483765
2.912233608,0,0,0,0,0,0.6879600286483765
2.913227206,0,0,0,0,0,0.5350799560546875
2.914226434,0,0,0,0,0,0.7644000053405762
2.915227347,0,0,0,0,0,0.305759996175766
2.916226167,0,0,0,0,0,0.3822000026702881
2.91722558,0,0,0,0,0,0.3822000026702881
2.918226326,0,0,0,0,0,-0.305759996175766
2.919227387,0,0,0,0,0,0
2.920226152,0,0,0,0,0,0
2.9212258049999997,0,0,0,0,0,-0.2293200045824051
2.922226274,0,0,0,0,0,0.305759996175766
2.9232271499999998,0,0,0,0,0,0.611519992351532
2.924226044,0,0,0,0,0,0.6879600286483765
2.9252260679999997,0,0,0,0,0,0.8408399820327759
2.926225981,0,0,0,0,0,0.611519992351532
2.927228616,0,0,0,0,0,0.2293200045824051
2.928226195,0,0,0,0,0,0.5350799560546875
2.929226201,0,0,0,0,0,0.305759996175766
2.930225966,0,0,0,0,0,0.4586400091648102
2.9312261189999997,0,0,0,0,0,0.2293200045824051
2.932226217,0,0,0,0,0,0.305759996175766
2.9332260740000002,0,0,0,0,0,0.305759996175766
2.934225913,0,0,0,0,0,0.3822000026702881
2.935226104,0,0,0,0,0,0.0764399990439415
2.936226165,0,0,0,0,0,0
2.9372260040000002,0,0,0,0,0,0.0764399990439415
2.938225879,0,0,0,0,0,0.0764399990439415
2.939225681,0,0,0,0,0,0.3822000026702881
2.940226168,0,0,0,0,0,0.7644000053405762
2.9412259880000002,0,0,0,0,0,0.4586400091648102
2.942225457,0,0,0,0,0,0.2293200045824051
2.943225777,0,0,0,0,0,0.4586400091648102
2.944226116,0,0,0,0,0,0.0764399990439415
2.945225973,0,0,0,0,0,0.152879998087883
2.946225997,0,0,0,0,0,0.611519992351532
2.947227206,0,0,0,0,0,0.6879600286483765
2.948226045,0,0,0,0,0,0.152879998087883
2.949225958,0,0,0,0,0,0.2293200045824051
2.950225963,0,0,0,0,0,0
2.951226802,0,0,0,0,0,0.152879998087883
2.952226011,0,0,0,0,0,0.2293200045824051
2.953226146,0,0,0,0,0,0.8408399820327759
2.954226078,0,0,0,0,0,0.611519992351532
2.955226991,0,0,0,0,0,0.305759996175766
2.956225941,0,0,0,0,0,0.5350799560546875
2.9572262240000002,0,0,0,0,0,0.9172800183296204
2.958226007,0,0,0,0,0,0.6879600286483765
2.959226883,0,0,0,0,0,0.4586400091648102
2.960226055,0,0,0,0,0,0.3822000026702881
2.961225894,0,0,0,0,0,0.152879998087883
2.962226047,0,0,0,0,0,0.5350799560546875
2.963227071,0,0,0,0,0,0.152879998087883
2.964225558,0,0,0,0,0,0.2293200045824051
2.965236897,0,0,0,0,0,0.9172800183296204
2.966226828,0,0,0,0,0,0.305759996175766
2.967227334,0,0,0,0,0,0.611519992351532
2.968226024,0,0,0,0,0,-0.2293200045824051
2.969232622,0,0,0,0,0,0
2.970226758,0,0,0,0,0,0.305759996175766
2.971227059,0,0,0,0,0,-0.3822000026702881
2.972226065,0,0,0,0,0,0
2.973226144,0,0,0,0,0,0.6879600286483765
2.974225872,0,0,0,0,0,0.0764399990439415
2.975227118,0,0,0,0,0,0.305759996175766
2.976225846,0,0,0,0,0,0.5350799560546875
2.977226092,0,0,0,0,0,0.3822000026702881
2.978226005,0,0,0,0,0,0
2.979227233,0,0,0,0,0,0.5350799560546875
2.980226053,0,0,0,0,0,0.6879600286483765
2.981226169,0,0,0,0,0,0.3822000026702881
2.982225434,0,0,0,0,0,0.7644000053405762
