Time,AccelX1,AccelY1,AccelZ1,AccelX2,AccelY2,AccelZ2
0.000335755,0,0,1.3766659498214722,0,0,0.9172800183296204
0.001012952,0,0,1.3742717504501343,0,0,0.6879600286483765
0.001250708,0,0,1.3742717504501343,0,0,0.6879600286483765
0.001525539,0,0,1.3742717504501343,0,0,1.2994799613952637
0.001804054,0,0,1.3742717504501343,0,0,0.9172800183296204
0.002084458,0,0,1.3742717504501343,0,0,0.611519992351532
0.002365363,0,0,1.3742717504501343,0,0,0.9937199950218201
0.002646897,0,0,1.3742717504501343,0,0,1.070159912109375
0.002928449,0,0,1.235408067703247,0,0,1.070159912109375
0.003204391,0,0,1.235408067703247,0,0,1.2994799613952637
0.003478017,0,0,1.235408067703247,0,0,0.611519992351532
0.003751607,0,0,1.235408067703247,0,0,0.9172800183296204
0.004027104,0,0,1.3215993642807007,0,0,0.5350799560546875
0.004301545,0,0,1.3215993642807007,0,0,1.070159912109375
0.004576005,0,0,1.3215993642807007,0,0,0.9172800183296204
0.004850484,0,0,1.4245500564575195,0,0,0.9172800183296204
0.005125536,0,0,1.4245500564575195,0,0,0.4586400091648102
0.005401533,0,0,1.4245500564575195,0,0,0.611519992351532
0.005675123,0,0,1.4245500564575195,0,0,0.9937199950218201
0.005949268,0,0,1.4748282432556152,0,0,0.152879998087883
0.00622482,0,0,1.4748282432556152,0,0,0.2293200045824051
0.006499003,0,0,1.4748282432556152,0,0,0.6879600286483765
0.006780759,0,0,1.4748282432556152,0,0,0.6879600286483765
0.007055089,0,0,1.5921441316604614,0,0,1.375920057296753
0.007330808,0,0,1.5921441316604614,0,0,1.2994799613952637
0.007605435,0,0,1.5921441316604614,0,0,0.5350799560546875
0.007879636,0,0,1.5729905366897583,0,0,0.3822000026702881
0.008155818,0,0,1.5729905366897583,0,0,0.4586400091648102
0.00843,0,0,1.5729905366897583,0,0,0.4586400091648102
0.008704164,0,0,1.5729905366897583,0,0,0.9172800183296204
0.008978364,0,0,1.5658079385757446,0,0,0.7644000053405762
0.009288417,0,0,1.5658079385757446,0,0,0.9172800183296204
0.009557766,0,0,1.5658079385757446,0,0,0.8408399820327759
0.009845633,0,0,1.5753847360610962,0,0,1.1466000080108643
0.010106445,0,0,1.5753847360610962,0,0,1.1466000080108643
0.010381664,0,0,1.5753847360610962,0,0,0.7644000053405762
0.010673402,0,0,1.5753847360610962,0,0,0.7644000053405762
0.010930806,0,0,1.3263877630233765,0,0,0.7644000053405762
0.011205136,0,0,1.3263877630233765,0,0,0.3822000026702881
0.011480208,0,0,1.3263877630233765,0,0,1.375920057296753
0.011754871,0,0,1.3263877630233765,0,0,1.2994799613952637
0.012029535,0,0,1.4389152526855469,0,0,0.6879600286483765
0.012303995,0,0,1.4389152526855469,0,0,0.6879600286483765
0.012578658,0,0,1.4389152526855469,0,0,0.9937199950218201
0.012852767,0,0,1.4293384552001953,0,0,1.5288000106811523
0.013126967,0,0,1.4293384552001953,0,0,0.0764399990439415
0.013403131,0,0,1.4293384552001953,0,0,0.5350799560546875
0.013677054,0,0,1.4293384552001953,0,0,0.9937199950218201
0.013950866,0,0,1.3431471586227417,0,0,0.5350799560546875
0.014225196,0,0,1.3431471586227417,0,0,0.5350799560546875
0.0145011,0,0,1.3431471586227417,0,0,0.7644000053405762
0.014775875,0,0,1.3431471586227417,0,0,1.8345600366592407
0.015049965,0,0,1.3000515699386597,0,0,1.452359914779663
0.015324017,0,0,1.3000515699386597,0,0,0.9172800183296204
0.015599162,0,0,1.3000515699386597,0,0,0.8408399820327759
0.015873345,0,0,1.359906554222107,0,0,0.8408399820327759
0.016147305,0,0,1.359906554222107,0,0,0.6879600286483765
0.016421876,0,0,1.359906554222107,0,0,0
0.016697354,0,0,1.359906554222107,0,0,1.605239987373352
0.016971444,0,0,1.4867992401123047,0,0,0.7644000053405762
0.017245719,0,0,1.4867992401123047,0,0,0.5350799560546875
0.017519864,0,0,1.4867992401123047,0,0,1.2994799613952637
0.017802898,0,0,1.4867992401123047,0,0,1.2994799613952637
0.018073135,0,0,1.6041151285171509,0,0,0.9937199950218201
0.018347669,0,0,1.6041151285171509,0,0,0.2293200045824051
0.018635814,0,0,1.6041151285171509,0,0,0.305759996175766
0.018901793,0,0,1.534683346748352,0,0,0.9172800183296204
0.019177901,0,0,1.534683346748352,0,0,0.8408399820327759
0.019454676,0,0,1.534683346748352,0,0,0.8408399820327759
0.019732377,0,0,1.534683346748352,0,0,0.8408399820327759
0.020009429,0,0,1.6376339197158813,0,0,0.7644000053405762
0.02028613,0,0,1.6376339197158813,0,0,0
0.020563571,0,0,1.6376339197158813,0,0,0.152879998087883
0.020840901,0,0,1.41257905960083,0,0,0.9172800183296204
0.021117584,0,0,1.41257905960083,0,0,1.223039984703064
0.021394414,0,0,1.41257905960083,0,0,1.070159912109375
0.02167167,0,0,1.41257905960083,0,0,1.070159912109375
0.021949519,0,0,1.3431471586227417,0,0,1.070159912109375
0.022226312,0,0,1.3431471586227417,0,0,0.152879998087883
0.022503568,0,0,1.3431471586227417,0,0,-0.5350799560546875
0.022781769,0,0,1.3431471586227417,0,0,0.6879600286483765
0.023058951,0,0,1.45806884765625,0,0,1.1466000080108643
0.023336948,0,0,1.45806884765625,0,0,1.223039984703064
0.023614464,0,0,1.45806884765625,0,0,1.223039984703064
0.023893072,0,0,1.316810965538025,0,0,0.9172800183296204
0.024170291,0,0,1.316810965538025,0,0,2.2167599201202393
0.024447547,0,0,1.316810965538025,0,0,0.9937199950218201
0.024724841,0,0,1.316810965538025,0,0,1.070159912109375
0.025002708,0,0,1.3072341680526733,0,0,0.611519992351532
0.025280409,0,0,1.3072341680526733,0,0,0.3822000026702881
0.025557868,0,0,1.3072341680526733,0,0,0.3822000026702881
0.025834699,0,0,1.3407529592514038,0,0,0.9937199950218201
0.02611277,0,0,1.3407529592514038,0,0,2.06387996673584
0.026398137,0,0,1.3407529592514038,0,0,0.7644000053405762
0.026694393,0,0,1.3407529592514038,0,0,0.152879998087883
0.026968946,0,0,1.4891934394836426,0,0,0
0.027244739,0,0,1.4891934394836426,0,0,0.5350799560546875
0.027522088,0,0,1.4891934394836426,0,0,0.5350799560546875
0.02780077,0,0,1.4891934394836426,0,0,0.5350799560546875
0.028095878,0,0,1.5897499322891235,0,0,1.070159912109375
0.028370819,0,0,1.5897499322891235,0,0,1.223039984703064
0.028651909,0,0,1.5897499322891235,0,0,0.611519992351532
0.028924258,0,0,1.6184803247451782,0,0,0.7644000053405762
0.02919968,0,0,1.6184803247451782,0,0,0.3822000026702881
0.029474048,0,0,1.6184803247451782,0,0,0.6879600286483765
0.029749674,0,0,1.6184803247451782,0,0,0.6879600286483765
0.030033412,0,0,1.5179238319396973,0,0,1.1466000080108643
0.030308335,0,0,1.5179238319396973,0,0,0.0764399990439415
0.030582814,0,0,1.5179238319396973,0,0,0.9937199950218201
0.030868699,0,0,1.6376339197158813,0,0,0.7644000053405762
0.031147381,0,0,1.6376339197158813,0,0,0.8408399820327759
0.031425323,0,0,1.6376339197158813,0,0,0.6879600286483765
0.031702505,0,0,1.6376339197158813,0,0,0.6879600286483765
0.031979983,0,0,1.41257905960083,0,0,0.611519992351532
0.032259203,0,0,1.41257905960083,0,0,2.06387996673584
0.032534626,0,0,1.41257905960083,0,0,0.9937199950218201
0.032811511,0,0,1.41257905960083,0,0,1.070159912109375
0.033090842,0,0,1.3311761617660522,0,0,0.9172800183296204
0.033367598,0,0,1.3311761617660522,0,0,0.6879600286483765
0.033645576,0,0,1.3311761617660522,0,0,0.6879600286483765
0.033922592,0,0,1.3934253454208374,0,0,1.070159912109375
0.034199626,0,0,1.3934253454208374,0,0,1.223039984703064
0.034478086,0,0,1.3934253454208374,0,0,0.9172800183296204
0.034773546,0,0,1.3934253454208374,0,0,0.152879998087883
0.035061709,0,0,1.290474772453308,0,0,1.1466000080108643
0.035334076,0,0,1.290474772453308,0,0,0.9172800183296204
0.035612166,0,0,1.290474772453308,0,0,0.4586400091648102
0.035889422,0,0,1.3934253454208374,0,0,0.4586400091648102
0.036166604,0,0,1.3934253454208374,0,0,1.070159912109375
0.036481231,0,0,1.3934253454208374,0,0,1.2994799613952637
0.036723969,0,0,1.3934253454208374,0,0,0.611519992351532
0.036999466,0,0,1.3838485479354858,0,0,0.7644000053405762
0.037276611,0,0,1.3838485479354858,0,0,0.9937199950218201
0.037554848,0,0,1.3838485479354858,0,0,1.070159912109375
0.037832271,0,0,1.3838485479354858,0,0,1.070159912109375
0.038109046,0,0,1.5059528350830078,0,0,1.9109998941421509
0.038386191,0,0,1.5059528350830078,0,0,0.6879600286483765
0.03878765,0,0,1.5059528350830078,0,0,0.2293200045824051
0.038944037,0,0,1.5634137392044067,0,0,0.6879600286483765
0.039218571,0,0,1.5634137392044067,0,0,1.070159912109375
0.039493105,0,0,1.5634137392044067,0,0,0.8408399820327759
0.039768454,0,0,1.5634137392044067,0,0,0.8408399820327759
0.040043043,0,0,1.5753847360610962,0,0,0.611519992351532
0.040316911,0,0,1.5753847360610962,0,0,0.611519992351532
0.04059113,0,0,1.5753847360610962,0,0,1.2994799613952637
0.040866294,0,0,1.7046716213226318,0,0,0.3822000026702881
0.041193364,0,0,1.7046716213226318,0,0,0.0764399990439415
0.04144575,0,0,1.7046716213226318,0,0,0.7644000053405762
0.04169797,0,0,1.7046716213226318,0,0,0.7644000053405762
0.04194843,0,0,1.5418659448623657,0,0,-0.152879998087883
0.042199501,0,0,1.5418659448623657,0,0,0.8408399820327759
0.042450128,0,0,1.5418659448623657,0,0,1.1466000080108643
0.042742255,0,0,1.5418659448623657,0,0,0.9172800183296204
0.042995807,0,0,1.3934253454208374,0,0,0.9172800183296204
0.043248508,0,0,1.3934253454208374,0,0,0.7644000053405762
0.043509746,0,0,1.3934253454208374,0,0,0.8408399820327759
0.043758558,0,0,1.3934253454208374,0,0,0.5350799560546875
0.04401213,0,0,1.482010841369629,0,0,0.5350799560546875
0.044265405,0,0,1.482010841369629,0,0,2.446079969406128
0.044518346,0,0,1.482010841369629,0,0,0.9937199950218201
0.044771195,0,0,1.482010841369629,0,0,1.452359914779663
0.045025322,0,0,1.316810965538025,0,0,0.9937199950218201
0.045278338,0,0,1.316810965538025,0,0,0.9937199950218201
0.045531372,0,0,1.316810965538025,0,0,-0.6879600286483765
0.045784536,0,0,1.316810965538025,0,0,0.9172800183296204
0.046038219,0,0,1.2641384601593018,0,0,0.4586400091648102
0.046294605,0,0,1.2641384601593018,0,0,0.7644000053405762
0.046552361,0,0,1.2641384601593018,0,0,0.7644000053405762
0.046812766,0,0,1.2641384601593018,0,0,0.7644000053405762
0.04707667,0,0,1.338358759880066,0,0,0.4586400091648102
0.047328205,0,0,1.338358759880066,0,0,0.611519992351532
0.047580572,0,0,1.338358759880066,0,0,1.1466000080108643
0.047833699,0,0,1.338358759880066,0,0,1.1466000080108643
0.048087641,0,0,1.4077905416488647,0,0,1.9109998941421509
0.048350545,0,0,1.4077905416488647,0,0,0.611519992351532
0.048604746,0,0,1.4077905416488647,0,0,0.611519992351532
0.048858132,0,0,1.556231141090393,0,0,0.611519992351532
0.049113315,0,0,1.556231141090393,0,0,0.5350799560546875
0.049365719,0,0,1.556231141090393,0,0,0.7644000053405762
0.049618013,0,0,1.556231141090393,0,0,0.9172800183296204
0.04987088,0,0,1.5849615335464478,0,0,1.070159912109375
0.050124637,0,0,1.5849615335464478,0,0,1.070159912109375
0.050378042,0,0,1.5849615335464478,0,0,0.9937199950218201
0.050630872,0,0,1.5849615335464478,0,0,0.152879998087883
0.050885647,0,0,1.6519991159439087,0,0,0.305759996175766
0.051139793,0,0,1.6519991159439087,0,0,0.9937199950218201
0.051404179,0,0,1.6519991159439087,0,0,0.9937199950218201
0.051651713,0,0,1.6519991159439087,0,0,0
0.05190484,0,0,1.6639702320098877,0,0,0.4586400091648102
0.052157596,0,0,1.6639702320098877,0,0,1.1466000080108643
0.052410871,0,0,1.6639702320098877,0,0,1.1466000080108643
0.052663554,0,0,1.6639702320098877,0,0,1.5288000106811523
0.05291681,0,0,1.4915876388549805,0,0,0.611519992351532
0.053169715,0,0,1.4915876388549805,0,0,0.8408399820327759
0.05342399,0,0,1.4915876388549805,0,0,0.8408399820327759
0.053676913,0,0,1.4915876388549805,0,0,0.8408399820327759
0.053930244,0,0,1.400607943534851,0,0,2.446079969406128
0.054189185,0,0,1.400607943534851,0,0,0.6879600286483765
0.05444296,0,0,1.400607943534851,0,0,1.1466000080108643
0.05471505,0,0,1.400607943534851,0,0,0.8408399820327759
0.05496801,0,0,1.3718775510787964,0,0,0.8408399820327759
0.055221026,0,0,1.3718775510787964,0,0,0.3822000026702881
0.055474949,0,0,1.3718775510787964,0,0,0.9937199950218201
0.055727798,0,0,1.3718775510787964,0,0,0.8408399820327759
0.055980851,0,0,1.3910311460494995,0,0,0.8408399820327759
0.056233607,0,0,1.3910311460494995,0,0,2.2932000160217285
0.056487142,0,0,1.3910311460494995,0,0,1.2994799613952637
0.056740213,0,0,1.3910311460494995,0,0,1.223039984703064
0.05699334,0,0,1.2617442607879639,0,0,1.070159912109375
0.057246133,0,0,1.2617442607879639,0,0,1.070159912109375
0.057522426,0,0,1.2617442607879639,0,0,0.6879600286483765
0.057753887,0,0,1.2617442607879639,0,0,0.6879600286483765
0.058006384,0,0,1.4772224426269531,0,0,0.0764399990439415
0.058259548,0,0,1.4772224426269531,0,0,0.7644000053405762
0.058513175,0,0,1.4772224426269531,0,0,0.7644000053405762
0.058768302,0,0,1.4772224426269531,0,0,0.6879600286483765
0.059021762,0,0,1.5873557329177856,0,0,0.6879600286483765
0.059282389,0,0,1.5873557329177856,0,0,0.8408399820327759
0.059533127,0,0,1.5873557329177856,0,0,0.8408399820327759
0.059786142,0,0,1.5873557329177856,0,0,0.611519992351532
0.060038973,0,0,1.625662922859192,0,0,0.611519992351532
0.060292174,0,0,1.625662922859192,0,0,0.611519992351532
0.060545264,0,0,1.625662922859192,0,0,1.2994799613952637
0.060798335,0,0,1.625662922859192,0,0,1.2994799613952637
0.061051351,0,0,1.6735470294952393,0,0,0.5350799560546875
0.061304681,0,0,1.6735470294952393,0,0,0.2293200045824051
0.061557494,0,0,1.6735470294952393,0,0,0.6879600286483765
0.061810991,0,0,1.6735470294952393,0,0,0.6879600286483765
0.062063914,0,0,1.5442601442337036,0,0,0.7644000053405762
0.062316893,0,0,1.5442601442337036,0,0,0.4586400091648102
0.062569853,0,0,1.5442601442337036,0,0,0.8408399820327759
0.062825072,0,0,1.5442601442337036,0,0,0.5350799560546875
0.063076681,0,0,1.6496049165725708,0,0,0.5350799560546875
0.063330011,0,0,1.6496049165725708,0,0,0.305759996175766
0.063583027,0,0,1.6496049165725708,0,0,1.5288000106811523
0.063836857,0,0,1.6496049165725708,0,0,0.9937199950218201
0.064089855,0,0,1.3623007535934448,0,0,1.1466000080108643
0.064342556,0,0,1.3623007535934448,0,0,1.1466000080108643
0.064595553,0,0,1.3623007535934448,0,0,1.223039984703064
0.064849643,0,0,1.3623007535934448,0,0,1.2994799613952637
0.065102492,0,0,1.3527239561080933,0,0,0.4586400091648102
0.065355433,0,0,1.3527239561080933,0,0,0.4586400091648102
0.065608005,0,0,1.3527239561080933,0,0,1.8345600366592407
0.065861872,0,0,1.3527239561080933,0,0,1.6816799640655518
0.066114759,0,0,1.3215993642807007,0,0,0.6879600286483765
0.06636733,0,0,1.3215993642807007,0,0,1.1466000080108643
0.066620197,0,0,1.3215993642807007,0,0,1.1466000080108643
0.066875361,0,0,1.2665326595306396,0,0,0.9172800183296204
0.067135266,0,0,1.2665326595306396,0,0,0.9172800183296204
0.067384393,0,0,1.2665326595306396,0,0,0.4586400091648102
0.06763702,0,0,1.2665326595306396,0,0,0.4586400091648102
0.067889887,0,0,1.3862427473068237,0,0,0.9172800183296204
0.068143551,0,0,1.3862427473068237,0,0,0.4586400091648102
0.068395808,0,0,1.3862427473068237,0,0,0.8408399820327759
0.068649194,0,0,1.3862427473068237,0,0,0.8408399820327759
0.068902487,0,0,1.4700398445129395,0,0,0.8408399820327759
0.069155781,0,0,1.4700398445129395,0,0,1.8345600366592407
0.069440778,0,0,1.4700398445129395,0,0,0
0.069663109,0,0,1.4700398445129395,0,0,0.4586400091648102
0.069915217,0,0,1.5634137392044067,0,0,0.8408399820327759
0.070168881,0,0,1.5634137392044067,0,0,0.8408399820327759
0.070421841,0,0,1.5634137392044067,0,0,0.2293200045824051
0.070693283,0,0,1.5634137392044067,0,0,0.5350799560546875
0.07094628,0,0,1.5682021379470825,0,0,0.3822000026702881
0.071199925,0,0,1.5682021379470825,0,0,1.2994799613952637
0.071453126,0,0,1.5682021379470825,0,0,1.2994799613952637
0.071705623,0,0,1.5682021379470825,0,0,0.5350799560546875
0.071958769,0,0,1.6041151285171509,0,0,0.152879998087883
0.072212322,0,0,1.6041151285171509,0,0,0.4586400091648102
0.072465337,0,0,1.6041151285171509,0,0,0.4586400091648102
0.072718057,0,0,1.6041151285171509,0,0,1.1466000080108643
0.072970832,0,0,1.6735470294952393,0,0,0.6879600286483765
0.073224607,0,0,1.6735470294952393,0,0,0.7644000053405762
0.07347753,0,0,1.6735470294952393,0,0,0.8408399820327759
0.073730675,0,0,1.6735470294952393,0,0,0.8408399820327759
0.073983358,0,0,1.6208745241165161,0,0,0.152879998087883
0.074236929,0,0,1.6208745241165161,0,0,0.9937199950218201
0.074489704,0,0,1.6208745241165161,0,0,0.7644000053405762
0.074743775,0,0,1.6208745241165161,0,0,0.7644000053405762
0.075002106,0,0,1.3551181554794312,0,0,2.2932000160217285
0.075251714,0,0,1.3551181554794312,0,0,0.611519992351532
0.075795134,0,0,1.3551181554794312,0,0,0.5350799560546875
0.076048002,0,0,1.5131354331970215,0,0,0.5350799560546875
0.076303406,0,0,1.5131354331970215,0,0,0.6879600286483765
0.076556978,0,0,1.5131354331970215,0,0,1.2994799613952637
0.076810956,0,0,1.5131354331970215,0,0,0.7644000053405762
0.077064102,0,0,1.4413094520568848,0,0,1.070159912109375
0.07731771,0,0,1.4413094520568848,0,0,1.070159912109375
0.07757143,0,0,1.4413094520568848,0,0,0.9172800183296204
0.077824982,0,0,1.4413094520568848,0,0,0.4586400091648102
0.078078498,0,0,1.3311761617660522,0,0,1.070159912109375
0.07833144,0,0,1.3311761617660522,0,0,0.611519992351532
0.078713306,0,0,1.3311761617660522,0,0,0.9172800183296204
0.078847879,0,0,1.3311761617660522,0,0,0.9172800183296204
0.079100931,0,0,1.3934253454208374,0,0,1.758120059967041
0.079354225,0,0,1.3934253454208374,0,0,0.6879600286483765
0.079608667,0,0,1.3934253454208374,0,0,0.8408399820327759
0.079862349,0,0,1.3934253454208374,0,0,0.8408399820327759
0.080115865,0,0,1.4317326545715332,0,0,0.5350799560546875
0.080368806,0,0,1.4317326545715332,0,0,0.5350799560546875
0.080622767,0,0,1.4317326545715332,0,0,0.7644000053405762
0.080876505,0,0,1.4317326545715332,0,0,0.7644000053405762
0.081129872,0,0,1.580173134803772,0,0,0.6879600286483765
0.081383332,0,0,1.580173134803772,0,0,0.152879998087883
0.081637348,0,0,1.580173134803772,0,0,0.9937199950218201
0.081890956,0,0,1.647210717201233,0,0,1.2994799613952637
0.082144713,0,0,1.647210717201233,0,0,1.2994799613952637
0.082397581,0,0,1.647210717201233,0,0,1.5288000106811523
0.082674596,0,0,1.647210717201233,0,0,-0.5350799560546875
0.082904038,0,0,1.5322890281677246,0,0,0.6879600286483765
0.083164331,0,0,1.5322890281677246,0,0,0.6879600286483765
0.083409866,0,0,1.5322890281677246,0,0,0.9172800183296204
0.083661752,0,0,1.5322890281677246,0,0,0.152879998087883
0.083912379,0,0,1.6184803247451782,0,0,1.223039984703064
0.084163043,0,0,1.6184803247451782,0,0,0.8408399820327759
0.084413559,0,0,1.6184803247451782,0,0,0.8408399820327759
0.084664389,0,0,1.6184803247451782,0,0,1.1466000080108643
0.084915423,0,0,1.50355863571167,0,0,0.5350799560546875
0.085166124,0,0,1.50355863571167,0,0,1.070159912109375
0.085416511,0,0,1.50355863571167,0,0,1.070159912109375
0.085667174,0,0,1.50355863571167,0,0,0
0.085918653,0,0,1.235408067703247,0,0,0.9937199950218201
0.086169225,0,0,1.235408067703247,0,0,0.9937199950218201
0.086420074,0,0,1.235408067703247,0,0,0.9937199950218201
0.086693126,0,0,1.235408067703247,0,0,0.9937199950218201
0.08694679,0,0,1.3503297567367554,0,0,2.2167599201202393
0.087199954,0,0,1.3503297567367554,0,0,0.0764399990439415
0.087452859,0,0,1.3503297567367554,0,0,1.1466000080108643
0.087706115,0,0,1.3503297567367554,0,0,0.6879600286483765
0.087959946,0,0,1.278503656387329,0,0,0.6879600286483765
0.088212961,0,0,1.278503656387329,0,0,0.611519992351532
0.088466218,0,0,1.278503656387329,0,0,0.9172800183296204
0.088718789,0,0,1.278503656387329,0,0,1.070159912109375
0.088972583,0,0,1.2473790645599365,0,0,1.070159912109375
0.089225636,0,0,1.2473790645599365,0,0,0.6879600286483765
0.089478651,0,0,1.2473790645599365,0,0,0.8408399820327759
0.089731778,0,0,1.2473790645599365,0,0,0.6879600286483765
0.089985516,0,0,1.4413094520568848,0,0,0.7644000053405762
0.090238532,0,0,1.4413094520568848,0,0,0.7644000053405762
0.090491511,0,0,1.4413094520568848,0,0,1.605239987373352
0.090745749,0,0,1.4413094520568848,0,0,0.8408399820327759
0.091007412,0,0,1.5107412338256836,0,0,0.9172800183296204
0.091256317,0,0,1.5107412338256836,0,0,0.7644000053405762
0.091509481,0,0,1.5107412338256836,0,0,0.7644000053405762
0.0917627,0,0,1.5107412338256836,0,0,0.5350799560546875
0.092015475,0,0,1.6950948238372803,0,0,0.305759996175766
0.092268991,0,0,1.6950948238372803,0,0,0.6879600286483765
0.092521877,0,0,1.6950948238372803,0,0,0.6879600286483765
0.09277506,0,0,1.6950948238372803,0,0,1.223039984703064
0.093027705,0,0,1.6400281190872192,0,0,0.5350799560546875
0.093281795,0,0,1.6400281190872192,0,0,0.611519992351532
0.093534866,0,0,1.6400281190872192,0,0,0.4586400091648102
0.093787734,0,0,1.6400281190872192,0,0,0.4586400091648102
0.094041676,0,0,1.5203180313110352,0,0,0.611519992351532
0.094295043,0,0,1.5203180313110352,0,0,0.8408399820327759
0.094548022,0,0,1.5203180313110352,0,0,0.9172800183296204
0.09480313,0,0,1.5203180313110352,0,0,0.9172800183296204
0.095054294,0,0,1.6376339197158813,0,0,0.9937199950218201
0.095307625,0,0,1.6376339197158813,0,0,0.305759996175766
0.095561029,0,0,1.6376339197158813,0,0,1.070159912109375
0.095814045,0,0,1.6376339197158813,0,0,0.8408399820327759
0.096068061,0,0,1.3862427473068237,0,0,0.8408399820327759
0.096322317,0,0,1.3862427473068237,0,0,0.7644000053405762
0.096575352,0,0,1.3862427473068237,0,0,0.9172800183296204
0.096828682,0,0,1.3862427473068237,0,0,0.4586400091648102
0.097081587,0,0,1.3479355573654175,0,0,0.9937199950218201
0.09733501,0,0,1.3479355573654175,0,0,0.9937199950218201
0.097588433,0,0,1.3479355573654175,0,0,1.5288000106811523
0.097844597,0,0,1.3479355573654175,0,0,0.9172800183296204
0.098102909,0,0,1.3263877630233765,0,0,0.9172800183296204
0.098389406,0,0,1.3263877630233765,0,0,0.611519992351532
0.09863107,0,0,1.3263877630233765,0,0,0.611519992351532
0.098896215,0,0,1.3263877630233765,0,0,0.7644000053405762
0.099142638,0,0,1.280897855758667,0,0,0.3822000026702881
0.099396228,0,0,1.280897855758667,0,0,0.9172800183296204
0.099649225,0,0,1.280897855758667,0,0,0.9172800183296204
0.099908945,0,0,1.2952631711959839,0,0,0.0764399990439415
0.100165553,0,0,1.2952631711959839,0,0,0.3822000026702881
0.100420291,0,0,1.2952631711959839,0,0,0.5350799560546875
0.100673048,0,0,1.2952631711959839,0,0,0.7644000053405762
0.100925489,0,0,1.460463047027588,0,0,0.7644000053405762
0.101178542,0,0,1.460463047027588,0,0,2.446079969406128
0.101431428,0,0,1.460463047027588,0,0,0.8408399820327759
0.10168487,0,0,1.460463047027588,0,0,0.6879600286483765
0.101937534,0,0,1.4676456451416016,0,0,0.8408399820327759
0.102190586,0,0,1.4676456451416016,0,0,0.8408399820327759
0.102443491,0,0,1.4676456451416016,0,0,9.478560447692871
0.102720173,0,0,1.4676456451416016,0,0,0.9172800183296204
0.102972874,0,0,1.6927006244659424,0,0,0.4586400091648102
0.103225575,0,0,1.6927006244659424,0,0,1.1466000080108643
0.103478461,0,0,1.6927006244659424,0,0,1.1466000080108643
0.103732199,0,0,1.6927006244659424,0,0,0.9172800183296204
0.103985308,0,0,1.6543933153152466,0,0,0.0764399990439415
0.104238527,0,0,1.6543933153152466,0,0,0.7644000053405762
0.104491321,0,0,1.6543933153152466,0,0,0.7644000053405762
0.10474491,0,0,1.6543933153152466,0,0,1.2994799613952637
0.10499813,0,0,1.5275006294250488,0,0,0.611519992351532
0.105251146,0,0,1.5275006294250488,0,0,0.7644000053405762
0.105503976,0,0,1.5275006294250488,0,0,0.611519992351532
0.105757622,0,0,1.5275006294250488,0,0,0.611519992351532
0.106010674,0,0,1.6160861253738403,0,0,2.06387996673584
0.106263579,0,0,1.6160861253738403,0,0,0.5350799560546875
0.106516761,0,0,1.6160861253738403,0,0,0.9937199950218201
0.107792562,0,0,1.400607943534851,0,0,0.5350799560546875
0.108040448,0,0,1.4628572463989258,0,0,0.5350799560546875
0.108295094,0,0,1.4628572463989258,0,0,0.8408399820327759
0.108548943,0,0,1.4628572463989258,0,0,0.9172800183296204
0.10880381,0,0,1.4628572463989258,0,0,1.2994799613952637
0.109056234,0,0,1.4053963422775269,0,0,0.8408399820327759
0.109310175,0,0,1.4053963422775269,0,0,0.8408399820327759
0.10956345,0,0,1.4053963422775269,0,0,0.8408399820327759
0.10981704,0,0,1.4053963422775269,0,0,0.6879600286483765
0.110070111,0,0,1.2880805730819702,0,0,0.4586400091648102
0.110323998,0,0,1.2880805730819702,0,0,0.4586400091648102
0.110577661,0,0,1.2880805730819702,0,0,0
0.110833548,0,0,1.2880805730819702,0,0,0.9937199950218201
0.111086323,0,0,1.4460978507995605,0,0,1.223039984703064
0.111339801,0,0,1.4460978507995605,0,0,0.4586400091648102
0.111593113,0,0,1.4460978507995605,0,0,0.4586400091648102
0.111846333,0,0,1.4460978507995605,0,0,-0.305759996175766
0.112100571,0,0,1.4077905416488647,0,0,0.8408399820327759
0.112354216,0,0,1.4077905416488647,0,0,0.5350799560546875
0.112607676,0,0,1.4077905416488647,0,0,0.611519992351532
0.112861488,0,0,1.4077905416488647,0,0,0.611519992351532
0.11311556,0,0,1.5394717454910278,0,0,1.223039984703064
0.113369316,0,0,1.5394717454910278,0,0,0.611519992351532
0.113622832,0,0,1.5394717454910278,0,0,0.7644000053405762
0.113876199,0,0,1.5394717454910278,0,0,0.7644000053405762
0.114129808,0,0,1.5945383310317993,0,0,0.5350799560546875
0.114383564,0,0,1.5945383310317993,0,0,1.070159912109375
0.114636895,0,0,1.5945383310317993,0,0,0.611519992351532
0.114891133,0,0,1.5945383310317993,0,0,0.305759996175766
0.115145426,0,0,1.4748282432556152,0,0,0.305759996175766
0.115399183,0,0,1.4748282432556152,0,0,0.7644000053405762
0.115683346,0,0,1.4748282432556152,0,0,0.6879600286483765
0.115910714,0,0,1.4748282432556152,0,0,0.9172800183296204
0.116164452,0,0,1.625662922859192,0,0,1.070159912109375
0.116418264,0,0,1.625662922859192,0,0,1.070159912109375
0.116671558,0,0,1.625662922859192,0,0,1.1466000080108643
0.116925111,0,0,1.5682021379470825,0,0,0.7644000053405762
0.117178034,0,0,1.5682021379470825,0,0,0.9172800183296204
0.117431624,0,0,1.5682021379470825,0,0,0.9172800183296204
0.117684473,0,0,1.5682021379470825,0,0,1.5288000106811523
0.117938303,0,0,1.3886369466781616,0,0,0.9172800183296204
0.118191486,0,0,1.3886369466781616,0,0,0.6879600286483765
0.118445853,0,0,1.3886369466781616,0,0,1.2994799613952637
0.11871635,0,0,1.3886369466781616,0,0,1.2994799613952637
0.118969588,0,0,1.3239935636520386,0,0,2.06387996673584
0.119222826,0,0,1.3239935636520386,0,0,0.9937199950218201
0.119476527,0,0,1.3239935636520386,0,0,1.375920057296753
0.11973021,0,0,1.3239935636520386,0,0,0.8408399820327759
0.119983614,0,0,1.3718775510787964,0,0,0.8408399820327759
0.120236889,0,0,1.3718775510787964,0,0,0
0.120490868,0,0,1.3718775510787964,0,0,0.6879600286483765
0.120744273,0,0,1.3718775510787964,0,0,0.6879600286483765
0.120997714,0,0,1.3694833517074585,0,0,0.6879600286483765
0.121251452,0,0,1.3694833517074585,0,0,0.4586400091648102
0.121505227,0,0,1.3694833517074585,0,0,1.1466000080108643
0.121758632,0,0,1.3694833517074585,0,0,0.7644000053405762
0.122012296,0,0,1.434126853942871,0,0,0.611519992351532
0.122265441,0,0,1.434126853942871,0,0,0.611519992351532
0.122519401,0,0,1.434126853942871,0,0,0.6879600286483765
0.122774436,0,0,1.434126853942871,0,0,1.5288000106811523
0.123026674,0,0,1.4293384552001953,0,0,0.611519992351532
0.123279615,0,0,1.4293384552001953,0,0,0.5350799560546875
0.123540279,0,0,1.4293384552001953,0,0,0.5350799560546875
0.123790258,0,0,1.4293384552001953,0,0,0
0.124043977,0,0,1.5610195398330688,0,0,0.3822000026702881
0.124297345,0,0,1.5610195398330688,0,0,0.611519992351532
0.124551064,0,0,1.5610195398330688,0,0,0.611519992351532
0.124804673,0,0,1.5610195398330688,0,0,1.070159912109375
0.125058059,0,0,1.6950948238372803,0,0,0.8408399820327759
0.125311371,0,0,1.6950948238372803,0,0,0
0.12556459,0,0,1.6950948238372803,0,0,0.4586400091648102
0.125818143,0,0,1.6950948238372803,0,0,0.4586400091648102
0.126071214,0,0,1.5203180313110352,0,0,0.9172800183296204
0.126324841,0,0,1.5203180313110352,0,0,0.9172800183296204
0.12657819,0,0,1.5203180313110352,0,0,0.8408399820327759
0.126833225,0,0,1.5203180313110352,0,0,0.8408399820327759
0.127085611,0,0,1.6855180263519287,0,0,0.7644000053405762
0.127338904,0,0,1.6855180263519287,0,0,0.5350799560546875
0.127592198,0,0,1.6855180263519287,0,0,1.070159912109375
0.127846288,0,0,1.6855180263519287,0,0,1.070159912109375
0.12809934,0,0,1.3335703611373901,0,0,1.070159912109375
0.128353041,0,0,1.3335703611373901,0,0,2.2932000160217285
0.128606205,0,0,1.3335703611373901,0,0,0.152879998087883
0.128860073,0,0,1.3335703611373901,0,0,0.8408399820327759
0.129113348,0,0,1.2665326595306396,0,0,0.6879600286483765
0.129366623,0,0,1.2665326595306396,0,0,0.6879600286483765
0.129620102,0,0,1.2665326595306396,0,0,0.8408399820327759
0.129874099,0,0,1.2665326595306396,0,0,0.6879600286483765
0.130127448,0,0,1.4077905416488647,0,0,0.4586400091648102
0.130380797,0,0,1.4077905416488647,0,0,0.4586400091648102
0.130634053,0,0,1.4077905416488647,0,0,2.06387996673584
0.130888828,0,0,1.4077905416488647,0,0,1.5288000106811523
0.13114214,0,0,1.256955862045288,0,0,1.2994799613952637
0.131401804,0,0,1.256955862045288,0,0,0.8408399820327759
0.131652061,0,0,1.256955862045288,0,0,0.8408399820327759
0.131916669,0,0,1.256955862045288,0,0,0.4586400091648102
0.132159722,0,0,1.3670891523361206,0,0,0.4586400091648102
0.132412941,0,0,1.3670891523361206,0,0,0.5350799560546875
0.132666587,0,0,1.3670891523361206,0,0,0.8408399820327759
0.132920843,0,0,1.3670891523361206,0,0,0.8408399820327759
0.133173322,0,0,1.400607943534851,0,0,-0.3822000026702881
0.13342669,0,0,1.400607943534851,0,0,0.8408399820327759
0.133679798,0,0,1.400607943534851,0,0,0.9172800183296204
0.133932851,0,0,1.5155296325683594,0,0,0.9172800183296204
0.134186737,0,0,1.5155296325683594,0,0,0.9937199950218201
0.134440086,0,0,1.5155296325683594,0,0,0.5350799560546875
0.13470962,0,0,1.5155296325683594,0,0,0.6879600286483765
0.134960376,0,0,1.7094600200653076,0,0,0.7644000053405762
0.135211781,0,0,1.7094600200653076,0,0,0.7644000053405762
0.135462686,0,0,1.7094600200653076,0,0,0.3822000026702881
0.13576809,0,0,1.7094600200653076,0,0,0.7644000053405762
0.135966014,0,0,1.5921441316604614,0,0,0.8408399820327759
0.136216215,0,0,1.5921441316604614,0,0,0.611519992351532
0.136466619,0,0,1.5921441316604614,0,0,0.611519992351532
0.136717357,0,0,1.5921441316604614,0,0,0.7644000053405762
0.136967836,0,0,1.5825673341751099,0,0,0.9172800183296204
0.137219407,0,0,1.5825673341751099,0,0,0.611519992351532
0.137470256,0,0,1.5825673341751099,0,0,0.611519992351532
0.137720717,0,0,1.5825673341751099,0,0,-0.3822000026702881
0.137971307,0,0,1.6735470294952393,0,0,0.8408399820327759
0.138222507,0,0,1.6735470294952393,0,0,0.9172800183296204
0.138473394,0,0,1.6735470294952393,0,0,0.9172800183296204
0.138730613,0,0,1.6735470294952393,0,0,0.9172800183296204
0.138985851,0,0,1.3646949529647827,0,0,0.9172800183296204
0.139246052,0,0,1.3646949529647827,0,0,0.305759996175766
0.139495401,0,0,1.3646949529647827,0,0,1.1466000080108643
0.139748435,0,0,1.3646949529647827,0,0,1.1466000080108643
0.140001803,0,0,1.4676456451416016,0,0,0.8408399820327759
0.140255874,0,0,1.4676456451416016,0,0,0.8408399820327759
0.140508112,0,0,1.4676456451416016,0,0,1.223039984703064
0.140761017,0,0,1.4676456451416016,0,0,0.8408399820327759
0.140999403,0,0,1.4389152526855469,0,0,0.8408399820327759
0.141216271,0,0,1.4389152526855469,0,0,0.3822000026702881
0.141432158,0,0,1.4389152526855469,0,0,0.5350799560546875
0.141648452,0,0,1.4389152526855469,0,0,0.5350799560546875
0.141863986,0,0,1.4389152526855469,0,0,1.2994799613952637
0.142079725,0,0,1.3000515699386597,0,0,0.152879998087883
0.142295759,0,0,1.3000515699386597,0,0,0.152879998087883
0.142511924,0,0,1.3000515699386597,0,0,1.223039984703064
0.142729755,0,0,1.3000515699386597,0,0,0.611519992351532
0.142945697,0,0,1.3958195447921753,0,0,0.611519992351532
0.143161528,0,0,1.3958195447921753,0,0,0.9937199950218201
0.14337734,0,0,1.3958195447921753,0,0,1.070159912109375
0.143593782,0,0,1.3958195447921753,0,0,1.070159912109375
0.143809095,0,0,1.3958195447921753,0,0,1.070159912109375
0.144025222,0,0,1.4508862495422363,0,0,0.611519992351532
0.144240997,0,0,1.4508862495422363,0,0,0.611519992351532
0.144457902,0,0,1.4508862495422363,0,0,1.070159912109375
0.144673289,0,0,1.4508862495422363,0,0,0.7644000053405762
0.144889231,0,0,1.4508862495422363,0,0,0.7644000053405762
0.145105303,0,0,1.5418659448623657,0,0,0.8408399820327759
0.14532093,0,0,1.5418659448623657,0,0,0.611519992351532
0.145537391,0,0,1.5418659448623657,0,0,0.611519992351532
0.145752703,0,0,1.5418659448623657,0,0,1.070159912109375
0.145968738,0,0,1.644816517829895,0,0,1.5288000106811523
0.146189828,0,0,1.644816517829895,0,0,1.5288000106811523
0.146402863,0,0,1.644816517829895,0,0,0
0.146619453,0,0,1.644816517829895,0,0,0.2293200045824051
0.146835839,0,0,1.644816517829895,0,0,0.2293200045824051
0.147051967,0,0,1.525106430053711,0,0,0.8408399820327759
0.147267927,0,0,1.525106430053711,0,0,0.9172800183296204
0.147483351,0,0,1.525106430053711,0,0,0.9172800183296204
0.147699608,0,0,1.525106430053711,0,0,0
0.14791542,0,0,1.525106430053711,0,0,0.9172800183296204
0.148131325,0,0,1.647210717201233,0,0,0.9172800183296204
0.148347138,0,0,1.647210717201233,0,0,0.152879998087883
0.148563024,0,0,1.647210717201233,0,0,1.2994799613952637
0.148779207,0,0,1.647210717201233,0,0,1.2994799613952637
0.148994982,0,0,1.4867992401123047,0,0,-0.611519992351532
0.149210591,0,0,1.4867992401123047,0,0,0.9172800183296204
0.149426478,0,0,1.4867992401123047,0,0,0.9172800183296204
0.149642346,0,0,1.4867992401123047,0,0,-0.7644000053405762
0.149858843,0,0,1.4867992401123047,0,0,0.5350799560546875
0.150074785,0,0,1.37906014919281,0,0,0.5350799560546875
0.150290635,0,0,1.37906014919281,0,0,1.452359914779663
0.150506373,0,0,1.37906014919281,0,0,0.6879600286483765
0.15072263,0,0,1.37906014919281,0,0,0.6879600286483765
0.150938535,0,0,1.37906014919281,0,0,1.6816799640655518
0.151154348,0,0,1.3670891523361206,0,0,1.1466000080108643
0.15137029,0,0,1.3670891523361206,0,0,1.1466000080108643
0.151586084,0,0,1.3670891523361206,0,0,1.5288000106811523
0.151802655,0,0,1.3670891523361206,0,0,0.9937199950218201
0.152018727,0,0,1.2976573705673218,0,0,0.9937199950218201
0.152234354,0,0,1.2976573705673218,0,0,0.152879998087883
0.152450296,0,0,1.2976573705673218,0,0,0.611519992351532
0.152666201,0,0,1.2976573705673218,0,0,0.611519992351532
0.152888144,0,0,1.2976573705673218,0,0,0
0.153101289,0,0,1.235408067703247,0,0,0.3822000026702881
0.153317287,0,0,1.235408067703247,0,0,0.3822000026702881
0.153533562,0,0,1.235408067703247,0,0,0.5350799560546875
0.153749486,0,0,1.235408067703247,0,0,0.9937199950218201
0.153965632,0,0,1.3551181554794312,0,0,0.9937199950218201
0.15418174,0,0,1.3551181554794312,0,0,1.1466000080108643
0.154397553,0,0,1.3551181554794312,0,0,0.611519992351532
0.154613421,0,0,1.3551181554794312,0,0,0.611519992351532
0.154830382,0,0,1.3551181554794312,0,0,1.1466000080108643
0.155046157,0,0,1.4293384552001953,0,0,0.6879600286483765
0.155262247,0,0,1.4293384552001953,0,0,0.6879600286483765
0.155478078,0,0,1.4293384552001953,0,0,-29.582279205322266
0.15569378,0,0,1.4293384552001953,0,0,0.9172800183296204
0.155909833,0,0,1.4293384552001953,0,0,0.9172800183296204
0.15612659,0,0,1.5873557329177856,0,0,-29.582279205322266
0.156342587,0,0,1.5873557329177856,0,0,0.9172800183296204
0.156558326,0,0,1.5873557329177856,0,0,0.9172800183296204
0.15677449,0,0,1.5873557329177856,0,0,0.3822000026702881
0.156990284,0,0,1.6615760326385498,0,0,0.8408399820327759
0.157206022,0,0,1.6615760326385498,0,0,0.8408399820327759
0.15742165,0,0,1.6615760326385498,0,0,0.7644000053405762
0.157637666,0,0,1.6615760326385498,0,0,0.3822000026702881
0.157854293,0,0,1.6615760326385498,0,0,0.3822000026702881
0.15807042,0,0,1.50355863571167,0,0,1.5288000106811523
0.158285936,0,0,1.50355863571167,0,0,0.9937199950218201
0.158501415,0,0,1.50355863571167,0,0,0.9937199950218201
0.158719209,0,0,1.50355863571167,0,0,1.6816799640655518
0.158933652,0,0,1.50355863571167,0,0,1.1466000080108643
0.159149668,0,0,1.580173134803772,0,0,1.1466000080108643
0.159365536,0,0,1.580173134803772,0,0,9.478560447692871
0.159586848,0,0,1.580173134803772,0,0,1.2994799613952637
0.159799586,0,0,1.580173134803772,0,0,1.2994799613952637
0.160015529,0,0,1.3479355573654175,0,0,1.6816799640655518
0.160232137,0,0,1.3479355573654175,0,0,0.8408399820327759
0.160448061,0,0,1.3479355573654175,0,0,0.8408399820327759
0.160664133,0,0,1.3479355573654175,0,0,0.611519992351532
0.160879815,0,0,1.3479355573654175,0,0,0.9172800183296204
0.161095609,0,0,1.316810965538025,0,0,0.9172800183296204
0.161312144,0,0,1.316810965538025,0,0,0.4586400091648102
0.161527808,0,0,1.316810965538025,0,0,0.5350799560546875
0.161743584,0,0,1.316810965538025,0,0,0.5350799560546875
0.161959544,0,0,1.316810965538025,0,0,0.305759996175766
0.162175505,0,0,1.314416766166687,0,0,0.5350799560546875
0.162392095,0,0,1.314416766166687,0,0,0.5350799560546875
0.162608222,0,0,1.314416766166687,0,0,2.2167599201202393
0.162824109,0,0,1.314416766166687,0,0,0.3822000026702881
0.163039773,0,0,1.2689268589019775,0,0,0.3822000026702881
0.163255734,0,0,1.2689268589019775,0,0,2.522519826889038
0.16347225,0,0,1.2689268589019775,0,0,0.6879600286483765
0.163688192,0,0,1.2689268589019775,0,0,0.6879600286483765
0.163903819,0,0,1.2689268589019775,0,0,0.3822000026702881
0.16413128,0,0,1.2832920551300049,0,0,1.1466000080108643
0.164335796,0,0,1.2832920551300049,0,0,1.1466000080108643
0.164551664,0,0,1.2832920551300049,0,0,1.070159912109375
0.164767217,0,0,1.2832920551300049,0,0,1.1466000080108643
0.164982937,0,0,1.3215993642807007,0,0,1.1466000080108643
0.165199065,0,0,1.3215993642807007,0,0,0.9937199950218201
0.165415395,0,0,1.3215993642807007,0,0,0.8408399820327759
0.165630393,0,0,1.3215993642807007,0,0,0.8408399820327759
0.165846298,0,0,1.3215993642807007,0,0,0.611519992351532
0.166062185,0,0,1.4891934394836426,0,0,0.4586400091648102
0.166283497,0,0,1.4891934394836426,0,0,0.4586400091648102
0.16649705,0,0,1.4891934394836426,0,0,1.605239987373352
0.166714307,0,0,1.4891934394836426,0,0,1.375920057296753
0.16692899,0,0,1.4891934394836426,0,0,1.375920057296753
0.167144803,0,0,1.659181833267212,0,0,-0.3822000026702881
0.167360282,0,0,1.659181833267212,0,0,1.452359914779663
0.16757665,0,0,1.659181833267212,0,0,1.452359914779663
0.167792944,0,0,1.659181833267212,0,0,0.2293200045824051
0.168008904,0,0,1.5514427423477173,0,0,0.152879998087883
0.168224828,0,0,1.5514427423477173,0,0,0.152879998087883
0.168440918,0,0,1.5514427423477173,0,0,0.305759996175766
0.168657305,0,0,1.5514427423477173,0,0,0.7644000053405762
0.168873321,0,0,1.5514427423477173,0,0,0.7644000053405762
0.169089281,0,0,1.5203180313110352,0,0,0.3822000026702881
0.169305168,0,0,1.5203180313110352,0,0,0.8408399820327759
0.169520814,0,0,1.5203180313110352,0,0,0.8408399820327759
0.169737385,0,0,1.5203180313110352,0,0,0.6879600286483765
0.169953124,0,0,1.5203180313110352,0,0,1.070159912109375
0.170168992,0,0,1.6687586307525635,0,0,1.070159912109375
0.170385008,0,0,1.6687586307525635,0,0,0.2293200045824051
0.170600746,0,0,1.6687586307525635,0,0,0.5350799560546875
0.170818096,0,0,1.6687586307525635,0,0,0.5350799560546875
0.171033445,0,0,1.3670891523361206,0,0,2.2932000160217285
0.171249332,0,0,1.3670891523361206,0,0,0.5350799560546875
0.17146507,0,0,1.3670891523361206,0,0,0.5350799560546875
0.171681086,0,0,1.3670891523361206,0,0,2.14031982421875
0.171897121,0,0,1.3670891523361206,0,0,0.7644000053405762
0.172113248,0,0,1.3742717504501343,0,0,0.7644000053405762
0.172329042,0,0,1.3742717504501343,0,0,1.9109998941421509
0.17254491,0,0,1.3742717504501343,0,0,1.375920057296753
0.172761723,0,0,1.3742717504501343,0,0,1.375920057296753
0.172982905,0,0,1.4293384552001953,0,0,0.611519992351532
0.173195773,0,0,1.4293384552001953,0,0,0.5350799560546875
0.173448974,0,0,1.4293384552001953,0,0,0.8408399820327759
0.173666528,0,0,1.4293384552001953,0,0,0.8408399820327759
0.173882821,0,0,1.4293384552001953,0,0,9.478560447692871
0.174098671,0,0,1.2832920551300049,0,0,0.611519992351532
0.174314354,0,0,1.2832920551300049,0,0,0.611519992351532
0.174530277,0,0,1.2832920551300049,0,0,0.6879600286483765
0.174747664,0,0,1.2832920551300049,0,0,0.611519992351532
0.174962884,0,0,1.2832920551300049,0,0,0.611519992351532
0.175178826,0,0,1.3263877630233765,0,0,1.5288000106811523
0.175394583,0,0,1.3263877630233765,0,0,0.7644000053405762
0.17561058,0,0,1.3263877630233765,0,0,0.7644000053405762
0.175826189,0,0,1.3263877630233765,0,0,1.5288000106811523
0.176042742,0,0,1.3838485479354858,0,0,0.9937199950218201
0.176258388,0,0,1.3838485479354858,0,0,0.9937199950218201
0.176474256,0,0,1.3838485479354858,0,0,0.305759996175766
0.176689976,0,0,1.3838485479354858,0,0,1.070159912109375
0.176905511,0,0,1.3838485479354858,0,0,1.070159912109375
0.177122064,0,0,1.5729905366897583,0,0,0.2293200045824051
0.177337765,0,0,1.5729905366897583,0,0,0.5350799560546875
0.177553207,0,0,1.5729905366897583,0,0,0.5350799560546875
0.177769205,0,0,1.5729905366897583,0,0,0
0.177985906,0,0,1.6496049165725708,0,0,0.9172800183296204
0.178201663,0,0,1.6496049165725708,0,0,0.9172800183296204
0.17841692,0,0,1.6496049165725708,0,0,1.9109998941421509
0.178632714,0,0,1.6496049165725708,0,0,0.152879998087883
0.178849138,0,0,1.6496049165725708,0,0,0.152879998087883
0.179065469,0,0,1.6328455209732056,0,0,1.1466000080108643
0.179281466,0,0,1.6328455209732056,0,0,0.5350799560546875
0.179497334,0,0,1.6328455209732056,0,0,0.5350799560546875
0.179720887,0,0,1.6328455209732056,0,0,1.2994799613952637
0.179932404,0,0,1.6328455209732056,0,0,0.8408399820327759
0.180148938,0,0,1.7166426181793213,0,0,0.8408399820327759
0.180364899,0,0,1.7166426181793213,0,0,1.375920057296753
0.180580859,0,0,1.7166426181793213,0,0,1.070159912109375
0.180796431,0,0,1.7166426181793213,0,0,1.070159912109375
0.181012299,0,0,1.5442601442337036,0,0,0.7644000053405762
0.18122863,0,0,1.5442601442337036,0,0,0.7644000053405762
0.18144435,0,0,1.5442601442337036,0,0,0.7644000053405762
0.181660236,0,0,1.5442601442337036,0,0,0.2293200045824051
0.181876253,0,0,1.5442601442337036,0,0,1.070159912109375
0.182092028,0,0,1.3646949529647827,0,0,1.070159912109375
0.182308526,0,0,1.3646949529647827,0,0,0.2293200045824051
0.182524468,0,0,1.3646949529647827,0,0,0.7644000053405762
0.18274141,0,0,1.3646949529647827,0,0,0.7644000053405762
0.18295637,0,0,1.3646949529647827,0,0,1.375920057296753
0.183171831,0,0,1.4101848602294922,0,0,1.070159912109375
0.183387958,0,0,1.4101848602294922,0,0,1.070159912109375
0.183603715,0,0,1.4101848602294922,0,0,1.452359914779663
0.183819861,0,0,1.4101848602294922,0,0,0.9172800183296204
0.184035507,0,0,1.1779472827911377,0,0,0.9172800183296204
0.184251153,0,0,1.1779472827911377,0,0,1.452359914779663
0.184467502,0,0,1.1779472827911377,0,0,0.7644000053405762
0.184683611,0,0,1.1779472827911377,0,0,0.7644000053405762
0.184899405,0,0,1.1779472827911377,0,0,0.152879998087883
0.185115217,0,0,1.2258312702178955,0,0,0.8408399820327759
0.185330863,0,0,1.2258312702178955,0,0,0.8408399820327759
0.185546879,0,0,1.2258312702178955,0,0,0
0.185762136,0,0,1.2258312702178955,0,0,0.8408399820327759
0.185978041,0,0,1.2258312702178955,0,0,0.8408399820327759
0.186193854,0,0,1.4101848602294922,0,0,9.631440162658691
0.186415573,0,0,1.4101848602294922,0,0,1.070159912109375
0.18662883,0,0,1.4101848602294922,0,0,1.070159912109375
0.18684468,0,0,1.4101848602294922,0,0,2.446079969406128
0.1870604,0,0,1.4772224426269531,0,0,1.070159912109375
0.18727612,0,0,1.4772224426269531,0,0,1.070159912109375
0.187492376,0,0,1.4772224426269531,0,0,1.223039984703064
0.187708244,0,0,1.4772224426269531,0,0,0.7644000053405762
0.187924094,0,0,1.4772224426269531,0,0,0.7644000053405762
0.18813998,0,0,1.5275006294250488,0,0,0.3822000026702881
0.188369441,0,0,1.5275006294250488,0,0,1.1466000080108643
0.188572439,0,0,1.5275006294250488,0,0,1.1466000080108643
0.188788214,0,0,1.5275006294250488,0,0,0.152879998087883
0.18900423,0,0,1.6184803247451782,0,0,0.305759996175766
0.189219783,0,0,1.6184803247451782,0,0,0.305759996175766
0.189435077,0,0,1.6184803247451782,0,0,1.070159912109375
0.189651575,0,0,1.6184803247451782,0,0,0.305759996175766
0.189867295,0,0,1.6184803247451782,0,0,0.305759996175766
0.19008333,0,0,1.5753847360610962,0,0,1.758120059967041
0.190298938,0,0,1.5753847360610962,0,0,0.3822000026702881
0.19051464,0,0,1.5753847360610962,0,0,0.3822000026702881
0.190732341,0,0,1.5753847360610962,0,0,1.9109998941421509
0.190947283,0,0,1.5753847360610962,0,0,1.375920057296753
0.191163133,0,0,1.680729627609253,0,0,1.375920057296753
0.191387186,0,0,1.680729627609253,0,0,1.070159912109375
0.191608591,0,0,1.680729627609253,0,0,0.8408399820327759
0.191847644,0,0,1.680729627609253,0,0,0.8408399820327759
0.192066234,0,0,1.436521053314209,0,0,0.8408399820327759
0.192294546,0,0,1.436521053314209,0,0,1.452359914779663
0.19251847,0,0,1.436521053314209,0,0,0.9937199950218201
0.192735986,0,0,1.436521053314209,0,0,0.9937199950218201
0.192960187,0,0,1.436521053314209,0,0,0.5350799560546875
0.193201073,0,0,1.3503297567367554,0,0,0.5350799560546875
0.193420849,0,0,1.3503297567367554,0,0,0.5350799560546875
0.193641217,0,0,1.3503297567367554,0,0,0.5350799560546875
0.193868066,0,0,1.3503297567367554,0,0,0.9937199950218201
0.194095304,0,0,1.3479355573654175,0,0,0.9937199950218201
0.194313302,0,0,1.3479355573654175,0,0,1.452359914779663
0.19453204,0,0,1.3479355573654175,0,0,0.4586400091648102
0.194779112,0,0,1.3479355573654175,0,0,0.611519992351532
0.194996739,0,0,1.3479355573654175,0,0,0.611519992351532
0.195214848,0,0,1.2713210582733154,0,0,0.4586400091648102
0.195433845,0,0,1.2713210582733154,0,0,0.7644000053405762
0.195650954,0,0,1.2713210582733154,0,0,0.7644000053405762
0.197341139,0,0,1.3670891523361206,0,0,0.9172800183296204
0.197554637,0,0,1.3670891523361206,0,0,0.9172800183296204
0.19777719,0,0,1.3670891523361206,0,0,0.8408399820327759
0.198001613,0,0,1.5107412338256836,0,0,0.8408399820327759
0.198224685,0,0,1.5107412338256836,0,0,0.5350799560546875
0.19844646,0,0,1.5107412338256836,0,0,0.0764399990439415
0.198708532,0,0,1.5107412338256836,0,0,0.3822000026702881
0.198924955,0,0,1.5107412338256836,0,0,0.3822000026702881
0.199148323,0,0,1.623268723487854,0,0,1.452359914779663
0.199364136,0,0,1.623268723487854,0,0,1.2994799613952637
0.199576355,0,0,1.623268723487854,0,0,1.2994799613952637
0.199790761,0,0,1.623268723487854,0,0,1.1466000080108643
0.200004684,0,0,1.5442601442337036,0,0,0.4586400091648102
0.20021896,0,0,1.5442601442337036,0,0,0.4586400091648102
0.20043292,0,0,1.5442601442337036,0,0,0.9172800183296204
0.200646899,0,0,1.5442601442337036,0,0,0.7644000053405762
0.200861527,0,0,1.5442601442337036,0,0,0.7644000053405762
0.201077209,0,0,1.5083470344543457,0,0,1.452359914779663
0.201291596,0,0,1.5083470344543457,0,0,0.5350799560546875
0.201517279,0,0,1.5083470344543457,0,0,0.5350799560546875
0.201726202,0,0,1.5083470344543457,0,0,1.223039984703064
0.201939793,0,0,1.5083470344543457,0,0,1.2994799613952637
0.202154679,0,0,1.5753847360610962,0,0,1.2994799613952637
0.202368492,0,0,1.5753847360610962,0,0,0.6879600286483765
0.202604304,0,0,1.5753847360610962,0,0,0.6879600286483765
0.202802468,0,0,1.5753847360610962,0,0,0.6879600286483765
0.203018114,0,0,1.37906014919281,0,0,1.2994799613952637
0.203234945,0,0,1.37906014919281,0,0,0.8408399820327759
0.203451295,0,0,1.37906014919281,0,0,0.8408399820327759
0.203667644,0,0,1.37906014919281,0,0,1.070159912109375
0.203892734,0,0,1.37906014919281,0,0,0.9172800183296204
0.204100232,0,0,1.3479355573654175,0,0,0.9172800183296204
0.204317193,0,0,1.3479355573654175,0,0,-0.305759996175766
0.204533894,0,0,1.3479355573654175,0,0,0.4586400091648102
0.204750169,0,0,1.3479355573654175,0,0,0.4586400091648102
0.204966445,0,0,1.3479355573654175,0,0,1.1466000080108643
0.205182535,0,0,1.37906014919281,0,0,1.070159912109375
0.20539907,0,0,1.37906014919281,0,0,1.070159912109375
0.205615475,0,0,1.37906014919281,0,0,0.8408399820327759
0.205832102,0,0,1.37906014919281,0,0,0.8408399820327759
0.206048137,0,0,1.0989385843276978,0,0,0.8408399820327759
0.206264505,0,0,1.0989385843276978,0,0,1.452359914779663
0.206481558,0,0,1.0989385843276978,0,0,1.070159912109375
0.206698444,0,0,1.0989385843276978,0,0,1.070159912109375
0.206912164,0,0,1.0989385843276978,0,0,0
0.20712644,0,0,1.3120225667953491,0,0,0.9172800183296204
0.207340382,0,0,1.3120225667953491,0,0,0.9172800183296204
0.207554398,0,0,1.3120225667953491,0,0,0.611519992351532
0.20776847,0,0,1.3120225667953491,0,0,1.223039984703064
0.20798243,0,0,1.3120225667953491,0,0,1.223039984703064
0.208203669,0,0,1.4724340438842773,0,0,0.2293200045824051
0.208415185,0,0,1.4724340438842773,0,0,0.9172800183296204
0.208629238,0,0,1.4724340438842773,0,0,0.9172800183296204
0.208842902,0,0,1.4724340438842773,0,0,-29.582279205322266
0.209056585,0,0,1.5849615335464478,0,0,0.6879600286483765
0.209270694,0,0,1.5849615335464478,0,0,0.6879600286483765
0.209485377,0,0,1.5849615335464478,0,0,-0.611519992351532
0.209699504,0,0,1.5849615335464478,0,0,0.7644000053405762
0.209913539,0,0,1.5849615335464478,0,0,0.7644000053405762
0.210127351,0,0,1.6304513216018677,0,0,0.5350799560546875
0.210341405,0,0,1.6304513216018677,0,0,1.1466000080108643
0.210555847,0,0,1.6304513216018677,0,0,1.1466000080108643
0.210772289,0,0,1.6304513216018677,0,0,0.7644000053405762
0.21098812,0,0,1.6304513216018677,0,0,0.3822000026702881
0.211204154,0,0,1.4317326545715332,0,0,0.3822000026702881
0.211420059,0,0,1.4317326545715332,0,0,1.1466000080108643
0.211636631,0,0,1.4317326545715332,0,0,0.7644000053405762
0.211852518,0,0,1.4317326545715332,0,0,0.7644000053405762
0.212068534,0,0,1.656787633895874,0,0,0
0.212284439,0,0,1.656787633895874,0,0,0.9172800183296204
0.212500011,0,0,1.656787633895874,0,0,0.9172800183296204
0.212716601,0,0,1.656787633895874,0,0,0.7644000053405762
0.212932654,0,0,1.656787633895874,0,0,0.9937199950218201
0.213148781,0,0,1.5298948287963867,0,0,0.9937199950218201
0.213365168,0,0,1.5298948287963867,0,0,1.375920057296753
0.213580999,0,0,1.5298948287963867,0,0,0.9172800183296204
0.213797385,0,0,1.5298948287963867,0,0,0.9172800183296204
0.214013346,0,0,1.5298948287963867,0,0,1.605239987373352
0.214229214,0,0,1.381454348564148,0,0,0.9172800183296204
0.214445415,0,0,1.381454348564148,0,0,0.9172800183296204
0.214673079,0,0,1.381454348564148,0,0,9.631440162658691
0.214883133,0,0,1.381454348564148,0,0,0.9172800183296204
0.21509626,0,0,1.2952631711959839,0,0,0.9172800183296204
0.215312091,0,0,1.2952631711959839,0,0,1.605239987373352
0.215528366,0,0,1.2952631711959839,0,0,0.9937199950218201
0.215744827,0,0,1.2952631711959839,0,0,0.9937199950218201
0.215960121,0,0,1.2952631711959839,0,0,0.611519992351532
0.216175896,0,0,1.2689268589019775,0,0,0.9937199950218201
0.216392042,0,0,1.2689268589019775,0,0,0.9937199950218201
0.216607947,0,0,1.2689268589019775,0,0,0.6879600286483765
0.216824593,0,0,1.2689268589019775,0,0,1.070159912109375
0.217040498,0,0,1.2737152576446533,0,0,1.070159912109375
0.217256514,0,0,1.2737152576446533,0,0,0.2293200045824051
0.217472475,0,0,1.2737152576446533,0,0,0.305759996175766
0.217698139,0,0,1.2737152576446533,0,0,0.305759996175766
0.217905248,0,0,1.2737152576446533,0,0,0.5350799560546875
0.218121153,0,0,1.479616641998291,0,0,0.8408399820327759
0.218337095,0,0,1.479616641998291,0,0,0.8408399820327759
0.218553352,0,0,1.479616641998291,0,0,0.9937199950218201
0.21877159,0,0,1.479616641998291,0,0,1.1466000080108643
0.21898831,0,0,1.479616641998291,0,0,1.1466000080108643
0.219204141,0,0,1.4437036514282227,0,0,1.6816799640655518
0.219419916,0,0,1.4437036514282227,0,0,0.8408399820327759
0.219635821,0,0,1.4437036514282227,0,0,0.8408399820327759
0.219851838,0,0,1.4437036514282227,0,0,0.9172800183296204
0.220068391,0,0,1.5275006294250488,0,0,0.7644000053405762
0.220284351,0,0,1.5275006294250488,0,0,0.7644000053405762
0.220500293,0,0,1.5275006294250488,0,0,0
0.220716273,0,0,1.5275006294250488,0,0,1.375920057296753
0.2209324,0,0,1.5275006294250488,0,0,1.375920057296753
0.22114886,0,0,1.5729905366897583,0,0,0.2293200045824051
0.221364877,0,0,1.5729905366897583,0,0,0.3822000026702881
0.221586819,0,0,1.5729905366897583,0,0,0.3822000026702881
0.221799798,0,0,1.5729905366897583,0,0,1.5288000106811523
0.22201574,0,0,1.5729905366897583,0,0,0.9172800183296204
0.222231775,0,0,1.455674648284912,0,0,0.9172800183296204
0.22244792,0,0,1.455674648284912,0,0,0.5350799560546875
0.222682529,0,0,1.455674648284912,0,0,0.4586400091648102
0.222881175,0,0,1.455674648284912,0,0,0.4586400091648102
0.223097839,0,0,1.723825216293335,0,0,1.8345600366592407
0.223313615,0,0,1.723825216293335,0,0,1.070159912109375
0.223529686,0,0,1.723825216293335,0,0,1.070159912109375
0.223745536,0,0,1.723825216293335,0,0,0.305759996175766
0.223961441,0,0,1.723825216293335,0,0,0.9172800183296204
0.22417805,0,0,1.4867992401123047,0,0,0.9172800183296204
0.224394473,0,0,1.4867992401123047,0,0,1.6816799640655518
0.224610323,0,0,1.4867992401123047,0,0,0
0.22482645,0,0,1.4867992401123047,0,0,0
0.225042485,0,0,1.4077905416488647,0,0,1.9874399900436401
0.225259056,0,0,1.4077905416488647,0,0,1.2994799613952637
0.225475165,0,0,1.4077905416488647,0,0,1.2994799613952637
0.225691348,0,0,1.4077905416488647,0,0,0.9172800183296204
0.225907105,0,0,1.4077905416488647,0,0,1.070159912109375
0.226123158,0,0,1.3694833517074585,0,0,1.070159912109375
0.226339878,0,0,1.3694833517074585,0,0,1.375920057296753
0.226555561,0,0,1.3694833517074585,0,0,0.6879600286483765
0.226772966,0,0,1.3694833517074585,0,0,0.6879600286483765
0.226988204,0,0,1.3694833517074585,0,0,2.14031982421875
0.227204942,0,0,1.3335703611373901,0,0,1.070159912109375
0.227423514,0,0,1.3335703611373901,0,0,1.070159912109375
0.227639141,0,0,1.3335703611373901,0,0,0.6879600286483765
0.227854861,0,0,1.3335703611373901,0,0,0.9172800183296204
0.228070896,0,0,1.3263877630233765,0,0,0.9172800183296204
0.228293653,0,0,1.3263877630233765,0,0,0.9937199950218201
0.228506206,0,0,1.3263877630233765,0,0,1.1466000080108643
0.228722315,0,0,1.3263877630233765,0,0,1.1466000080108643
0.228938386,0,0,1.3263877630233765,0,0,2.06387996673584
0.229154551,0,0,1.381454348564148,0,0,0.8408399820327759
0.229370641,0,0,1.381454348564148,0,0,0.8408399820327759
0.229586916,0,0,1.381454348564148,0,0,2.2932000160217285
0.22980271,0,0,1.381454348564148,0,0,0.9172800183296204
0.230019004,0,0,1.381454348564148,0,0,0.9172800183296204
0.230234335,0,0,1.525106430053711,0,0,0.9172800183296204
0.230451166,0,0,1.525106430053711,0,0,1.070159912109375
0.230707126,0,0,1.525106430053711,0,0,0.8408399820327759
0.230900532,0,0,1.525106430053711,0,0,0.8408399820327759
0.231116863,0,0,1.6328455209732056,0,0,1.070159912109375
0.231333249,0,0,1.6328455209732056,0,0,1.070159912109375
0.231561821,0,0,1.6328455209732056,0,0,1.070159912109375
0.231766744,0,0,1.6328455209732056,0,0,1.070159912109375
0.231982816,0,0,1.6328455209732056,0,0,0.2293200045824051
0.232199258,0,0,1.5945383310317993,0,0,0.2293200045824051
0.232415348,0,0,1.5945383310317993,0,0,0.9172800183296204
0.232632087,0,0,1.5945383310317993,0,0,0.4586400091648102
0.232848362,0,0,1.5945383310317993,0,0,0.4586400091648102
0.233064471,0,0,1.5634137392044067,0,0,1.070159912109375
0.233280802,0,0,1.5634137392044067,0,0,1.070159912109375
0.233496596,0,0,1.5634137392044067,0,0,1.070159912109375
0.233713668,0,0,1.5634137392044067,0,0,0.4586400091648102
0.233929924,0,0,1.5634137392044067,0,0,0.5350799560546875
0.234146181,0,0,1.623268723487854,0,0,0.5350799560546875
0.234362346,0,0,1.623268723487854,0,0,1.223039984703064
0.234578621,0,0,1.623268723487854,0,0,0.7644000053405762
0.234795693,0,0,1.623268723487854,0,0,0.7644000053405762
0.235015357,0,0,1.623268723487854,0,0,0.9172800183296204
0.23522654,0,0,1.4652514457702637,0,0,1.223039984703064
0.23544076,0,0,1.4652514457702637,0,0,1.223039984703064
0.235654739,0,0,1.4652514457702637,0,0,1.375920057296753
0.235869033,0,0,1.4652514457702637,0,0,0.6879600286483765
0.236082771,0,0,1.414973258972168,0,0,0.6879600286483765
0.236296806,0,0,1.414973258972168,0,0,1.452359914779663
0.236510619,0,0,1.414973258972168,0,0,0.6879600286483765
0.236725579,0,0,1.414973258972168,0,0,0.6879600286483765
0.236939243,0,0,1.414973258972168,0,0,0.5350799560546875
0.237153278,0,0,1.3527239561080933,0,0,0.9937199950218201
0.237366998,0,0,1.3527239561080933,0,0,0.9937199950218201
0.237580903,0,0,1.3527239561080933,0,0,1.452359914779663
0.237795475,0,0,1.3527239561080933,0,0,0.7644000053405762
0.238009621,0,0,1.3527239561080933,0,0,0.7644000053405762
0.238223692,0,0,1.161187767982483,0,0,0.9937199950218201
0.238437672,0,0,1.161187767982483,0,0,0.9937199950218201
0.238692021,0,0,1.161187767982483,0,0,0.5350799560546875
0.238943833,0,0,1.161187767982483,0,0,0.152879998087883
0.239160645,0,0,1.3335703611373901,0,0,1.070159912109375
0.239377032,0,0,1.3335703611373901,0,0,1.070159912109375
0.239593492,0,0,1.3335703611373901,0,0,1.605239987373352
0.239809934,0,0,1.3335703611373901,0,0,0.611519992351532
0.240026747,0,0,1.3335703611373901,0,0,0.611519992351532
0.240242837,0,0,1.482010841369629,0,0,0.5350799560546875
0.240459094,0,0,1.482010841369629,0,0,0.8408399820327759
0.240675277,0,0,1.482010841369629,0,0,0.8408399820327759
0.24094757,0,0,1.482010841369629,0,0,2.06387996673584
0.241181086,0,0,1.5825673341751099,0,0,1.452359914779663
0.24141438,0,0,1.5825673341751099,0,0,0.5350799560546875
0.241647396,0,0,1.5825673341751099,0,0,0.5350799560546875
0.241887689,0,0,1.5825673341751099,0,0,0.8408399820327759
0.242117854,0,0,1.6328455209732056,0,0,1.5288000106811523
0.242351369,0,0,1.6328455209732056,0,0,0.9172800183296204
0.242584497,0,0,1.6328455209732056,0,0,0.9172800183296204
0.242817957,0,0,1.6328455209732056,0,0,0.305759996175766
0.243049399,0,0,1.5083470344543457,0,0,0.0764399990439415
0.243279952,0,0,1.5083470344543457,0,0,0.0764399990439415
0.243510653,0,0,1.5083470344543457,0,0,2.14031982421875
0.243741502,0,0,1.5083470344543457,0,0,1.2994799613952637
0.243972074,0,0,1.5083470344543457,0,0,0.8408399820327759
0.244203516,0,0,1.6184803247451782,0,0,0.8408399820327759
0.244434162,0,0,1.6184803247451782,0,0,0.0764399990439415
0.24466477,0,0,1.6184803247451782,0,0,1.1466000080108643
0.24489549,0,0,1.6184803247451782,0,0,1.1466000080108643
0.24512671,0,0,1.558625340461731,0,0,0.9172800183296204
0.245357392,0,0,1.558625340461731,0,0,0.8408399820327759
0.245588112,0,0,1.558625340461731,0,0,0.3822000026702881
0.24582998,0,0,1.558625340461731,0,0,0.3822000026702881
0.246050403,0,0,1.357512354850769,0,0,1.758120059967041
0.246281734,0,0,1.357512354850769,0,0,0.7644000053405762
0.246512694,0,0,1.357512354850769,0,0,0.7644000053405762
0.246743007,0,0,1.357512354850769,0,0,0.4586400091648102
0.246976374,0,0,1.357512354850769,0,0,0.7644000053405762
0.247209965,0,0,1.290474772453308,0,0,0.7644000053405762
0.24744211,0,0,1.290474772453308,0,0,0.7644000053405762
0.247674978,0,0,1.290474772453308,0,0,0.2293200045824051
0.24790792,0,0,1.290474772453308,0,0,0.9172800183296204
0.24814088,0,0,1.3287819623947144,0,0,0.9172800183296204
0.248374452,0,0,1.3287819623947144,0,0,0.9937199950218201
0.248607246,0,0,1.3287819623947144,0,0,1.070159912109375
0.248840613,0,0,1.3287819623947144,0,0,0.6879600286483765
0.249079518,0,0,1.280897855758667,0,0,0.6879600286483765
0.249310127,0,0,1.280897855758667,0,0,0
0.249653216,0,0,1.280897855758667,0,0,0.8408399820327759
0.24977777,0,0,1.280897855758667,0,0,0.8408399820327759
0.250010304,0,0,1.280897855758667,0,0,0.8408399820327759
0.250242802,0,0,1.3982137441635132,0,0,0.3822000026702881
0.250476781,0,0,1.3982137441635132,0,0,0.8408399820327759
0.250711056,0,0,1.3982137441635132,0,0,0.8408399820327759
0.25094372,0,0,1.3982137441635132,0,0,9.631440162658691
0.251176403,0,0,1.335964560508728,0,0,0.5350799560546875
0.251410548,0,0,1.335964560508728,0,0,0.7644000053405762
0.251643398,0,0,1.335964560508728,0,0,0.7644000053405762
0.251876321,0,0,1.335964560508728,0,0,0.0764399990439415
0.2521093,0,0,1.577778935432434,0,0,0.6879600286483765
0.252342075,0,0,1.577778935432434,0,0,0.6879600286483765
0.252575647,0,0,1.577778935432434,0,0,0.3822000026702881
0.252808163,0,0,1.577778935432434,0,0,0.5350799560546875
0.253041956,0,0,1.577778935432434,0,0,1.223039984703064
0.253274954,0,0,1.534683346748352,0,0,1.223039984703064
0.253523636,0,0,1.534683346748352,0,0,0.8408399820327759
0.253757745,0,0,1.534683346748352,0,0,0.305759996175766
0.253990761,0,0,1.534683346748352,0,0,0.9172800183296204
0.254223647,0,0,1.4963760375976563,0,0,0.9172800183296204
0.25445633,0,0,1.4963760375976563,0,0,0.9937199950218201
0.254714364,0,0,1.4963760375976563,0,0,0.5350799560546875
0.254947547,0,0,1.4963760375976563,0,0,0.8408399820327759
0.255180748,0,0,1.7381904125213623,0,0,0.8408399820327759
0.255413393,0,0,1.7381904125213623,0,0,1.223039984703064
0.255647076,0,0,1.7381904125213623,0,0,1.070159912109375
0.255880111,0,0,1.7381904125213623,0,0,1.070159912109375
0.256112793,0,0,1.4915876388549805,0,0,0.8408399820327759
0.256355402,0,0,1.4915876388549805,0,0,0.2293200045824051
0.25658401,0,0,1.4915876388549805,0,0,0.3822000026702881
0.256817489,0,0,1.4915876388549805,0,0,0.3822000026702881
0.257050468,0,0,1.4915876388549805,0,0,1.375920057296753
0.257283391,0,0,1.3335703611373901,0,0,1.223039984703064
0.257516056,0,0,1.3335703611373901,0,0,1.223039984703064
0.257749572,0,0,1.3335703611373901,0,0,0.611519992351532
0.257982643,0,0,1.3335703611373901,0,0,0.3822000026702881
0.258215492,0,0,1.3527239561080933,0,0,1.2994799613952637
0.258448471,0,0,1.3527239561080933,0,0,1.2994799613952637
0.25869732,0,0,1.3527239561080933,0,0,0.611519992351532
0.258930781,0,0,1.3527239561080933,0,0,1.375920057296753
0.259164075,0,0,1.2330138683319092,0,0,1.223039984703064
0.259397017,0,0,1.2330138683319092,0,0,1.223039984703064
0.259630014,0,0,1.2330138683319092,0,0,0.7644000053405762
0.259863771,0,0,1.2330138683319092,0,0,0.611519992351532
0.260096787,0,0,1.237802267074585,0,0,0.611519992351532
0.260329599,0,0,1.237802267074585,0,0,0.152879998087883
0.260562541,0,0,1.237802267074585,0,0,0.5350799560546875
0.260795446,0,0,1.237802267074585,0,0,0.4586400091648102
0.261029295,0,0,1.237802267074585,0,0,0.4586400091648102
0.261262292,0,0,1.3287819623947144,0,0,1.2994799613952637
0.261495068,0,0,1.3287819623947144,0,0,0.611519992351532
0.261728176,0,0,1.3287819623947144,0,0,0.8408399820327759
0.261961637,0,0,1.3287819623947144,0,0,0.8408399820327759
0.262194875,0,0,1.4772224426269531,0,0,1.2994799613952637
0.262427872,0,0,1.4772224426269531,0,0,0.6879600286483765
0.262675555,0,0,1.4772224426269531,0,0,0.6879600286483765
0.262894849,0,0,1.4772224426269531,0,0,1.223039984703064
0.263128346,0,0,1.5945383310317993,0,0,0.9937199950218201
0.263361547,0,0,1.5945383310317993,0,0,1.1466000080108643
0.263600767,0,0,1.5945383310317993,0,0,1.1466000080108643
0.26383019,0,0,1.5945383310317993,0,0,1.375920057296753
0.264063669,0,0,1.5945383310317993,0,0,0.5350799560546875
0.264297111,0,0,1.4867992401123047,0,0,0.5350799560546875
0.264529923,0,0,1.4867992401123047,0,0,0
0.264763347,0,0,1.4867992401123047,0,0,1.1466000080108643
0.264996233,0,0,1.4867992401123047,0,0,0.8408399820327759
0.265229545,0,0,1.5298948287963867,0,0,0.8408399820327759
0.265462728,0,0,1.5298948287963867,0,0,9.631440162658691
0.265695522,0,0,1.5298948287963867,0,0,0.611519992351532
0.265928334,0,0,1.5298948287963867,0,0,0.611519992351532
0.26616235,0,0,1.6687586307525635,0,0,0.611519992351532
0.266395718,0,0,1.6687586307525635,0,0,0.5350799560546875
0.266628197,0,0,1.6687586307525635,0,0,1.070159912109375
0.266862083,0,0,1.6687586307525635,0,0,1.070159912109375
0.267094877,0,0,1.4245500564575195,0,0,0.152879998087883
0.267327726,0,0,1.4245500564575195,0,0,0.7644000053405762
0.267560612,0,0,1.4245500564575195,0,0,0.9172800183296204
0.267793647,0,0,1.4245500564575195,0,0,0.9172800183296204
0.268026867,0,0,1.4245500564575195,0,0,0.4586400091648102
0.268260272,0,0,1.3335703611373901,0,0,0.9172800183296204
0.26849351,0,0,1.3335703611373901,0,0,0.9172800183296204
0.268726192,0,0,1.3335703611373901,0,0,0.8408399820327759
0.268958968,0,0,1.3335703611373901,0,0,0.611519992351532
0.269191854,0,0,1.3455413579940796,0,0,1.1466000080108643
0.269424944,0,0,1.3455413579940796,0,0,1.1466000080108643
0.269657738,0,0,1.3455413579940796,0,0,1.070159912109375
0.269890717,0,0,1.3455413579940796,0,0,0.7644000053405762
0.270123603,0,0,1.173158884048462,0,0,0.7644000053405762
0.270357193,0,0,1.173158884048462,0,0,0
0.270590246,0,0,1.173158884048462,0,0,1.1466000080108643
0.270831132,0,0,1.173158884048462,0,0,0.9172800183296204
0.271061333,0,0,1.173158884048462,0,0,0.9172800183296204
0.271294664,0,0,1.338358759880066,0,0,0.9172800183296204
0.27152768,0,0,1.338358759880066,0,0,0.4586400091648102
0.271760789,0,0,1.338358759880066,0,0,0.9172800183296204
0.271993323,0,0,1.338358759880066,0,0,0.9172800183296204
0.272226469,0,0,1.4676456451416016,0,0,0.9172800183296204
0.272460096,0,0,1.4676456451416016,0,0,0.5350799560546875
0.272693205,0,0,1.4676456451416016,0,0,0.5350799560546875
0.272926332,0,0,1.4676456451416016,0,0,1.758120059967041
0.273159496,0,0,1.534683346748352,0,0,0.4586400091648102
0.273392586,0,0,1.534683346748352,0,0,0.8408399820327759
0.273625843,0,0,1.534683346748352,0,0,0.8408399820327759
0.273858858,0,0,1.534683346748352,0,0,1.223039984703064
0.274091782,0,0,1.6136919260025024,0,0,1.452359914779663
0.27432465,0,0,1.6136919260025024,0,0,1.452359914779663
0.274558351,0,0,1.6136919260025024,0,0,1.452359914779663
0.274792515,0,0,1.6136919260025024,0,0,0.3822000026702881
0.275024624,0,0,1.6136919260025024,0,0,0.152879998087883
0.275257714,0,0,1.6639702320098877,0,0,0.152879998087883
0.275490915,0,0,1.6639702320098877,0,0,0.152879998087883
0.275724042,0,0,1.6639702320098877,0,0,1.070159912109375
0.275957039,0,0,1.6639702320098877,0,0,1.070159912109375
0.276190314,0,0,1.702277421951294,0,0,0.8408399820327759
0.276423349,0,0,1.702277421951294,0,0,1.070159912109375
0.276656846,0,0,1.702277421951294,0,0,0.6879600286483765
0.276889566,0,0,1.702277421951294,0,0,0.6879600286483765
0.277122749,0,0,1.659181833267212,0,0,0.2293200045824051
0.27735595,0,0,1.659181833267212,0,0,1.1466000080108643
0.277588744,0,0,1.659181833267212,0,0,1.1466000080108643
0.277822278,0,0,1.659181833267212,0,0,1.1466000080108643
0.278061201,0,0,1.659181833267212,0,0,0
0.278291125,0,0,1.3527239561080933,0,0,0.7644000053405762
0.278524178,0,0,1.3527239561080933,0,0,0.7644000053405762
0.278759286,0,0,1.3527239561080933,0,0,1.452359914779663
0.278991302,0,0,1.3527239561080933,0,0,0.611519992351532
0.279238874,0,0,1.3934253454208374,0,0,0.5350799560546875
0.279457427,0,0,1.3934253454208374,0,0,0.5350799560546875
0.279690387,0,0,1.3934253454208374,0,0,0.5350799560546875
0.27992357,0,0,1.3934253454208374,0,0,1.452359914779663
0.280156475,0,0,1.235408067703247,0,0,1.452359914779663
0.28038962,0,0,1.235408067703247,0,0,0.7644000053405762
0.280622488,0,0,1.235408067703247,0,0,0
0.280856467,0,0,1.235408067703247,0,0,1.1466000080108643
0.281089761,0,0,1.1994950771331787,0,0,1.1466000080108643
0.281323055,0,0,1.1994950771331787,0,0,0.8408399820327759
0.281556348,0,0,1.1994950771331787,0,0,0.305759996175766
0.281789327,0,0,1.1994950771331787,0,0,0.6879600286483765
0.282022473,0,0,1.1994950771331787,0,0,0.6879600286483765
0.282255693,0,0,1.3766659498214722,0,0,1.5288000106811523
0.282488486,0,0,1.3766659498214722,0,0,0.8408399820327759
0.282722502,0,0,1.3766659498214722,0,0,0.8408399820327759
0.282955592,0,0,1.3766659498214722,0,0,1.758120059967041
0.283188905,0,0,1.4389152526855469,0,0,1.070159912109375
0.283421661,0,0,1.4389152526855469,0,0,0.8408399820327759
0.283654511,0,0,1.4389152526855469,0,0,0.8408399820327759
0.283887564,0,0,1.4389152526855469,0,0,1.223039984703064
0.284121135,0,0,1.5729905366897583,0,0,0.2293200045824051
0.284354299,0,0,1.5729905366897583,0,0,0.2293200045824051
0.284587371,0,0,1.5729905366897583,0,0,0.152879998087883
0.284820628,0,0,1.5729905366897583,0,0,1.070159912109375
0.285054366,0,0,1.5729905366897583,0,0,0.9937199950218201
0.285293345,0,0,1.6160861253738403,0,0,0.9937199950218201
0.285523305,0,0,1.6160861253738403,0,0,0.8408399820327759
0.285756265,0,0,1.6160861253738403,0,0,0.9172800183296204
0.285988911,0,0,1.6160861253738403,0,0,0.9172800183296204
0.286222372,0,0,1.4700398445129395,0,0,0.9172800183296204
0.286455684,0,0,1.4700398445129395,0,0,0.7644000053405762
0.286703996,0,0,1.4700398445129395,0,0,0.5350799560546875
0.286936771,0,0,1.4700398445129395,0,0,0.5350799560546875
0.28717075,0,0,1.5849615335464478,0,0,0
0.287404118,0,0,1.5849615335464478,0,0,0.9937199950218201
0.287637356,0,0,1.5849615335464478,0,0,1.070159912109375
0.287870261,0,0,1.5849615335464478,0,0,1.070159912109375
0.288104314,0,0,1.4389152526855469,0,0,0
0.288336274,0,0,1.4389152526855469,0,0,1.1466000080108643
0.288569513,0,0,1.4389152526855469,0,0,1.1466000080108643
0.288802528,0,0,1.4389152526855469,0,0,0.5350799560546875
0.289035656,0,0,1.4389152526855469,0,0,0.2293200045824051
0.289269597,0,0,1.4293384552001953,0,0,0.5350799560546875
0.289502225,0,0,1.4293384552001953,0,0,0.5350799560546875
0.289735407,0,0,1.4293384552001953,0,0,1.223039984703064
0.28996846,0,0,1.4293384552001953,0,0,1.1466000080108643
0.290202439,0,0,1.4077905416488647,0,0,1.2994799613952637
0.290435492,0,0,1.4077905416488647,0,0,1.2994799613952637
0.290684212,0,0,1.4077905416488647,0,0,1.070159912109375
0.290917005,0,0,1.4077905416488647,0,0,1.070159912109375
0.29115017,0,0,1.2497732639312744,0,0,1.070159912109375
0.291384056,0,0,1.2497732639312744,0,0,2.06387996673584
0.291616813,0,0,1.2497732639312744,0,0,0.5350799560546875
0.291849754,0,0,1.2497732639312744,0,0,0.9172800183296204
0.292082585,0,0,1.2497732639312744,0,0,0.9172800183296204
0.292315972,0,0,1.3024457693099976,0,0,0.305759996175766
0.292555043,0,0,1.3024457693099976,0,0,0.6879600286483765
0.292784855,0,0,1.3024457693099976,0,0,0.9172800183296204
0.293017723,0,0,1.3024457693099976,0,0,0.9172800183296204
0.293251072,0,0,1.3407529592514038,0,0,0.9937199950218201
0.293484107,0,0,1.3407529592514038,0,0,0.4586400091648102
0.293717623,0,0,1.3407529592514038,0,0,0.4586400091648102
0.293950509,0,0,1.3407529592514038,0,0,1.223039984703064
0.294183692,0,0,1.4484920501708984,0,0,0.9172800183296204
0.294417282,0,0,1.4484920501708984,0,0,0.6879600286483765
0.294650316,0,0,1.4484920501708984,0,0,0.6879600286483765
0.294884092,0,0,1.4484920501708984,0,0,0.3822000026702881
0.295117385,0,0,1.53707754611969,0,0,0.9172800183296204
0.295350383,0,0,1.53707754611969,0,0,0.9172800183296204
0.295584343,0,0,1.53707754611969,0,0,1.375920057296753
0.295817581,0,0,1.53707754611969,0,0,0.9172800183296204
0.29605069,0,0,1.53707754611969,0,0,0.4586400091648102
0.296283817,0,0,1.6160861253738403,0,0,0.4586400091648102
0.296517407,0,0,1.6160861253738403,0,0,0
0.296750386,0,0,1.6160861253738403,0,0,0.6879600286483765
0.296983661,0,0,1.6160861253738403,0,0,0.6879600286483765
0.297216418,0,0,1.5275006294250488,0,0,1.070159912109375
0.297450027,0,0,1.5275006294250488,0,0,1.1466000080108643
0.297683339,0,0,1.5275006294250488,0,0,0.6879600286483765
0.297916614,0,0,1.5275006294250488,0,0,0.6879600286483765
0.298149834,0,0,1.6208745241165161,0,0,1.6816799640655518
0.298382831,0,0,1.6208745241165161,0,0,1.375920057296753
0.298616421,0,0,1.6208745241165161,0,0,0.5350799560546875
0.298849771,0,0,1.6208745241165161,0,0,0.5350799560546875
0.299082805,0,0,1.6208745241165161,0,0,0.8408399820327759
0.299315802,0,0,1.3335703611373901,0,0,1.070159912109375
0.299548967,0,0,1.3335703611373901,0,0,1.070159912109375
0.299788186,0,0,1.3335703611373901,0,0,1.070159912109375
0.300018221,0,0,1.3335703611373901,0,0,0.7644000053405762
0.300251663,0,0,1.3455413579940796,0,0,0.611519992351532
0.300484623,0,0,1.3455413579940796,0,0,0.611519992351532
0.300718324,0,0,1.3455413579940796,0,0,1.9874399900436401
0.300951525,0,0,1.3455413579940796,0,0,0.9937199950218201
0.301184449,0,0,1.414973258972168,0,0,0.9937199950218201
0.301417502,0,0,1.414973258972168,0,0,0.6879600286483765
0.301650592,0,0,1.414973258972168,0,0,0.4586400091648102
0.301884348,0,0,1.414973258972168,0,0,0.7644000053405762
0.302117587,0,0,1.139639973640442,0,0,0.7644000053405762
0.30235051,0,0,1.139639973640442,0,0,1.1466000080108643
0.302583619,0,0,1.139639973640442,0,0,1.223039984703064
0.302818338,0,0,1.139639973640442,0,0,0.9937199950218201
0.303050002,0,0,1.139639973640442,0,0,0.9937199950218201
0.303283333,0,0,1.290474772453308,0,0,0.3822000026702881
0.303516275,0,0,1.290474772453308,0,0,0.9937199950218201
0.303749236,0,0,1.290474772453308,0,0,0.9937199950218201
0.303982789,0,0,1.290474772453308,0,0,1.6816799640655518
0.30421599,0,0,1.460463047027588,0,0,0.4586400091648102
0.304448913,0,0,1.460463047027588,0,0,0.9172800183296204
0.304681929,0,0,1.460463047027588,0,0,0.9172800183296204
0.304915556,0,0,1.460463047027588,0,0,0.7644000053405762
0.305148813,0,0,1.5275006294250488,0,0,0.9172800183296204
0.305382181,0,0,1.5275006294250488,0,0,0.9172800183296204
0.305615197,0,0,1.5275006294250488,0,0,0
0.305848379,0,0,1.5275006294250488,0,0,1.1466000080108643
0.306082173,0,0,1.5275006294250488,0,0,1.070159912109375
0.306315337,0,0,1.6376339197158813,0,0,1.070159912109375
0.30654839,0,0,1.6376339197158813,0,0,0.152879998087883
0.30678198,0,0,1.6376339197158813,0,0,0.4586400091648102
0.3070212,0,0,1.6376339197158813,0,0,0.6879600286483765
0.307251012,0,0,1.4939818382263184,0,0,0.6879600286483765
0.307483954,0,0,1.4939818382263184,0,0,0.611519992351532
0.307716951,0,0,1.4939818382263184,0,0,0.6879600286483765
0.30794993,0,0,1.4939818382263184,0,0,0.6879600286483765
0.308183354,0,0,1.5131354331970215,0,0,0.4586400091648102
0.308416333,0,0,1.5131354331970215,0,0,1.1466000080108643
0.308649552,0,0,1.5131354331970215,0,0,0.9937199950218201
0.308882476,0,0,1.5131354331970215,0,0,0.9937199950218201
0.309115714,0,0,1.5155296325683594,0,0,0.9172800183296204
0.309348878,0,0,1.5155296325683594,0,0,0.9172800183296204
0.309581653,0,0,1.5155296325683594,0,0,0.9172800183296204
0.309814743,0,0,1.5155296325683594,0,0,-0.4586400091648102
0.31004787,0,0,1.5155296325683594,0,0,1.5288000106811523
0.310281534,0,0,1.2521674633026123,0,0,0.9172800183296204
0.31051455,0,0,1.2521674633026123,0,0,0.9172800183296204
0.310749307,0,0,1.2521674633026123,0,0,0
0.310981156,0,0,1.2521674633026123,0,0,1.1466000080108643
0.311214543,0,0,1.357512354850769,0,0,1.1466000080108643
0.311447651,0,0,1.357512354850769,0,0,0.9937199950218201
0.311680871,0,0,1.357512354850769,0,0,0.611519992351532
0.311913943,0,0,1.357512354850769,0,0,0.9172800183296204
0.312147181,0,0,1.455674648284912,0,0,0.9172800183296204
0.312380956,0,0,1.455674648284912,0,0,1.2994799613952637
0.312613879,0,0,1.455674648284912,0,0,0.6879600286483765
0.312846969,0,0,1.455674648284912,0,0,0.7644000053405762
0.313079967,0,0,1.455674648284912,0,0,0.7644000053405762
0.313313298,0,0,1.3024457693099976,0,0,1.5288000106811523
0.313546777,0,0,1.3024457693099976,0,0,0.9172800183296204
0.313779718,0,0,1.3024457693099976,0,0,0.9172800183296204
0.314012327,0,0,1.3024457693099976,0,0,0.5350799560546875
0.314251343,0,0,1.41257905960083,0,0,0.0764399990439415
0.314482137,0,0,1.41257905960083,0,0,0.4586400091648102
0.314715597,0,0,1.41257905960083,0,0,0.4586400091648102
0.314948946,0,0,1.41257905960083,0,0,0.611519992351532
0.315181888,0,0,1.403002142906189,0,0,0.9937199950218201
0.315415478,0,0,1.403002142906189,0,0,0.9937199950218201
0.315648698,0,0,1.403002142906189,0,0,0.611519992351532
0.315881862,0,0,1.403002142906189,0,0,0.305759996175766
0.316114674,0,0,1.403002142906189,0,0,0.4586400091648102
0.316347394,0,0,1.5418659448623657,0,0,0.4586400091648102
0.31658091,0,0,1.5418659448623657,0,0,0.5350799560546875
0.316814204,0,0,1.5418659448623657,0,0,0.5350799560546875
0.317047405,0,0,1.5418659448623657,0,0,0.9937199950218201
0.317280365,0,0,1.6711528301239014,0,0,0.9937199950218201
0.317513937,0,0,1.6711528301239014,0,0,1.5288000106811523
0.317746934,0,0,1.6711528301239014,0,0,0.8408399820327759
0.317979987,0,0,1.6711528301239014,0,0,0.8408399820327759
0.318213077,0,0,1.534683346748352,0,0,1.223039984703064
0.318446353,0,0,1.534683346748352,0,0,0.3822000026702881
0.318695961,0,0,1.534683346748352,0,0,0.3822000026702881
0.318928977,0,0,1.534683346748352,0,0,0.3822000026702881
0.319171771,0,0,1.6687586307525635,0,0,1.223039984703064
0.319395583,0,0,1.6687586307525635,0,0,1.223039984703064
0.319629247,0,0,1.6687586307525635,0,0,1.2994799613952637
0.319862319,0,0,1.6687586307525635,0,0,1.2994799613952637
0.320095168,0,0,1.6687586307525635,0,0,1.2994799613952637
0.320328406,0,0,1.4939818382263184,0,0,0.9172800183296204
0.320561181,0,0,1.4939818382263184,0,0,0.9172800183296204
0.32079466,0,0,1.4939818382263184,0,0,0.305759996175766
0.321027787,0,0,1.4939818382263184,0,0,0.7644000053405762
0.321260581,0,0,1.381454348564148,0,0,0.611519992351532
0.321499764,0,0,1.381454348564148,0,0,0.611519992351532
0.321730539,0,0,1.381454348564148,0,0,1.375920057296753
0.321963907,0,0,1.381454348564148,0,0,0.6879600286483765
0.322196904,0,0,1.4245500564575195,0,0,0.6879600286483765
0.322429976,0,0,1.4245500564575195,0,0,9.478560447692871
0.322677399,0,0,1.4245500564575195,0,0,1.452359914779663
0.322896841,0,0,1.4245500564575195,0,0,0.9172800183296204
0.323130042,0,0,1.3000515699386597,0,0,0.9172800183296204
0.323363003,0,0,1.3000515699386597,0,0,0.0764399990439415
0.323595926,0,0,1.3000515699386597,0,0,0.9937199950218201
0.323829405,0,0,1.3000515699386597,0,0,0.9937199950218201
0.32406218,0,0,1.3000515699386597,0,0,0.611519992351532
0.324295492,0,0,1.3311761617660522,0,0,0.305759996175766
0.324528564,0,0,1.3311761617660522,0,0,0.9172800183296204
0.324761654,0,0,1.3311761617660522,0,0,0.9172800183296204
0.324994781,0,0,1.3311761617660522,0,0,1.1466000080108643
0.325227482,0,0,1.4437036514282227,0,0,0.9172800183296204
0.325460535,0,0,1.4437036514282227,0,0,1.223039984703064
0.325693533,0,0,1.4437036514282227,0,0,1.223039984703064
0.325927104,0,0,1.4437036514282227,0,0,0.611519992351532
0.326160083,0,0,1.436521053314209,0,0,1.223039984703064
0.326393266,0,0,1.436521053314209,0,0,1.223039984703064
0.326626411,0,0,1.436521053314209,0,0,1.9874399900436401
0.326859816,0,0,1.436521053314209,0,0,-0.152879998087883
0.327092684,0,0,1.436521053314209,0,0,0.7644000053405762
0.327325311,0,0,1.5394717454910278,0,0,0.7644000053405762
0.32755816,0,0,1.5394717454910278,0,0,0.611519992351532
0.327791084,0,0,1.5394717454910278,0,0,0.7644000053405762
0.328024859,0,0,1.5394717454910278,0,0,0.7644000053405762
0.328258097,0,0,1.6328455209732056,0,0,0.7644000053405762
0.328491243,0,0,1.6328455209732056,0,0,0.7644000053405762
0.328729944,0,0,1.6328455209732056,0,0,0.4586400091648102
0.328960034,0,0,1.6328455209732056,0,0,0.4586400091648102
0.329193235,0,0,1.4987702369689941,0,0,1.223039984703064
0.329426233,0,0,1.4987702369689941,0,0,1.1466000080108643
0.329659397,0,0,1.4987702369689941,0,0,0.9172800183296204
0.329892431,0,0,1.4987702369689941,0,0,0.9172800183296204
0.330126392,0,0,1.4987702369689941,0,0,0.6879600286483765
0.330359408,0,0,1.721431016921997,0,0,0.611519992351532
0.330592313,0,0,1.721431016921997,0,0,0.611519992351532
0.330826532,0,0,1.721431016921997,0,0,0.5350799560546875
0.331058344,0,0,1.721431016921997,0,0,0.9937199950218201
0.331291712,0,0,1.4197616577148438,0,0,1.070159912109375
0.33152458,0,0,1.4197616577148438,0,0,1.070159912109375
0.331757578,0,0,1.4197616577148438,0,0,1.375920057296753
0.331990594,0,0,1.4197616577148438,0,0,0.9937199950218201
0.33222435,0,0,1.3048399686813354,0,0,0.9937199950218201
0.332457329,0,0,1.3048399686813354,0,0,-29.582279205322266
0.332690512,0,0,1.3048399686813354,0,0,0.8408399820327759
0.332924065,0,0,1.3048399686813354,0,0,0.8408399820327759
0.333157414,0,0,1.2761094570159912,0,0,0.8408399820327759
0.333390615,0,0,1.2761094570159912,0,0,0.152879998087883
0.333623687,0,0,1.2761094570159912,0,0,0.9937199950218201
0.333856721,0,0,1.2761094570159912,0,0,0.9937199950218201
0.334089793,0,0,1.2761094570159912,0,0,0.9172800183296204
0.334323198,0,0,1.1420341730117798,0,0,0.6879600286483765
0.334556491,0,0,1.1420341730117798,0,0,0.5350799560546875
0.33478997,0,0,1.1420341730117798,0,0,0.5350799560546875
0.335023097,0,0,1.1420341730117798,0,0,1.223039984703064
0.335256132,0,0,1.292868971824646,0,0,1.070159912109375
0.33548937,0,0,1.292868971824646,0,0,0.9937199950218201
0.335722275,0,0,1.292868971824646,0,0,0.9937199950218201
0.33596105,0,0,1.292868971824646,0,0,0.5350799560546875
0.336190825,0,0,1.5107412338256836,0,0,1.070159912109375
0.336424656,0,0,1.5107412338256836,0,0,1.070159912109375
0.336658024,0,0,1.5107412338256836,0,0,0.9172800183296204
0.336891207,0,0,1.5107412338256836,0,0,0.611519992351532
0.337124112,0,0,1.5107412338256836,0,0,0.611519992351532
0.337357294,0,0,1.6112977266311646,0,0,0.611519992351532
0.337590662,0,0,1.6112977266311646,0,0,0.9937199950218201
0.337823474,0,0,1.6112977266311646,0,0,0.8408399820327759
0.338056398,0,0,1.6112977266311646,0,0,0.8408399820327759
0.33828958,0,0,1.5897499322891235,0,0,2.2167599201202393
0.338523207,0,0,1.5897499322891235,0,0,1.070159912109375
0.338758371,0,0,1.5897499322891235,0,0,0.7644000053405762
0.338991591,0,0,1.5897499322891235,0,0,0.7644000053405762
0.339224644,0,0,1.4867992401123047,0,0,0.2293200045824051
0.339457419,0,0,1.4867992401123047,0,0,-29.582279205322266
0.339689583,0,0,1.4867992401123047,0,0,0.7644000053405762
0.339922581,0,0,1.4867992401123047,0,0,0.7644000053405762
0.340155282,0,0,1.577778935432434,0,0,0.7644000053405762
0.340388409,0,0,1.577778935432434,0,0,0.305759996175766
0.340622295,0,0,1.577778935432434,0,0,0.305759996175766
0.340855219,0,0,1.577778935432434,0,0,0.2293200045824051
0.341088272,0,0,1.577778935432434,0,0,1.1466000080108643
0.341321288,0,0,1.6136919260025024,0,0,1.1466000080108643
0.341554174,0,0,1.6136919260025024,0,0,1.1466000080108643
0.341787672,0,0,1.6136919260025024,0,0,1.1466000080108643
0.342020762,0,0,1.6136919260025024,0,0,0.611519992351532
0.342253481,0,0,1.3766659498214722,0,0,0.611519992351532
0.342486905,0,0,1.3766659498214722,0,0,9.478560447692871
0.342721402,0,0,1.3766659498214722,0,0,1.223039984703064
0.342954548,0,0,1.3766659498214722,0,0,0.7644000053405762
0.343193971,0,0,1.3742717504501343,0,0,0.7644000053405762
0.343423524,0,0,1.3742717504501343,0,0,1.605239987373352
0.343656744,0,0,1.3742717504501343,0,0,1.375920057296753
0.343889741,0,0,1.3742717504501343,0,0,1.375920057296753
0.344123016,0,0,1.3742717504501343,0,0,0.9937199950218201
0.344355884,0,0,1.3718775510787964,0,0,0.9172800183296204
0.344588845,0,0,1.3718775510787964,0,0,0.7644000053405762
0.344822638,0,0,1.3718775510787964,0,0,0.7644000053405762
0.345056247,0,0,1.3718775510787964,0,0,1.2994799613952637
0.345289152,0,0,1.2713210582733154,0,0,1.223039984703064
0.345522242,0,0,1.2713210582733154,0,0,0.611519992351532
0.345754943,0,0,1.2713210582733154,0,0,0.611519992351532
0.345988144,0,0,1.2713210582733154,0,0,0.0764399990439415
0.346220938,0,0,1.3718775510787964,0,0,0.9937199950218201
0.346453732,0,0,1.3718775510787964,0,0,0.9937199950218201
0.346703211,0,0,1.3718775510787964,0,0,0.7644000053405762
0.346937078,0,0,1.3718775510787964,0,0,1.223039984703064
0.347170335,0,0,1.41257905960083,0,0,0.611519992351532
0.347403018,0,0,1.41257905960083,0,0,0.611519992351532
0.347635848,0,0,1.41257905960083,0,0,0.6879600286483765
0.347869883,0,0,1.41257905960083,0,0,0.152879998087883
0.348101936,0,0,1.41257905960083,0,0,0.6879600286483765
0.348334545,0,0,1.525106430053711,0,0,0.6879600286483765
0.348567635,0,0,1.525106430053711,0,0,0.611519992351532
0.348800428,0,0,1.525106430053711,0,0,0.5350799560546875
0.349034018,0,0,1.525106430053711,0,0,0.5350799560546875
0.349267108,0,0,1.647210717201233,0,0,1.5288000106811523
0.349500032,0,0,1.647210717201233,0,0,1.1466000080108643
0.349733177,0,0,1.647210717201233,0,0,0.305759996175766
0.349967138,0,0,1.647210717201233,0,0,0.305759996175766
0.350199024,0,0,1.5179238319396973,0,0,9.478560447692871
0.350448966,0,0,1.5179238319396973,0,0,0.5350799560546875
0.350708593,0,0,1.5179238319396973,0,0,0.8408399820327759
0.35091259,0,0,1.5179238319396973,0,0,0.8408399820327759
0.351139088,0,0,1.5179238319396973,0,0,0.7644000053405762
0.351373345,0,0,1.558625340461731,0,0,0.7644000053405762
0.351602194,0,0,1.558625340461731,0,0,0.7644000053405762
0.351830247,0,0,1.558625340461731,0,0,1.375920057296753
0.352057448,0,0,1.558625340461731,0,0,0.9937199950218201
0.35228565,0,0,1.5825673341751099,0,0,0.9937199950218201
0.352513517,0,0,1.5825673341751099,0,0,0.6879600286483765
0.352741182,0,0,1.5825673341751099,0,0,1.223039984703064
0.352969901,0,0,1.5825673341751099,0,0,0.9172800183296204
0.353197899,0,0,1.3862427473068237,0,0,0.9172800183296204
0.353426026,0,0,1.3862427473068237,0,0,0.611519992351532
0.35365382,0,0,1.3862427473068237,0,0,0.9172800183296204
0.353881558,0,0,1.3862427473068237,0,0,0.9172800183296204
0.35410963,0,0,1.3862427473068237,0,0,1.8345600366592407
0.354338146,0,0,1.4628572463989258,0,0,1.070159912109375
0.354566013,0,0,1.4628572463989258,0,0,1.070159912109375
0.354796641,0,0,1.4628572463989258,0,0,0.8408399820327759
0.355025157,0,0,1.4628572463989258,0,0,1.070159912109375
0.355252784,0,0,1.3431471586227417,0,0,0.9172800183296204
0.355480948,0,0,1.3431471586227417,0,0,0.9172800183296204
0.355708686,0,0,1.3431471586227417,0,0,0.152879998087883
0.35593635,0,0,1.3431471586227417,0,0,1.1466000080108643
0.356164977,0,0,1.292868971824646,0,0,1.1466000080108643
0.356392345,0,0,1.292868971824646,0,0,-0.5350799560546875
0.356619954,0,0,1.292868971824646,0,0,0.6879600286483765
0.356847729,0,0,1.292868971824646,0,0,0.9937199950218201
0.357076134,0,0,1.292868971824646,0,0,0.9937199950218201
0.357303613,0,0,1.3670891523361206,0,0,1.375920057296753
0.35753837,0,0,1.3670891523361206,0,0,0.3822000026702881
0.357763145,0,0,1.3670891523361206,0,0,0.3822000026702881
0.357990587,0,0,1.3670891523361206,0,0,1.5288000106811523
0.358218918,0,0,1.4221558570861816,0,0,0.611519992351532
0.358446897,0,0,1.4221558570861816,0,0,0.611519992351532
0.358716653,0,0,1.4221558570861816,0,0,1.1466000080108643
0.358921318,0,0,1.4221558570861816,0,0,0.305759996175766
0.35914926,0,0,1.4221558570861816,0,0,0.8408399820327759
0.359376924,0,0,1.6615760326385498,0,0,0.8408399820327759
0.359605181,0,0,1.6615760326385498,0,0,1.2994799613952637
0.359833067,0,0,1.6615760326385498,0,0,0.7644000053405762
0.360061027,0,0,1.6615760326385498,0,0,0.7644000053405762
0.360289469,0,0,1.656787633895874,0,0,1.223039984703064
0.360517319,0,0,1.656787633895874,0,0,0
0.360745279,0,0,1.656787633895874,0,0,0
0.360973388,0,0,1.656787633895874,0,0,0
0.361201034,0,0,1.482010841369629,0,0,1.2994799613952637
0.361428883,0,0,1.482010841369629,0,0,1.223039984703064
0.361657492,0,0,1.482010841369629,0,0,1.223039984703064
0.36188523,0,0,1.482010841369629,0,0,0.611519992351532
0.362113079,0,0,1.482010841369629,0,0,0.5350799560546875
0.36234178,0,0,1.6639702320098877,0,0,0.611519992351532
0.362569611,0,0,1.6639702320098877,0,0,0.611519992351532
0.362799257,0,0,1.6639702320098877,0,0,1.1466000080108643
0.363025532,0,0,1.6639702320098877,0,0,0.611519992351532
0.363253363,0,0,1.3646949529647827,0,0,0.611519992351532
0.363481898,0,0,1.3646949529647827,0,0,1.758120059967041
0.363709617,0,0,1.3646949529647827,0,0,1.452359914779663
0.363937281,0,0,1.3646949529647827,0,0,1.452359914779663
0.364164946,0,0,1.3455413579940796,0,0,2.3696401119232178
0.364393202,0,0,1.3455413579940796,0,0,0.7644000053405762
0.364626885,0,0,1.3455413579940796,0,0,0.611519992351532
0.364852568,0,0,1.3455413579940796,0,0,0.611519992351532
0.365089898,0,0,1.3455413579940796,0,0,1.1466000080108643
0.365309285,0,0,1.3862427473068237,0,0,1.1466000080108643
0.365537542,0,0,1.3862427473068237,0,0,1.1466000080108643
0.365765298,0,0,1.3862427473068237,0,0,2.2167599201202393
0.365993092,0,0,1.3862427473068237,0,0,1.070159912109375
0.36622109,0,0,1.2713210582733154,0,0,0.611519992351532
0.36644905,0,0,1.2713210582733154,0,0,0.611519992351532
0.366692122,0,0,1.2713210582733154,0,0,0.6879600286483765
0.366921045,0,0,1.2713210582733154,0,0,1.070159912109375
0.367148969,0,0,1.2713210582733154,0,0,1.070159912109375
0.367376929,0,0,1.3311761617660522,0,0,0.305759996175766
0.367605204,0,0,1.3311761617660522,0,0,1.1466000080108643
0.367832924,0,0,1.3311761617660522,0,0,0.9937199950218201
0.368060996,0,0,1.3311761617660522,0,0,0.9937199950218201
0.368288734,0,0,1.3694833517074585,0,0,1.375920057296753
0.368516454,0,0,1.3694833517074585,0,0,0.7644000053405762
0.368744618,0,0,1.3694833517074585,0,0,0.7644000053405762
0.368972597,0,0,1.3694833517074585,0,0,9.631440162658691
0.369200391,0,0,1.556231141090393,0,0,0.305759996175766
0.369428388,0,0,1.556231141090393,0,0,0.305759996175766
0.369657108,0,0,1.556231141090393,0,0,9.096360206604004
0.369884605,0,0,1.556231141090393,0,0,0.5350799560546875
0.370112658,0,0,1.556231141090393,0,0,1.070159912109375
0.370340415,0,0,1.6136919260025024,0,0,1.070159912109375
0.37056845,0,0,1.6136919260025024,0,0,0.8408399820327759
0.370798355,0,0,1.6136919260025024,0,0,1.375920057296753
0.371024334,0,0,1.6136919260025024,0,0,1.375920057296753
0.371252516,0,0,1.599326729774475,0,0,-0.305759996175766
0.37148068,0,0,1.599326729774475,0,0,0.305759996175766
0.371713993,0,0,1.599326729774475,0,0,0.7644000053405762
0.371939509,0,0,1.599326729774475,0,0,0.7644000053405762
0.372167877,0,0,1.6280571222305298,0,0,0
0.372395856,0,0,1.6280571222305298,0,0,0.5350799560546875
0.37262402,0,0,1.6280571222305298,0,0,0.5350799560546875
0.372852536,0,0,1.6280571222305298,0,0,1.2994799613952637
0.3730802,0,0,1.6280571222305298,0,0,1.1466000080108643
0.373308012,0,0,1.647210717201233,0,0,1.1466000080108643
0.37353588,0,0,1.647210717201233,0,0,1.8345600366592407
0.3737636,0,0,1.647210717201233,0,0,0.3822000026702881
0.373992116,0,0,1.647210717201233,0,0,0.7644000053405762
0.374219891,0,0,1.3479355573654175,0,0,0.7644000053405762
0.374447481,0,0,1.3479355573654175,0,0,0.6879600286483765
0.374690201,0,0,1.3479355573654175,0,0,0.611519992351532
0.374919384,0,0,1.3479355573654175,0,0,0.611519992351532
0.375147289,0,0,1.3479355573654175,0,0,2.2932000160217285
0.37537549,0,0,1.460463047027588,0,0,1.1466000080108643
0.375603598,0,0,1.460463047027588,0,0,0.6879600286483765
0.375831503,0,0,1.460463047027588,0,0,0.6879600286483765
0.376059667,0,0,1.460463047027588,0,0,1.1466000080108643
0.376287906,0,0,1.3503297567367554,0,0,0.8408399820327759
0.376515181,0,0,1.3503297567367554,0,0,0.8408399820327759
0.376743141,0,0,1.3503297567367554,0,0,1.375920057296753
0.376971583,0,0,1.3503297567367554,0,0,0.9172800183296204
0.377199285,0,0,1.2258312702178955,0,0,0.9172800183296204
0.377427338,0,0,1.2258312702178955,0,0,1.9874399900436401
0.377655187,0,0,1.2258312702178955,0,0,0.9937199950218201
0.37788324,0,0,1.2258312702178955,0,0,0.611519992351532
0.378111812,0,0,1.2258312702178955,0,0,0.611519992351532
0.378339717,0,0,1.3455413579940796,0,0,0
0.37856764,0,0,1.3455413579940796,0,0,0.9937199950218201
0.378802934,0,0,1.3455413579940796,0,0,0.9937199950218201
0.379026598,0,0,1.3455413579940796,0,0,0.9172800183296204
0.379255021,0,0,1.3982137441635132,0,0,0.611519992351532
0.379483371,0,0,1.3982137441635132,0,0,0.7644000053405762
0.37972022,0,0,1.3982137441635132,0,0,0.7644000053405762
0.379939144,0,0,1.3982137441635132,0,0,1.223039984703064
0.380166974,0,0,1.3982137441635132,0,0,0.7644000053405762
0.380395046,0,0,1.556231141090393,0,0,0.7644000053405762
0.380622932,0,0,1.556231141090393,0,0,1.1466000080108643
0.380850837,0,0,1.556231141090393,0,0,0.7644000053405762
0.381078631,0,0,1.556231141090393,0,0,0.7644000053405762
0.381307018,0,0,1.656787633895874,0,0,0.611519992351532
0.381534682,0,0,1.656787633895874,0,0,1.452359914779663
0.381762827,0,0,1.656787633895874,0,0,0.6879600286483765
0.381990436,0,0,1.656787633895874,0,0,0.6879600286483765
0.382219008,0,0,1.5155296325683594,0,0,0.611519992351532
0.382446079,0,0,1.5155296325683594,0,0,0.8408399820327759
0.382689151,0,0,1.5155296325683594,0,0,0.8408399820327759
0.382918704,0,0,1.5155296325683594,0,0,1.9874399900436401
0.383146349,0,0,1.5155296325683594,0,0,0.5350799560546875
0.383374828,0,0,1.6328455209732056,0,0,0.9937199950218201
0.38360277,0,0,1.6328455209732056,0,0,0.9937199950218201
0.383830768,0,0,1.6328455209732056,0,0,1.070159912109375
0.384058228,0,0,1.6328455209732056,0,0,0.9172800183296204
0.38428617,0,0,1.4891934394836426,0,0,0.9172800183296204
0.384513982,0,0,1.4891934394836426,0,0,1.605239987373352
0.384742239,0,0,1.4891934394836426,0,0,0.4586400091648102
0.384969903,0,0,1.4891934394836426,0,0,0.4586400091648102
0.38519779,0,0,1.3407529592514038,0,0,0.8408399820327759
0.385426547,0,0,1.3407529592514038,0,0,0.611519992351532
0.385654766,0,0,1.3407529592514038,0,0,0.5350799560546875
0.38588819,0,0,1.3407529592514038,0,0,0.5350799560546875
0.38611378,0,0,1.3407529592514038,0,0,0.0764399990439415
0.386342,0,0,1.4867992401123047,0,0,0.611519992351532
0.386570071,0,0,1.4867992401123047,0,0,0.611519992351532
0.386799717,0,0,1.4867992401123047,0,0,1.6816799640655518
0.387025899,0,0,1.4867992401123047,0,0,0.2293200045824051
0.387253934,0,0,1.3646949529647827,0,0,0.8408399820327759
0.387482524,0,0,1.3646949529647827,0,0,0.8408399820327759
0.387709781,0,0,1.3646949529647827,0,0,0.4586400091648102
0.387938149,0,0,1.3646949529647827,0,0,0.9172800183296204
0.388166091,0,0,1.3646949529647827,0,0,0.9172800183296204
0.388394088,0,0,1.2497732639312744,0,0,0.9172800183296204
0.388622197,0,0,1.2497732639312744,0,0,0.9172800183296204
0.388850287,0,0,1.2497732639312744,0,0,0.9172800183296204
0.389078155,0,0,1.2497732639312744,0,0,0.7644000053405762
0.3893058,0,0,1.278503656387329,0,0,1.1466000080108643
0.389533705,0,0,1.278503656387329,0,0,0.3822000026702881
0.389761629,0,0,1.278503656387329,0,0,0.3822000026702881
0.389989774,0,0,1.278503656387329,0,0,0.9937199950218201
0.390217346,0,0,1.4269442558288574,0,0,0.7644000053405762
0.390445195,0,0,1.4269442558288574,0,0,0.7644000053405762
0.390687952,0,0,1.4269442558288574,0,0,1.452359914779663
0.390917727,0,0,1.4269442558288574,0,0,0.8408399820327759
0.391145466,0,0,1.4269442558288574,0,0,0.3822000026702881
0.391373352,0,0,1.7334020137786865,0,0,0.3822000026702881
0.391601331,0,0,1.7334020137786865,0,0,0.7644000053405762
0.391829791,0,0,1.7334020137786865,0,0,0.7644000053405762
0.392057585,0,0,1.7334020137786865,0,0,0.7644000053405762
0.392285472,0,0,1.5921441316604614,0,0,0.2293200045824051
0.392513451,0,0,1.5921441316604614,0,0,0.9172800183296204
0.392742337,0,0,1.5921441316604614,0,0,0.6879600286483765
0.392976038,0,0,1.5921441316604614,0,0,0.6879600286483765
0.393201221,0,0,1.4891934394836426,0,0,0.7644000053405762
0.393429126,0,0,1.4891934394836426,0,0,0.9937199950218201
0.393657383,0,0,1.4891934394836426,0,0,0.9937199950218201
0.393885769,0,0,1.4891934394836426,0,0,1.2994799613952637
0.394113581,0,0,1.4891934394836426,0,0,0.9172800183296204
0.394350968,0,0,1.6184803247451782,0,0,0.9172800183296204
0.39456965,0,0,1.6184803247451782,0,0,1.1466000080108643
0.394799092,0,0,1.6184803247451782,0,0,1.070159912109375
0.395025127,0,0,1.6184803247451782,0,0,1.223039984703064
0.395253587,0,0,1.316810965538025,0,0,1.223039984703064
0.395481511,0,0,1.316810965538025,0,0,0.9937199950218201
0.395709175,0,0,1.316810965538025,0,0,1.223039984703064
0.395937728,0,0,1.316810965538025,0,0,1.223039984703064
0.396165651,0,0,1.316810965538025,0,0,-0.3822000026702881
0.396393779,0,0,1.4508862495422363,0,0,0.8408399820327759
0.396621572,0,0,1.4508862495422363,0,0,0.8408399820327759
0.396849829,0,0,1.4508862495422363,0,0,0.8408399820327759
0.397077882,0,0,1.4508862495422363,0,0,0.5350799560546875
0.397305824,0,0,1.4221558570861816,0,0,1.2994799613952637
0.397533618,0,0,1.4221558570861816,0,0,1.2994799613952637
0.397770412,0,0,1.4221558570861816,0,0,0.5350799560546875
0.397989946,0,0,1.4221558570861816,0,0,0.8408399820327759
0.398217592,0,0,1.3407529592514038,0,0,0.8408399820327759
0.39844533,0,0,1.3407529592514038,0,0,0
0.398687494,0,0,1.3407529592514038,0,0,0
0.398916825,0,0,1.3407529592514038,0,0,0.4586400091648102
0.399145137,0,0,1.3407529592514038,0,0,0.4586400091648102
0.399373005,0,0,1.4197616577148438,0,0,0.9937199950218201
0.399600929,0,0,1.4197616577148438,0,0,1.070159912109375
0.399828852,0,0,1.4197616577148438,0,0,1.070159912109375
0.400063146,0,0,1.4197616577148438,0,0,1.6816799640655518
0.400287829,0,0,1.4389152526855469,0,0,0.0764399990439415
0.400516011,0,0,1.4389152526855469,0,0,0.6879600286483765
0.40074399,0,0,1.4389152526855469,0,0,0.6879600286483765
0.400971562,0,0,1.4389152526855469,0,0,1.223039984703064
0.401199893,0,0,1.4891934394836426,0,0,0.305759996175766
0.401427631,0,0,1.4891934394836426,0,0,0.305759996175766
0.401655814,0,0,1.4891934394836426,0,0,0.611519992351532
0.401883737,0,0,1.4891934394836426,0,0,0.4586400091648102
0.402111401,0,0,1.4891934394836426,0,0,0.4586400091648102
0.402339769,0,0,1.6496049165725708,0,0,0.5350799560546875
0.402567878,0,0,1.6496049165725708,0,0,1.1466000080108643
0.402797597,0,0,1.6496049165725708,0,0,1.452359914779663
0.403023984,0,0,1.6496049165725708,0,0,1.452359914779663
0.403252833,0,0,1.5945383310317993,0,0,0.9172800183296204
0.403480497,0,0,1.5945383310317993,0,0,0
0.403708143,0,0,1.5945383310317993,0,0,0
0.403935826,0,0,1.5945383310317993,0,0,-29.582279205322266
0.40416386,0,0,1.5945383310317993,0,0,1.1466000080108643
0.40439195,0,0,1.4915876388549805,0,0,0.611519992351532
0.404619966,0,0,1.4915876388549805,0,0,0.611519992351532
0.404848131,0,0,1.4915876388549805,0,0,1.223039984703064
0.405075998,0,0,1.4915876388549805,0,0,0.9172800183296204
0.405304033,0,0,1.5873557329177856,0,0,0.9172800183296204
0.405531364,0,0,1.5873557329177856,0,0,1.5288000106811523
0.405759491,0,0,1.5873557329177856,0,0,1.070159912109375
0.405987396,0,0,1.5873557329177856,0,0,1.070159912109375
0.406215412,0,0,1.3239935636520386,0,0,0.8408399820327759
0.406443984,0,0,1.3239935636520386,0,0,0.5350799560546875
0.406685666,0,0,1.3239935636520386,0,0,0.9172800183296204
0.406914997,0,0,1.3239935636520386,0,0,0.9172800183296204
0.407148772,0,0,1.3239935636520386,0,0,0.9172800183296204
0.407374714,0,0,1.4053963422775269,0,0,0.9172800183296204
0.407602063,0,0,1.4053963422775269,0,0,0.9172800183296204
0.407830524,0,0,1.4053963422775269,0,0,1.9109998941421509
0.408058225,0,0,1.4053963422775269,0,0,1.375920057296753
0.408286,0,0,1.4293384552001953,0,0,0.8408399820327759
0.408514683,0,0,1.4293384552001953,0,0,0.8408399820327759
0.40874294,0,0,1.4293384552001953,0,0,9.631440162658691
0.408980122,0,0,1.4293384552001953,0,0,0.4586400091648102
0.40919925,0,0,1.4293384552001953,0,0,0.4586400091648102
0.409427044,0,0,1.2042834758758545,0,0,1.452359914779663
0.409655319,0,0,1.2042834758758545,0,0,1.223039984703064
0.409883576,0,0,1.2042834758758545,0,0,1.223039984703064
0.410111388,0,0,1.2042834758758545,0,0,1.1466000080108643
0.410338885,0,0,1.3192051649093628,0,0,0.2293200045824051
0.410567457,0,0,1.3192051649093628,0,0,0.6879600286483765
0.410796732,0,0,1.3192051649093628,0,0,0.6879600286483765
0.411023341,0,0,1.3192051649093628,0,0,1.605239987373352
0.41125069,0,0,1.4915876388549805,0,0,0.5350799560546875
0.411478817,0,0,1.4915876388549805,0,0,0.5350799560546875
0.411707241,0,0,1.4915876388549805,0,0,1.070159912109375
0.411935442,0,0,1.4915876388549805,0,0,0.305759996175766
0.412163384,0,0,1.4915876388549805,0,0,0.7644000053405762
0.41239153,0,0,1.5634137392044067,0,0,0.7644000053405762
0.412619842,0,0,1.5634137392044067,0,0,0.2293200045824051
0.412847154,0,0,1.5634137392044067,0,0,0.5350799560546875
0.413075411,0,0,1.5634137392044067,0,0,0.5350799560546875
0.413303427,0,0,1.6400281190872192,0,0,1.2994799613952637
0.413531425,0,0,1.6400281190872192,0,0,1.2994799613952637
0.413759867,0,0,1.6400281190872192,0,0,1.2994799613952637
0.413987494,0,0,1.6400281190872192,0,0,0.611519992351532
0.41422101,0,0,1.4867992401123047,0,0,0.5350799560546875
0.414446581,0,0,1.4867992401123047,0,0,0.3822000026702881
0.414689856,0,0,1.4867992401123047,0,0,0.3822000026702881
0.41491878,0,0,1.4867992401123047,0,0,1.1466000080108643
0.415146981,0,0,1.4867992401123047,0,0,0.7644000053405762
0.415374738,0,0,1.5203180313110352,0,0,0.7644000053405762
0.41560268,0,0,1.5203180313110352,0,0,0.8408399820327759
0.415831085,0,0,1.5203180313110352,0,0,0.9937199950218201
0.41605899,0,0,1.5203180313110352,0,0,1.070159912109375
0.416287098,0,0,1.5825673341751099,0,0,1.070159912109375
0.416515133,0,0,1.5825673341751099,0,0,1.375920057296753
0.416743056,0,0,1.5825673341751099,0,0,1.070159912109375
0.416972239,0,0,1.5825673341751099,0,0,1.070159912109375
0.417200033,0,0,1.5825673341751099,0,0,1.2994799613952637
0.417427826,0,0,1.436521053314209,0,0,0.9172800183296204
0.417655657,0,0,1.436521053314209,0,0,0.9937199950218201
0.417884062,0,0,1.436521053314209,0,0,0.9937199950218201
0.418110912,0,0,1.436521053314209,0,0,1.452359914779663
0.418338946,0,0,1.3455413579940796,0,0,0.7644000053405762
0.41856711,0,0,1.3455413579940796,0,0,0.7644000053405762
0.418796682,0,0,1.3455413579940796,0,0,1.223039984703064
0.419023457,0,0,1.3455413579940796,0,0,1.070159912109375
0.419251473,0,0,1.3048399686813354,0,0,1.070159912109375
0.419479378,0,0,1.3048399686813354,0,0,0.5350799560546875
0.41970745,0,0,1.3048399686813354,0,0,1.070159912109375
0.419935206,0,0,1.3048399686813354,0,0,0.9172800183296204
0.420163334,0,0,1.3048399686813354,0,0,0.9172800183296204
0.42039172,0,0,1.2521674633026123,0,0,1.070159912109375
0.420619829,0,0,1.2521674633026123,0,0,0.9172800183296204
0.420847567,0,0,1.2521674633026123,0,0,0.9172800183296204
0.421075935,0,0,1.2521674633026123,0,0,-0.5350799560546875
0.421309803,0,0,1.3838485479354858,0,0,0.4586400091648102
0.4215353,0,0,1.3838485479354858,0,0,0.5350799560546875
0.421762835,0,0,1.3838485479354858,0,0,0.5350799560546875
0.421990573,0,0,1.3838485479354858,0,0,0.6879600286483765
0.422218959,0,0,1.4987702369689941,0,0,0.6879600286483765
0.422446698,0,0,1.4987702369689941,0,0,0.6879600286483765
0.422689306,0,0,1.4987702369689941,0,0,0.4586400091648102
0.422918137,0,0,1.4987702369689941,0,0,0.5350799560546875
0.423146727,0,0,1.4987702369689941,0,0,0.5350799560546875
0.423374595,0,0,1.5729905366897583,0,0,0.7644000053405762
0.423611481,0,0,1.5729905366897583,0,0,0.152879998087883
0.423830386,0,0,1.5729905366897583,0,0,0.9172800183296204
0.424058124,0,0,1.5729905366897583,0,0,0.9172800183296204
0.424286492,0,0,1.6759412288665771,0,0,0.7644000053405762
0.424514527,0,0,1.6759412288665771,0,0,0.6879600286483765
0.424742524,0,0,1.6759412288665771,0,0,0.6879600286483765
0.424970188,0,0,1.6759412288665771,0,0,0.6879600286483765
0.42519876,0,0,1.6759412288665771,0,0,0.7644000053405762
0.425426313,0,0,1.53707754611969,0,0,1.1466000080108643
0.425654292,0,0,1.53707754611969,0,0,1.1466000080108643
0.425882419,0,0,1.53707754611969,0,0,1.223039984703064
0.426110232,0,0,1.53707754611969,0,0,0.2293200045824051
0.426338655,0,0,1.6831238269805908,0,0,0.2293200045824051
0.426566801,0,0,1.6831238269805908,0,0,0.7644000053405762
0.426796094,0,0,1.6831238269805908,0,0,1.2994799613952637
0.427022833,0,0,1.6831238269805908,0,0,1.2994799613952637
0.427250886,0,0,1.3982137441635132,0,0,0.9172800183296204
0.427479106,0,0,1.3982137441635132,0,0,0.9937199950218201
0.427707973,0,0,1.3982137441635132,0,0,0.4586400091648102
0.427936397,0,0,1.3982137441635132,0,0,0.4586400091648102
0.42816445,0,0,1.3982137441635132,0,0,1.070159912109375
0.428398984,0,0,1.314416766166687,0,0,1.070159912109375
0.428624445,0,0,1.314416766166687,0,0,1.070159912109375
0.42885235,0,0,1.314416766166687,0,0,1.223039984703064
0.429080255,0,0,1.314416766166687,0,0,1.2994799613952637
0.429308345,0,0,1.3694833517074585,0,0,0.9172800183296204
0.429536602,0,0,1.3694833517074585,0,0,0.9172800183296204
0.429764414,0,0,1.3694833517074585,0,0,0.611519992351532
0.429992208,0,0,1.3694833517074585,0,0,0.6879600286483765
0.430220168,0,0,1.3694833517074585,0,0,0.6879600286483765
0.430448406,0,0,1.335964560508728,0,0,0.7644000053405762
0.430729403,0,0,1.335964560508728,0,0,1.070159912109375
0.430961364,0,0,1.335964560508728,0,0,0.5350799560546875
0.431190121,0,0,1.335964560508728,0,0,0.5350799560546875
0.431418285,0,0,1.316810965538025,0,0,0.6879600286483765
0.431646578,0,0,1.316810965538025,0,0,0.3822000026702881
0.431875132,0,0,1.316810965538025,0,0,0.3822000026702881
0.432103407,0,0,1.316810965538025,0,0,0.7644000053405762
0.432331571,0,0,1.3742717504501343,0,0,1.1466000080108643
0.43256018,0,0,1.3742717504501343,0,0,0.5350799560546875
0.432788473,0,0,1.3742717504501343,0,0,0.5350799560546875
0.433017341,0,0,1.3742717504501343,0,0,0.6879600286483765
0.433245617,0,0,1.4676456451416016,0,0,0.8408399820327759
0.433473744,0,0,1.4676456451416016,0,0,0.8408399820327759
0.433702241,0,0,1.4676456451416016,0,0,0.5350799560546875
0.433930331,0,0,1.4676456451416016,0,0,0.305759996175766
0.434158736,0,0,1.4676456451416016,0,0,0.305759996175766
0.434386715,0,0,1.558625340461731,0,0,0.305759996175766
0.434615009,0,0,1.558625340461731,0,0,1.070159912109375
0.434845414,0,0,1.558625340461731,0,0,1.452359914779663
0.435070208,0,0,1.558625340461731,0,0,1.452359914779663
0.43529565,0,0,1.5634137392044067,0,0,1.9109998941421509
0.435529221,0,0,1.5634137392044067,0,0,0.305759996175766
0.435752089,0,0,1.5634137392044067,0,0,0.305759996175766
0.435978124,0,0,1.5634137392044067,0,0,0.611519992351532
0.436203732,0,0,1.5634137392044067,0,0,1.223039984703064
0.436429415,0,0,1.5107412338256836,0,0,0.9937199950218201
0.43665519,0,0,1.5107412338256836,0,0,0.9937199950218201
0.436893225,0,0,1.5107412338256836,0,0,0.3822000026702881
0.437107223,0,0,1.5107412338256836,0,0,1.070159912109375
0.437332535,0,0,1.647210717201233,0,0,1.070159912109375
0.437557921,0,0,1.647210717201233,0,0,1.1466000080108643
0.437783863,0,0,1.647210717201233,0,0,0.9172800183296204
0.438008824,0,0,1.647210717201233,0,0,0.9172800183296204
0.43824408,0,0,1.4269442558288574,0,0,9.478560447692871
0.438460893,0,0,1.4269442558288574,0,0,1.452359914779663
0.438726927,0,0,1.4269442558288574,0,0,0.9172800183296204
0.438958906,0,0,1.4269442558288574,0,0,0.9172800183296204
0.439186181,0,0,1.4269442558288574,0,0,0.305759996175766
0.439414327,0,0,1.357512354850769,0,0,0.2293200045824051
0.439642361,0,0,1.357512354850769,0,0,0.2293200045824051
0.439870433,0,0,1.357512354850769,0,0,0.8408399820327759
0.440099356,0,0,1.357512354850769,0,0,0.7644000053405762
0.440326669,0,0,1.4221558570861816,0,0,0.9937199950218201
0.440554351,0,0,1.4221558570861816,0,0,0.9937199950218201
0.440782293,0,0,1.4221558570861816,0,0,1.5288000106811523
0.441010939,0,0,1.4221558570861816,0,0,0.611519992351532
0.441238511,0,0,1.2306196689605713,0,0,0.611519992351532
0.441466804,0,0,1.2306196689605713,0,0,0.8408399820327759
0.441694524,0,0,1.2306196689605713,0,0,0.4586400091648102
0.441932911,0,0,1.2306196689605713,0,0,0.611519992351532
0.442203704,0,0,1.2306196689605713,0,0,0.611519992351532
0.442474905,0,0,1.3024457693099976,0,0,0.9172800183296204
0.442754105,0,0,1.3024457693099976,0,0,-0.7644000053405762
0.443018825,0,0,1.3024457693099976,0,0,0.9172800183296204
0.443287266,0,0,1.400607943534851,0,0,1.070159912109375
0.4435558,0,0,1.400607943534851,0,0,0.7644000053405762
0.443823445,0,0,1.400607943534851,0,0,0.7644000053405762
0.444092072,0,0,1.400607943534851,0,0,0.8408399820327759
0.44435994,0,0,1.4891934394836426,0,0,-0.6879600286483765
0.444628437,0,0,1.4891934394836426,0,0,0.305759996175766
0.444896582,0,0,1.4891934394836426,0,0,0.611519992351532
0.445165171,0,0,1.4891934394836426,0,0,0.7644000053405762
0.445433317,0,0,1.644816517829895,0,0,0.7644000053405762
0.445701351,0,0,1.644816517829895,0,0,0
0.445969644,0,0,1.644816517829895,0,0,0.9172800183296204
0.446238252,0,0,1.644816517829895,0,0,0.9172800183296204
0.446825783,0,0,1.5538369417190552,0,0,0.7644000053405762
0.447106558,0,0,1.5538369417190552,0,0,0.7644000053405762
0.447388443,0,0,1.6065093278884888,0,0,0.7644000053405762
0.447669089,0,0,1.6065093278884888,0,0,1.6816799640655518
0.4479594,0,0,1.6065093278884888,0,0,9.096360206604004
0.448244712,0,0,1.6065093278884888,0,0,0.6879600286483765
0.448529301,0,0,1.580173134803772,0,0,1.605239987373352
0.448814891,0,0,1.580173134803772,0,0,1.1466000080108643
0.44910174,0,0,1.580173134803772,0,0,0.9172800183296204
0.449385718,0,0,1.3048399686813354,0,0,0.8408399820327759
0.449672844,0,0,1.3048399686813354,0,0,0.8408399820327759
0.449951138,0,0,1.3048399686813354,0,0,0.8408399820327759
0.450227505,0,0,1.3048399686813354,0,0,1.223039984703064
0.450505743,0,0,1.314416766166687,0,0,2.14031982421875
0.450784073,0,0,1.314416766166687,0,0,1.070159912109375
0.451058181,0,0,1.314416766166687,0,0,0
0.451332752,0,0,1.314416766166687,0,0,0.9172800183296204
0.451623397,0,0,1.314416766166687,0,0,0.9937199950218201
0.451890579,0,0,1.314416766166687,0,0,0.9937199950218201
0.452164725,0,0,1.314416766166687,0,0,1.1466000080108643
0.452438999,0,0,1.3024457693099976,0,0,0.9172800183296204
0.452714663,0,0,1.3024457693099976,0,0,0.9937199950218201
0.452989567,0,0,1.3024457693099976,0,0,1.223039984703064
0.453264064,0,0,1.45806884765625,0,0,0.6879600286483765
0.453539654,0,0,1.45806884765625,0,0,0.6879600286483765
0.453814114,0,0,1.45806884765625,0,0,0.6879600286483765
0.454088555,0,0,1.45806884765625,0,0,1.6816799640655518
0.454363534,0,0,1.4460978507995605,0,0,1.758120059967041
0.454638975,0,0,1.4460978507995605,0,0,0
0.45491838,0,0,1.4460978507995605,0,0,0.611519992351532
0.45519634,0,0,1.4460978507995605,0,0,0.7644000053405762
0.455498744,0,0,1.53707754611969,0,0,0.5350799560546875
0.455752797,0,0,1.53707754611969,0,0,0.5350799560546875
0.456030423,0,0,1.53707754611969,0,0,0.7644000053405762
0.456307587,0,0,1.5945383310317993,0,0,2.06387996673584
0.456584658,0,0,1.5945383310317993,0,0,0.9172800183296204
0.456862988,0,0,1.5945383310317993,0,0,0.305759996175766
0.457140244,0,0,1.5945383310317993,0,0,0.5350799560546875
0.457417482,0,0,1.4652514457702637,0,0,0.5350799560546875
0.457694998,0,0,1.4652514457702637,0,0,0.9937199950218201
0.45797268,0,0,1.4652514457702637,0,0,1.375920057296753
0.458249751,0,0,1.4652514457702637,0,0,0.9172800183296204
0.458527174,0,0,1.656787633895874,0,0,0.9172800183296204
0.458805911,0,0,1.656787633895874,0,0,0.6879600286483765
0.459083538,0,0,1.656787633895874,0,0,0.9172800183296204
0.459360776,0,0,1.436521053314209,0,0,0.9172800183296204
0.459638291,0,0,1.436521053314209,0,0,0.9172800183296204
0.459916473,0,0,1.436521053314209,0,0,0.5350799560546875
0.46020134,0,0,1.436521053314209,0,0,0.9172800183296204
0.460475097,0,0,1.3407529592514038,0,0,0.9172800183296204
0.460752464,0,0,1.3407529592514038,0,0,0.5350799560546875
0.461030665,0,0,1.3407529592514038,0,0,0.8408399820327759
0.461308217,0,0,1.3886369466781616,0,0,0.8408399820327759
0.461585751,0,0,1.3886369466781616,0,0,2.446079969406128
0.461863545,0,0,1.3886369466781616,0,0,0.5350799560546875
0.462141541,0,0,1.3886369466781616,0,0,9.631440162658691
0.462418946,0,0,1.3407529592514038,0,0,1.070159912109375
0.462715998,0,0,1.3407529592514038,0,0,1.452359914779663
0.462993847,0,0,1.3407529592514038,0,0,0.7644000053405762
0.463271344,0,0,1.359906554222107,0,0,0.7644000053405762
0.463549545,0,0,1.359906554222107,0,0,0.7644000053405762
0.463827171,0,0,1.359906554222107,0,0,-0.611519992351532
0.464104946,0,0,1.359906554222107,0,0,0.6879600286483765
0.464382239,0,0,1.5418659448623657,0,0,0.9172800183296204
0.464659366,0,0,1.5418659448623657,0,0,0.6879600286483765
0.464936622,0,0,1.5418659448623657,0,0,0.9172800183296204
0.465214897,0,0,1.5418659448623657,0,0,0.3822000026702881
0.465492449,0,0,1.6184803247451782,0,0,0.3822000026702881
0.465769594,0,0,1.6184803247451782,0,0,3.210479974746704
0.466046869,0,0,1.6184803247451782,0,0,0.8408399820327759
0.466324774,0,0,1.723825216293335,0,0,1.375920057296753
0.466601882,0,0,1.723825216293335,0,0,0.9172800183296204
0.466880879,0,0,1.723825216293335,0,0,0.611519992351532
0.467157653,0,0,1.723825216293335,0,0,1.070159912109375
0.467435298,0,0,1.6496049165725708,0,0,1.070159912109375
0.467712444,0,0,1.6496049165725708,0,0,0.611519992351532
0.467989663,0,0,1.6496049165725708,0,0,0.4586400091648102
0.468267345,0,0,1.6496049165725708,0,0,0
0.46854436,0,0,1.4748282432556152,0,0,0.9172800183296204
0.468829857,0,0,1.4748282432556152,0,0,0.9172800183296204
0.469103521,0,0,1.4748282432556152,0,0,0.611519992351532
0.469382036,0,0,1.6687586307525635,0,0,0.611519992351532
0.46965983,0,0,1.6687586307525635,0,0,1.452359914779663
0.469937012,0,0,1.6687586307525635,0,0,1.070159912109375
0.470214194,0,0,1.6687586307525635,0,0,0.611519992351532
0.470492135,0,0,1.3694833517074585,0,0,0
0.470771281,0,0,1.3694833517074585,0,0,0.9172800183296204
0.471047185,0,0,1.3694833517074585,0,0,0.8408399820327759
0.471325071,0,0,1.4221558570861816,0,0,0.8408399820327759
0.471602642,0,0,1.4221558570861816,0,0,-0.3822000026702881
0.471880102,0,0,1.4221558570861816,0,0,0.4586400091648102
0.472157525,0,0,1.4221558570861816,0,0,1.375920057296753
0.47243591,0,0,1.3694833517074585,0,0,0.7644000053405762
0.472713519,0,0,1.3694833517074585,0,0,1.223039984703064
0.472991145,0,0,1.3694833517074585,0,0,0.9172800183296204
0.473280827,0,0,1.3694833517074585,0,0,0.9172800183296204
0.473803044,0,0,1.3096283674240112,0,0,0.9172800183296204
0.474076689,0,0,1.3096283674240112,0,0,0.9172800183296204
0.474355204,0,0,1.4317326545715332,0,0,0.7644000053405762
0.474633664,0,0,1.4317326545715332,0,0,0.5350799560546875
0.474912309,0,0,1.4317326545715332,0,0,1.223039984703064
0.475189899,0,0,1.4317326545715332,0,0,1.223039984703064
0.475467285,0,0,1.4101848602294922,0,0,1.070159912109375
0.475745337,0,0,1.4101848602294922,0,0,1.2994799613952637
0.476022871,0,0,1.4101848602294922,0,0,0.8408399820327759
0.476300387,0,0,1.5107412338256836,0,0,0.305759996175766
0.476577736,0,0,1.5107412338256836,0,0,0.2293200045824051
0.476855788,0,0,1.5107412338256836,0,0,0.7644000053405762
0.477132822,0,0,1.5107412338256836,0,0,0.7644000053405762
0.477410856,0,0,1.6352397203445435,0,0,1.1466000080108643
0.477698686,0,0,1.6352397203445435,0,0,0.3822000026702881
0.477970146,0,0,1.6352397203445435,0,0,0.611519992351532
0.47824794,0,0,1.6352397203445435,0,0,0.305759996175766
0.478525381,0,0,1.5682021379470825,0,0,0.4586400091648102
0.478805785,0,0,1.5682021379470825,0,0,0.7644000053405762
0.479081375,0,0,1.5682021379470825,0,0,0.7644000053405762
0.479358501,0,0,1.5705963373184204,0,0,0.611519992351532
0.479635869,0,0,1.5705963373184204,0,0,0.8408399820327759
0.479913662,0,0,1.5705963373184204,0,0,0
0.480191085,0,0,1.5705963373184204,0,0,1.1466000080108643
0.480468786,0,0,1.4676456451416016,0,0,1.452359914779663
0.480746394,0,0,1.4676456451416016,0,0,0.9172800183296204
0.481024705,0,0,1.4676456451416016,0,0,0.9172800183296204
0.481302202,0,0,1.4197616577148438,0,0,0.7644000053405762
0.481579885,0,0,1.4197616577148438,0,0,1.758120059967041
0.481858122,0,0,1.4197616577148438,0,0,0.9937199950218201
0.482135027,0,0,1.4197616577148438,0,0,0.7644000053405762
0.482412913,0,0,1.3910311460494995,0,0,0.8408399820327759
0.482710669,0,0,1.3910311460494995,0,0,0.9172800183296204
0.482989017,0,0,1.3910311460494995,0,0,0.9172800183296204
0.483266348,0,0,1.3910311460494995,0,0,1.070159912109375
0.483543548,0,0,1.3551181554794312,0,0,0.7644000053405762
0.483821101,0,0,1.3551181554794312,0,0,0.7644000053405762
0.48409919,0,0,1.3551181554794312,0,0,0.0764399990439415
0.484376669,0,0,1.2330138683319092,0,0,0.6879600286483765
0.484653907,0,0,1.2330138683319092,0,0,0.8408399820327759
0.484931348,0,0,1.2330138683319092,0,0,0.8408399820327759
0.485209604,0,0,1.2330138683319092,0,0,0.611519992351532
0.485486805,0,0,1.3766659498214722,0,0,0.611519992351532
0.485764209,0,0,1.3766659498214722,0,0,0
0.486042891,0,0,1.3766659498214722,0,0,0.5350799560546875
0.486327166,0,0,1.5490485429763794,0,0,1.2994799613952637
0.486600626,0,0,1.5490485429763794,0,0,0.3822000026702881
0.486878456,0,0,1.5490485429763794,0,0,1.070159912109375
0.487156657,0,0,1.5490485429763794,0,0,1.070159912109375
0.487434339,0,0,1.6711528301239014,0,0,-1.375920057296753
0.487712095,0,0,1.6711528301239014,0,0,0.3822000026702881
0.487989389,0,0,1.6711528301239014,0,0,1.223039984703064
0.4882677,0,0,1.6711528301239014,0,0,1.223039984703064
0.488545438,0,0,1.6543933153152466,0,0,1.2994799613952637
0.488822565,0,0,1.6543933153152466,0,0,0.611519992351532
0.489100247,0,0,1.6543933153152466,0,0,0.611519992351532
0.489378355,0,0,1.525106430053711,0,0,0.2293200045824051
0.489656019,0,0,1.525106430053711,0,0,1.375920057296753
0.489933423,0,0,1.525106430053711,0,0,0.8408399820327759
0.490210827,0,0,1.525106430053711,0,0,0.611519992351532
0.490489158,0,0,1.659181833267212,0,0,0.3822000026702881
0.490768358,0,0,1.659181833267212,0,0,0.9172800183296204
0.491044522,0,0,1.659181833267212,0,0,0.9172800183296204
0.491339037,0,0,1.4484920501708984,0,0,0.8408399820327759
0.491601127,0,0,1.4484920501708984,0,0,1.5288000106811523
0.491878198,0,0,1.4484920501708984,0,0,0.9172800183296204
0.492155769,0,0,1.4484920501708984,0,0,1.070159912109375
0.492433988,0,0,1.3503297567367554,0,0,0.8408399820327759
0.492711541,0,0,1.3503297567367554,0,0,0.611519992351532
0.492988723,0,0,1.3503297567367554,0,0,0.611519992351532
0.493266294,0,0,1.3503297567367554,0,0,-0.305759996175766
0.493544328,0,0,1.3694833517074585,0,0,0.8408399820327759
0.493822195,0,0,1.3694833517074585,0,0,1.605239987373352
0.494099766,0,0,1.3694833517074585,0,0,0.9172800183296204
0.4943768,0,0,1.2832920551300049,0,0,0.611519992351532
0.494675223,0,0,1.2832920551300049,0,0,0.5350799560546875
0.494941276,0,0,1.2832920551300049,0,0,0.5350799560546875
0.495214902,0,0,1.2832920551300049,0,0,-0.3822000026702881
0.495493399,0,0,1.316810965538025,0,0,2.2932000160217285
0.496026745,0,0,1.316810965538025,0,0,0.7644000053405762
0.496076671,0,0,1.316810965538025,0,0,0.7644000053405762
0.496311242,0,0,1.4748282432556152,0,0,0.4586400091648102
0.496589461,0,0,1.4748282432556152,0,0,0.611519992351532
0.496867125,0,0,1.4748282432556152,0,0,0.611519992351532
0.497144863,0,0,1.4748282432556152,0,0,0.6879600286483765
0.497422267,0,0,1.4844050407409668,0,0,-29.582279205322266
0.497700579,0,0,1.4844050407409668,0,0,0.9172800183296204
0.497978242,0,0,1.4844050407409668,0,0,0.9937199950218201
0.498256054,0,0,1.4844050407409668,0,0,0.4586400091648102
0.498533755,0,0,1.580173134803772,0,0,0.9172800183296204
0.499008898,0,0,1.580173134803772,0,0,0.9937199950218201
0.499278136,0,0,1.580173134803772,0,0,0.152879998087883
0.499553151,0,0,1.6208745241165161,0,0,0.9937199950218201
0.499828019,0,0,1.6208745241165161,0,0,0.5350799560546875
0.500103164,0,0,1.6208745241165161,0,0,0.5350799560546875
0.50037755,0,0,1.556231141090393,0,0,0.3822000026702881
0.500652306,0,0,1.556231141090393,0,0,0.9937199950218201
0.500927655,0,0,1.556231141090393,0,0,0.6879600286483765
0.501202189,0,0,1.556231141090393,0,0,0.4586400091648102
0.501476815,0,0,1.6927006244659424,0,0,0.9172800183296204
0.501750849,0,0,1.6927006244659424,0,0,0.9172800183296204
0.50202668,0,0,1.6927006244659424,0,0,0.9937199950218201
0.502302306,0,0,1.6927006244659424,0,0,-0.3822000026702881
0.502576618,0,0,1.3694833517074585,0,0,0
0.504198249,0,0,1.3886369466781616,0,0,0.9172800183296204
0.504440524,0,0,1.3910311460494995,0,0,1.375920057296753
0.504731761,0,0,1.3910311460494995,0,0,1.1466000080108643
0.505035554,0,0,1.3910311460494995,0,0,1.223039984703064
0.505314792,0,0,1.2713210582733154,0,0,0.7644000053405762
0.505593752,0,0,1.2713210582733154,0,0,0.7644000053405762
0.505873489,0,0,1.2713210582733154,0,0,1.452359914779663
0.506152153,0,0,1.2713210582733154,0,0,0.9172800183296204
0.50643015,0,0,1.292868971824646,0,0,1.375920057296753
0.506735795,0,0,1.292868971824646,0,0,0.7644000053405762
0.507014403,0,0,1.292868971824646,0,0,0.4586400091648102
0.507292455,0,0,1.292868971824646,0,0,0.7644000053405762
0.507570249,0,0,1.4221558570861816,0,0,0.7644000053405762
0.507849357,0,0,1.4221558570861816,0,0,0.8408399820327759
0.508127317,0,0,1.4221558570861816,0,0,-0.152879998087883
0.508404888,0,0,1.4939818382263184,0,0,0.5350799560546875
0.508682718,0,0,1.4939818382263184,0,0,0.9172800183296204
0.508961696,0,0,1.4939818382263184,0,0,0.611519992351532
0.509239916,0,0,1.4939818382263184,0,0,0.5350799560546875
0.509517727,0,0,1.6041151285171509,0,0,0.5350799560546875
0.509795502,0,0,1.6041151285171509,0,0,1.1466000080108643
0.510074499,0,0,1.6041151285171509,0,0,1.070159912109375
0.510352329,0,0,1.644816517829895,0,0,1.375920057296753
0.510629567,0,0,1.644816517829895,0,0,0.611519992351532
0.510908823,0,0,1.644816517829895,0,0,0.5350799560546875
0.511187505,0,0,1.644816517829895,0,0,0.8408399820327759
0.511465243,0,0,1.53707754611969,0,0,0.9937199950218201
0.51174287,0,0,1.53707754611969,0,0,0.9937199950218201
0.512022256,0,0,1.53707754611969,0,0,-0.7644000053405762
0.512300364,0,0,1.53707754611969,0,0,0.9172800183296204
0.51257812,0,0,1.6184803247451782,0,0,1.8345600366592407
