Time,AccelX1,AccelY1,AccelZ1,AccelX2,AccelY2,AccelZ2
0.000205979,0,0,1.5969325304031372,0,0,0.4586400091648102
0.000539216,0,0,1.434126853942871,0,0,0.152879998087883
0.000685399,0,0,1.434126853942871,0,0,0.152879998087883
0.000830453,0,0,1.434126853942871,0,0,0.9937199950218201
0.000974896,0,0,1.434126853942871,0,0,0.9937199950218201
0.001120598,0,0,1.434126853942871,0,0,0.611519992351532
0.001263911,0,0,1.434126853942871,0,0,0.611519992351532
0.001408595,0,0,1.623268723487854,0,0,0.611519992351532
0.001553075,0,0,1.623268723487854,0,0,0
0.001698555,0,0,1.623268723487854,0,0,0
0.001842479,0,0,1.623268723487854,0,0,1.2994799613952637
0.001986866,0,0,1.623268723487854,0,0,1.2994799613952637
0.002131457,0,0,1.623268723487854,0,0,0.9172800183296204
0.002282974,0,0,1.623268723487854,0,0,0.9172800183296204
0.002428806,0,0,1.5753847360610962,0,0,1.605239987373352
0.002575082,0,0,1.5753847360610962,0,0,1.605239987373352
0.002721432,0,0,1.5753847360610962,0,0,1.1466000080108643
0.002868412,0,0,1.5753847360610962,0,0,1.1466000080108643
0.003013799,0,0,1.5753847360610962,0,0,1.1466000080108643
0.003160168,0,0,1.5753847360610962,0,0,1.8345600366592407
0.003306333,0,0,1.5753847360610962,0,0,1.8345600366592407
0.003452554,0,0,1.4221558570861816,0,0,1.223039984703064
0.003598663,0,0,1.4221558570861816,0,0,1.223039984703064
0.003745013,0,0,1.4221558570861816,0,0,1.223039984703064
0.003891067,0,0,1.4221558570861816,0,0,1.223039984703064
0.004037251,0,0,1.4221558570861816,0,0,1.2994799613952637
0.004183786,0,0,1.4221558570861816,0,0,1.2994799613952637
0.004332785,0,0,1.4221558570861816,0,0,1.2994799613952637
0.004486913,0,0,1.434126853942871,0,0,1.1466000080108643
0.004646133,0,0,1.434126853942871,0,0,1.1466000080108643
0.004802335,0,0,1.434126853942871,0,0,0.8408399820327759
0.004973074,0,0,1.434126853942871,0,0,0.8408399820327759
0.005119276,0,0,1.434126853942871,0,0,1.1466000080108643
0.005274274,0,0,1.434126853942871,0,0,1.1466000080108643
0.005411569,0,0,1.414973258972168,0,0,1.5288000106811523
0.005557382,0,0,1.414973258972168,0,0,1.5288000106811523
0.005703918,0,0,1.414973258972168,0,0,1.223039984703064
0.005851083,0,0,1.414973258972168,0,0,1.223039984703064
0.006009729,0,0,1.414973258972168,0,0,1.2994799613952637
0.006187375,0,0,1.414973258972168,0,0,1.2994799613952637
0.006349781,0,0,1.414973258972168,0,0,1.5288000106811523
0.006502538,0,0,1.3718775510787964,0,0,1.5288000106811523
0.006668814,0,0,1.3718775510787964,0,0,0.152879998087883
0.006846072,0,0,1.3718775510787964,0,0,0.152879998087883
0.007006459,0,0,1.3718775510787964,0,0,0
0.007154161,0,0,1.3718775510787964,0,0,0
0.007301289,0,0,1.3718775510787964,0,0,0.9937199950218201
0.007446991,0,0,1.4891934394836426,0,0,0.9937199950218201
0.007593878,0,0,1.4891934394836426,0,0,0.4586400091648102
0.007739377,0,0,1.4891934394836426,0,0,0.4586400091648102
0.007885079,0,0,1.4891934394836426,0,0,0.4586400091648102
0.008030244,0,0,1.4891934394836426,0,0,0.2293200045824051
0.008174409,0,0,1.4891934394836426,0,0,0.2293200045824051
0.008319018,0,0,1.4891934394836426,0,0,0
0.008463628,0,0,1.460463047027588,0,0,0
0.008608256,0,0,1.460463047027588,0,0,0.305759996175766
0.00875281,0,0,1.460463047027588,0,0,0.305759996175766
0.008897456,0,0,1.460463047027588,0,0,1.1466000080108643
0.009042584,0,0,1.460463047027588,0,0,1.1466000080108643
0.009187027,0,0,1.460463047027588,0,0,1.1466000080108643
0.009331748,0,0,1.460463047027588,0,0,0.4586400091648102
0.009475839,0,0,1.525106430053711,0,0,0.4586400091648102
0.0096303,0,0,1.525106430053711,0,0,-0.3822000026702881
0.00977178,0,0,1.525106430053711,0,0,-0.3822000026702881
0.009916186,0,0,1.525106430053711,0,0,0.152879998087883
0.010075888,0,0,1.525106430053711,0,0,0.152879998087883
0.010238145,0,0,1.525106430053711,0,0,2.14031982421875
0.010385773,0,0,1.525106430053711,0,0,2.14031982421875
0.010532457,0,0,1.647210717201233,0,0,0.3822000026702881
0.010678788,0,0,1.647210717201233,0,0,0.3822000026702881
0.010825101,0,0,1.647210717201233,0,0,-29.582279205322266
0.010971285,0,0,1.647210717201233,0,0,-0.2293200045824051
0.011117432,0,0,1.647210717201233,0,0,-0.2293200045824051
0.011263597,0,0,1.647210717201233,0,0,1.2994799613952637
0.011410002,0,0,1.647210717201233,0,0,1.2994799613952637
0.011555871,0,0,1.4963760375976563,0,0,1.223039984703064
0.011701981,0,0,1.4963760375976563,0,0,1.223039984703064
0.01184822,0,0,1.4963760375976563,0,0,0.8408399820327759
0.01199444,0,0,1.4963760375976563,0,0,0.8408399820327759
0.01214042,0,0,1.4963760375976563,0,0,0.611519992351532
0.012286845,0,0,1.4963760375976563,0,0,0.611519992351532
0.01243288,0,0,1.6759412288665771,0,0,0.9937199950218201
0.012579156,0,0,1.6759412288665771,0,0,0.9937199950218201
0.012725358,0,0,1.6759412288665771,0,0,0.9937199950218201
0.012871394,0,0,1.6759412288665771,0,0,2.3696401119232178
0.01301741,0,0,1.6759412288665771,0,0,2.3696401119232178
0.013163631,0,0,1.6759412288665771,0,0,1.2994799613952637
0.013309778,0,0,1.6759412288665771,0,0,1.2994799613952637
0.013455906,0,0,1.460463047027588,0,0,0.5350799560546875
0.013602385,0,0,1.460463047027588,0,0,0.5350799560546875
0.013748606,0,0,1.460463047027588,0,0,0.8408399820327759
0.013894549,0,0,1.460463047027588,0,0,0.8408399820327759
0.014040862,0,0,1.460463047027588,0,0,0.8408399820327759
0.014204268,0,0,1.460463047027588,0,0,0.7644000053405762
0.014336396,0,0,1.460463047027588,0,0,0.7644000053405762
0.01448269,0,0,1.3311761617660522,0,0,-0.152879998087883
0.0146288,0,0,1.3311761617660522,0,0,-0.152879998087883
0.014774854,0,0,1.3311761617660522,0,0,1.5288000106811523
0.014920908,0,0,1.3311761617660522,0,0,1.5288000106811523
0.015067314,0,0,1.3311761617660522,0,0,1.223039984703064
0.015213349,0,0,1.3311761617660522,0,0,1.223039984703064
0.015359477,0,0,1.3311761617660522,0,0,1.070159912109375
0.015505549,0,0,1.4077905416488647,0,0,1.070159912109375
0.015651826,0,0,1.4077905416488647,0,0,1.070159912109375
0.015797824,0,0,1.4077905416488647,0,0,1.452359914779663
0.015944119,0,0,1.4077905416488647,0,0,1.452359914779663
0.016090284,0,0,1.4077905416488647,0,0,0.152879998087883
0.016236578,0,0,1.4077905416488647,0,0,0.152879998087883
0.01638278,0,0,1.4077905416488647,0,0,0.4586400091648102
0.016529057,0,0,1.3527239561080933,0,0,0.4586400091648102
0.016675499,0,0,1.3527239561080933,0,0,1.070159912109375
0.016821794,0,0,1.3527239561080933,0,0,1.070159912109375
0.016967941,0,0,1.3527239561080933,0,0,1.1466000080108643
0.017114087,0,0,1.3527239561080933,0,0,1.1466000080108643
0.017260197,0,0,1.3527239561080933,0,0,1.1466000080108643
0.017406177,0,0,1.3527239561080933,0,0,0.611519992351532
0.017552508,0,0,1.292868971824646,0,0,0.611519992351532
0.017698821,0,0,1.292868971824646,0,0,0.3822000026702881
0.017844931,0,0,1.292868971824646,0,0,0.3822000026702881
0.017991114,0,0,1.292868971824646,0,0,0.3822000026702881
0.018137502,0,0,1.292868971824646,0,0,0.3822000026702881
0.018286222,0,0,1.292868971824646,0,0,0.3822000026702881
0.018430443,0,0,1.482010841369629,0,0,0.3822000026702881
0.018576312,0,0,1.482010841369629,0,0,0.7644000053405762
0.018726421,0,0,1.482010841369629,0,0,0.7644000053405762
0.018870864,0,0,1.482010841369629,0,0,0.7644000053405762
0.019017066,0,0,1.482010841369629,0,0,1.9109998941421509
0.019163342,0,0,1.482010841369629,0,0,1.9109998941421509
0.01931597,0,0,1.482010841369629,0,0,1.223039984703064
0.01946458,0,0,1.50355863571167,0,0,1.223039984703064
0.019602411,0,0,1.50355863571167,0,0,0.9937199950218201
0.019748317,0,0,1.50355863571167,0,0,0.9937199950218201
0.019894445,0,0,1.50355863571167,0,0,0.152879998087883
0.020040536,0,0,1.50355863571167,0,0,0.152879998087883
0.020186479,0,0,1.50355863571167,0,0,0.152879998087883
0.020332774,0,0,1.50355863571167,0,0,0.3822000026702881
0.020478846,0,0,1.6376339197158813,0,0,0.3822000026702881
0.020625011,0,0,1.6376339197158813,0,0,2.14031982421875
0.020771195,0,0,1.6376339197158813,0,0,2.14031982421875
0.020917323,0,0,1.6376339197158813,0,0,2.14031982421875
0.021063599,0,0,1.6376339197158813,0,0,2.14031982421875
0.02120969,0,0,1.6376339197158813,0,0,1.375920057296753
0.021355984,0,0,1.6376339197158813,0,0,1.375920057296753
0.021502112,0,0,1.659181833267212,0,0,0.3822000026702881
0.021648278,0,0,1.659181833267212,0,0,0.3822000026702881
0.02179435,0,0,1.659181833267212,0,0,0.3822000026702881
0.021940367,0,0,1.659181833267212,0,0,0.3822000026702881
0.022094402,0,0,1.659181833267212,0,0,0.3822000026702881
0.022236438,0,0,1.659181833267212,0,0,1.9874399900436401
0.022379492,0,0,1.659181833267212,0,0,1.9874399900436401
0.022525231,0,0,1.5322890281677246,0,0,1.8345600366592407
0.022671396,0,0,1.5322890281677246,0,0,1.8345600366592407
0.022817542,0,0,1.5322890281677246,0,0,1.223039984703064
0.022963689,0,0,1.5322890281677246,0,0,1.223039984703064
0.023109817,0,0,1.5322890281677246,0,0,1.1466000080108643
0.023260408,0,0,1.5322890281677246,0,0,1.1466000080108643
0.023404443,0,0,1.5322890281677246,0,0,1.1466000080108643
0.023550905,0,0,1.699883222579956,0,0,-0.305759996175766
0.023697014,0,0,1.699883222579956,0,0,-0.305759996175766
0.023843327,0,0,1.699883222579956,0,0,0.152879998087883
0.023989548,0,0,1.699883222579956,0,0,0.152879998087883
0.024135528,0,0,1.699883222579956,0,0,0.4586400091648102
0.024281785,0,0,1.699883222579956,0,0,0.4586400091648102
0.024427895,0,0,1.699883222579956,0,0,1.070159912109375
0.024574189,0,0,1.436521053314209,0,0,1.070159912109375
0.024720299,0,0,1.436521053314209,0,0,1.1466000080108643
0.024866316,0,0,1.436521053314209,0,0,1.1466000080108643
0.025012611,0,0,1.436521053314209,0,0,1.1466000080108643
0.025158701,0,0,1.436521053314209,0,0,0.7644000053405762
0.025304829,0,0,1.436521053314209,0,0,0.7644000053405762
0.02545092,0,0,1.3646949529647827,0,0,0.5350799560546875
0.025597011,0,0,1.3646949529647827,0,0,0.5350799560546875
0.025743288,0,0,1.3646949529647827,0,0,0.305759996175766
0.025889286,0,0,1.3646949529647827,0,0,0.305759996175766
0.026035377,0,0,1.3646949529647827,0,0,1.375920057296753
0.026181709,0,0,1.3646949529647827,0,0,1.375920057296753
0.026328929,0,0,1.3646949529647827,0,0,1.375920057296753
0.026473076,0,0,1.2689268589019775,0,0,0.8408399820327759
0.0266175,0,0,1.2689268589019775,0,0,0.8408399820327759
0.02676211,0,0,1.2689268589019775,0,0,0.2293200045824051
0.026906608,0,0,1.2689268589019775,0,0,0.2293200045824051
0.027050958,0,0,1.2689268589019775,0,0,1.375920057296753
0.027195457,0,0,1.2689268589019775,0,0,1.375920057296753
0.02734014,0,0,1.2689268589019775,0,0,0.3822000026702881
0.02748462,0,0,1.2401964664459229,0,0,0.3822000026702881
0.027629248,0,0,1.2401964664459229,0,0,1.070159912109375
0.027777043,0,0,1.2401964664459229,0,0,1.070159912109375
0.027920189,0,0,1.2401964664459229,0,0,1.070159912109375
0.028064465,0,0,1.2401964664459229,0,0,1.8345600366592407
0.028208908,0,0,1.2401964664459229,0,0,1.8345600366592407
0.028353629,0,0,1.2401964664459229,0,0,0
0.028498183,0,0,1.314416766166687,0,0,0
0.028642496,0,0,1.314416766166687,0,0,0.4586400091648102
0.028787106,0,0,1.314416766166687,0,0,0.4586400091648102
0.028931641,0,0,1.314416766166687,0,0,1.1466000080108643
0.029076417,0,0,1.314416766166687,0,0,1.1466000080108643
0.029220897,0,0,1.314416766166687,0,0,1.1466000080108643
0.029365229,0,0,1.314416766166687,0,0,1.9109998941421509
0.029509949,0,0,1.400607943534851,0,0,1.9109998941421509
0.029654466,0,0,1.400607943534851,0,0,0
0.029798891,0,0,1.400607943534851,0,0,0
0.029943426,0,0,1.400607943534851,0,0,1.2994799613952637
0.03008785,0,0,1.400607943534851,0,0,1.2994799613952637
0.030238293,0,0,1.400607943534851,0,0,0.4586400091648102
0.030389884,0,0,1.400607943534851,0,0,0.4586400091648102
0.030540382,0,0,1.5155296325683594,0,0,0.9172800183296204
0.03068814,0,0,1.5155296325683594,0,0,0.9172800183296204
0.030835046,0,0,1.5155296325683594,0,0,0.9172800183296204
0.030994303,0,0,1.5155296325683594,0,0,0
0.031128283,0,0,1.5155296325683594,0,0,0
0.031279985,0,0,1.5155296325683594,0,0,0.0764399990439415
0.031427595,0,0,1.5155296325683594,0,0,0.0764399990439415
0.031575371,0,0,1.6280571222305298,0,0,0.9172800183296204
0.031720758,0,0,1.6280571222305298,0,0,0.9172800183296204
0.031886293,0,0,1.6280571222305298,0,0,0.8408399820327759
0.032038829,0,0,1.6280571222305298,0,0,0.8408399820327759
0.032193308,0,0,1.6280571222305298,0,0,0.2293200045824051
0.032358047,0,0,1.6280571222305298,0,0,0.2293200045824051
0.032508527,0,0,1.5897499322891235,0,0,0.6879600286483765
0.032663877,0,0,1.5897499322891235,0,0,0.6879600286483765
0.032818764,0,0,1.5897499322891235,0,0,0.5350799560546875
0.033039521,0,0,1.5897499322891235,0,0,0.5350799560546875
0.03319952,0,0,1.5897499322891235,0,0,1.605239987373352
0.033353925,0,0,1.5897499322891235,0,0,1.605239987373352
0.033503849,0,0,1.6112977266311646,0,0,0.4586400091648102
0.033650385,0,0,1.6112977266311646,0,0,0.4586400091648102
0.033796772,0,0,1.6112977266311646,0,0,1.070159912109375
0.033942956,0,0,1.6112977266311646,0,0,1.070159912109375
0.034089454,0,0,1.6112977266311646,0,0,1.070159912109375
0.034239601,0,0,1.6112977266311646,0,0,1.452359914779663
0.034384266,0,0,1.6112977266311646,0,0,1.452359914779663
0.034530245,0,0,1.534683346748352,0,0,0.305759996175766
0.034676411,0,0,1.534683346748352,0,0,0.305759996175766
0.034822705,0,0,1.534683346748352,0,0,1.070159912109375
0.034968889,0,0,1.534683346748352,0,0,1.070159912109375
0.035114887,0,0,1.534683346748352,0,0,0.4586400091648102
0.035261293,0,0,1.534683346748352,0,0,0.4586400091648102
0.035407254,0,0,1.534683346748352,0,0,0.611519992351532
0.035553253,0,0,1.37906014919281,0,0,0.611519992351532
0.035699288,0,0,1.37906014919281,0,0,0.611519992351532
0.035845472,0,0,1.37906014919281,0,0,0.0764399990439415
0.035991766,0,0,1.37906014919281,0,0,0.0764399990439415
0.036137765,0,0,1.37906014919281,0,0,0.5350799560546875
0.036283985,0,0,1.37906014919281,0,0,0.5350799560546875
0.036430632,0,0,1.37906014919281,0,0,0.5350799560546875
0.03657663,0,0,1.3910311460494995,0,0,0.5350799560546875
0.036722573,0,0,1.3910311460494995,0,0,0.9937199950218201
0.036868831,0,0,1.3910311460494995,0,0,0.9937199950218201
0.037024384,0,0,1.3910311460494995,0,0,0.7644000053405762
0.037166401,0,0,1.3910311460494995,0,0,0.7644000053405762
0.037312566,0,0,1.3910311460494995,0,0,0.7644000053405762
0.037458713,0,0,1.335964560508728,0,0,0.4586400091648102
0.037604785,0,0,1.335964560508728,0,0,0.4586400091648102
0.037750747,0,0,1.335964560508728,0,0,0.2293200045824051
0.03789693,0,0,1.335964560508728,0,0,0.2293200045824051
0.038043318,0,0,1.335964560508728,0,0,1.2994799613952637
0.038203353,0,0,1.335964560508728,0,0,1.2994799613952637
0.038376425,0,0,1.335964560508728,0,0,0.9172800183296204
0.038482998,0,0,1.335964560508728,0,0,0.9172800183296204
0.038627978,0,0,1.335964560508728,0,0,0.8408399820327759
0.038773791,0,0,1.335964560508728,0,0,0.8408399820327759
0.038919715,0,0,1.335964560508728,0,0,0.8408399820327759
0.039065973,0,0,1.335964560508728,0,0,-0.4586400091648102
0.039212064,0,0,1.335964560508728,0,0,-0.4586400091648102
0.039358025,0,0,1.335964560508728,0,0,0.7644000053405762
0.039504487,0,0,1.37906014919281,0,0,0.7644000053405762
0.039650522,0,0,1.37906014919281,0,0,1.223039984703064
0.039796557,0,0,1.37906014919281,0,0,1.223039984703064
0.039942908,0,0,1.37906014919281,0,0,1.1466000080108643
0.040088887,0,0,1.37906014919281,0,0,1.1466000080108643
0.04023496,0,0,1.37906014919281,0,0,1.1466000080108643
0.040381088,0,0,1.37906014919281,0,0,1.223039984703064
0.040527308,0,0,1.5107412338256836,0,0,1.223039984703064
0.04067327,0,0,1.5107412338256836,0,0,0
0.040819527,0,0,1.5107412338256836,0,0,0
0.040965655,0,0,1.5107412338256836,0,0,0
0.041111913,0,0,1.5107412338256836,0,0,0
0.041257856,0,0,1.5107412338256836,0,0,0.9172800183296204
0.041403984,0,0,1.5107412338256836,0,0,0.9172800183296204
0.041555408,0,0,1.644816517829895,0,0,0.6879600286483765
0.041698703,0,0,1.644816517829895,0,0,0.6879600286483765
0.041844701,0,0,1.644816517829895,0,0,0.6879600286483765
0.041990959,0,0,1.644816517829895,0,0,0.5350799560546875
0.042137142,0,0,1.644816517829895,0,0,0.5350799560546875
0.042284567,0,0,1.644816517829895,0,0,0.611519992351532
0.042429361,0,0,1.644816517829895,0,0,0.611519992351532
0.042575563,0,0,1.625662922859192,0,0,0.9172800183296204
0.042721877,0,0,1.625662922859192,0,0,0.9172800183296204
0.042867875,0,0,1.625662922859192,0,0,0.7644000053405762
0.043013966,0,0,1.625662922859192,0,0,0.7644000053405762
0.043159909,0,0,1.625662922859192,0,0,0.4586400091648102
0.043306092,0,0,1.625662922859192,0,0,0.4586400091648102
0.043452387,0,0,1.625662922859192,0,0,0.4586400091648102
0.043598626,0,0,1.4484920501708984,0,0,1.5288000106811523
0.043744699,0,0,1.4484920501708984,0,0,1.5288000106811523
0.043890641,0,0,1.4484920501708984,0,0,0.305759996175766
0.044036881,0,0,1.4484920501708984,0,0,0.305759996175766
0.044183212,0,0,1.4484920501708984,0,0,0.9172800183296204
0.044329229,0,0,1.4484920501708984,0,0,0.9172800183296204
0.04447545,0,0,1.6208745241165161,0,0,1.1466000080108643
0.044621467,0,0,1.6208745241165161,0,0,1.1466000080108643
0.04476778,0,0,1.6208745241165161,0,0,1.1466000080108643
0.044913871,0,0,1.6208745241165161,0,0,0.611519992351532
0.045059962,0,0,1.6208745241165161,0,0,0.611519992351532
0.045206108,0,0,1.6208745241165161,0,0,1.5288000106811523
0.045352236,0,0,1.6208745241165161,0,0,1.5288000106811523
0.045498216,0,0,1.37906014919281,0,0,0.305759996175766
0.045644159,0,0,1.37906014919281,0,0,0.305759996175766
0.045790417,0,0,1.37906014919281,0,0,0.8408399820327759
0.045936304,0,0,1.37906014919281,0,0,0.8408399820327759
0.046086117,0,0,1.37906014919281,0,0,0.9172800183296204
0.046231282,0,0,1.37906014919281,0,0,0.9172800183296204
0.046375206,0,0,1.37906014919281,0,0,0.9172800183296204
0.046519705,0,0,1.3479355573654175,0,0,1.9109998941421509
0.046664148,0,0,1.3479355573654175,0,0,1.9109998941421509
0.046808702,0,0,1.3479355573654175,0,0,0.4586400091648102
0.046953107,0,0,1.3479355573654175,0,0,0.4586400091648102
0.047097495,0,0,1.3479355573654175,0,0,1.1466000080108643
0.04724203,0,0,1.3479355573654175,0,0,1.1466000080108643
0.047386529,0,0,1.3479355573654175,0,0,0.5350799560546875
0.047530916,0,0,1.37906014919281,0,0,0.5350799560546875
0.047675488,0,0,1.37906014919281,0,0,0.5350799560546875
0.047820079,0,0,1.37906014919281,0,0,0.611519992351532
0.047964707,0,0,1.37906014919281,0,0,0.611519992351532
0.048109206,0,0,1.37906014919281,0,0,1.6816799640655518
0.048253778,0,0,1.37906014919281,0,0,1.6816799640655518
0.048398388,0,0,1.37906014919281,0,0,0.152879998087883
0.048542868,0,0,1.290474772453308,0,0,0.152879998087883
0.048687459,0,0,1.290474772453308,0,0,0.2293200045824051
0.048832031,0,0,1.290474772453308,0,0,0.2293200045824051
0.048976622,0,0,1.290474772453308,0,0,0.9172800183296204
0.049121231,0,0,1.290474772453308,0,0,0.9172800183296204
0.049265841,0,0,1.290474772453308,0,0,0.9172800183296204
0.049410469,0,0,1.290474772453308,0,0,1.605239987373352
0.049554986,0,0,1.2521674633026123,0,0,1.605239987373352
0.049699688,0,0,1.2521674633026123,0,0,0.152879998087883
0.049844298,0,0,1.2521674633026123,0,0,0.152879998087883
0.049988926,0,0,1.2521674633026123,0,0,1.070159912109375
0.050133479,0,0,1.2521674633026123,0,0,1.070159912109375
0.050279941,0,0,1.2521674633026123,0,0,0.4586400091648102
0.05042618,0,0,1.2521674633026123,0,0,0.4586400091648102
0.050575678,0,0,1.4101848602294922,0,0,0.4586400091648102
0.050719343,0,0,1.4101848602294922,0,0,-0.5350799560546875
0.050864842,0,0,1.4101848602294922,0,0,-0.5350799560546875
0.051010562,0,0,1.4101848602294922,0,0,1.1466000080108643
0.051156098,0,0,1.4101848602294922,0,0,1.1466000080108643
0.051301818,0,0,1.4101848602294922,0,0,1.1466000080108643
0.051447298,0,0,1.4101848602294922,0,0,1.1466000080108643
0.051592815,0,0,1.5442601442337036,0,0,0.3822000026702881
0.051738573,0,0,1.5442601442337036,0,0,0.3822000026702881
0.051884016,0,0,1.5442601442337036,0,0,0.3822000026702881
0.052029625,0,0,1.5442601442337036,0,0,0.611519992351532
0.052175198,0,0,1.5442601442337036,0,0,0.611519992351532
0.052321122,0,0,1.5442601442337036,0,0,0
0.052466528,0,0,1.5442601442337036,0,0,0
0.052611878,0,0,1.625662922859192,0,0,0.5350799560546875
0.052757524,0,0,1.625662922859192,0,0,0.5350799560546875
0.052903115,0,0,1.625662922859192,0,0,0.7644000053405762
0.053048651,0,0,1.625662922859192,0,0,0.7644000053405762
0.053194242,0,0,1.625662922859192,0,0,1.070159912109375
0.053339796,0,0,1.625662922859192,0,0,1.070159912109375
0.053493368,0,0,1.6496049165725708,0,0,1.070159912109375
0.053646829,0,0,1.6496049165725708,0,0,0.9172800183296204
0.053803642,0,0,1.6496049165725708,0,0,0.9172800183296204
0.053957696,0,0,1.6496049165725708,0,0,-0.2293200045824051
0.054109787,0,0,1.6496049165725708,0,0,-0.2293200045824051
0.05426386,0,0,1.6496049165725708,0,0,1.1466000080108643
0.054408599,0,0,1.6496049165725708,0,0,1.1466000080108643
0.054568782,0,0,1.5155296325683594,0,0,0.6879600286483765
0.054708281,0,0,1.5155296325683594,0,0,0.6879600286483765
0.054856631,0,0,1.5155296325683594,0,0,0
0.055005259,0,0,1.5155296325683594,0,0,0
0.055169349,0,0,1.5155296325683594,0,0,0.611519992351532
0.055314329,0,0,1.5155296325683594,0,0,0.611519992351532
0.05546605,0,0,1.5155296325683594,0,0,0.4586400091648102
0.05561677,0,0,1.6831238269805908,0,0,0.4586400091648102
0.055766084,0,0,1.6831238269805908,0,0,0.4586400091648102
0.0559166,0,0,1.6831238269805908,0,0,0.611519992351532
0.056069173,0,0,1.6831238269805908,0,0,0.611519992351532
0.056218264,0,0,1.6831238269805908,0,0,1.452359914779663
0.056365744,0,0,1.6831238269805908,0,0,1.452359914779663
0.056513353,0,0,1.3718775510787964,0,0,0
0.056661314,0,0,1.3718775510787964,0,0,0
0.056808591,0,0,1.3718775510787964,0,0,0.8408399820327759
0.056955607,0,0,1.3718775510787964,0,0,0.8408399820327759
0.057103772,0,0,1.3718775510787964,0,0,0.9937199950218201
0.057258234,0,0,1.3718775510787964,0,0,0.9937199950218201
0.057417417,0,0,1.3718775510787964,0,0,0.8408399820327759
0.057568841,0,0,1.3623007535934448,0,0,0.8408399820327759
0.057725303,0,0,1.3623007535934448,0,0,0.6879600286483765
0.057881264,0,0,1.3623007535934448,0,0,0.6879600286483765
0.058035058,0,0,1.3623007535934448,0,0,0.6879600286483765
0.058210075,0,0,1.3623007535934448,0,0,0.6879600286483765
0.058343962,0,0,1.3623007535934448,0,0,0.6879600286483765
0.058495831,0,0,1.4413094520568848,0,0,2.446079969406128
0.05865157,0,0,1.4413094520568848,0,0,2.446079969406128
0.058806365,0,0,1.4413094520568848,0,0,-0.3822000026702881
0.058989326,0,0,1.4413094520568848,0,0,-0.3822000026702881
0.059146824,0,0,1.4413094520568848,0,0,1.758120059967041
0.05930397,0,0,1.4413094520568848,0,0,1.758120059967041
0.059451043,0,0,1.4413094520568848,0,0,2.522519826889038
0.05959643,0,0,1.381454348564148,0,0,2.522519826889038
0.059741465,0,0,1.381454348564148,0,0,1.375920057296753
0.059896945,0,0,1.381454348564148,0,0,1.375920057296753
0.060037777,0,0,1.381454348564148,0,0,0.6879600286483765
0.06018246,0,0,1.381454348564148,0,0,0.6879600286483765
0.060326885,0,0,1.381454348564148,0,0,0.8408399820327759
0.060472291,0,0,1.381454348564148,0,0,0.8408399820327759
0.060616344,0,0,1.357512354850769,0,0,0.8408399820327759
0.060761139,0,0,1.357512354850769,0,0,0.8408399820327759
0.060905804,0,0,1.357512354850769,0,0,0.8408399820327759
0.061050117,0,0,1.357512354850769,0,0,0
0.061194671,0,0,1.357512354850769,0,0,0
0.061339336,0,0,1.357512354850769,0,0,1.2994799613952637
0.061483779,0,0,1.3431471586227417,0,0,1.2994799613952637
0.061628222,0,0,1.3431471586227417,0,0,0.8408399820327759
0.061772887,0,0,1.3431471586227417,0,0,0.8408399820327759
0.061917404,0,0,1.3431471586227417,0,0,0.7644000053405762
0.062062069,0,0,1.3431471586227417,0,0,0.7644000053405762
0.062237123,0,0,1.3431471586227417,0,0,0.7644000053405762
0.062382343,0,0,1.3431471586227417,0,0,0.5350799560546875
0.062528434,0,0,1.5155296325683594,0,0,0.5350799560546875
0.062674303,0,0,1.5155296325683594,0,0,1.2994799613952637
0.062820376,0,0,1.5155296325683594,0,0,1.2994799613952637
0.062966244,0,0,1.5155296325683594,0,0,1.223039984703064
0.063112317,0,0,1.5155296325683594,0,0,1.223039984703064
0.063258056,0,0,1.5155296325683594,0,0,0.4586400091648102
0.063403888,0,0,1.5155296325683594,0,0,0.4586400091648102
0.063549886,0,0,1.525106430053711,0,0,1.1466000080108643
0.063695736,0,0,1.525106430053711,0,0,1.1466000080108643
0.06384166,0,0,1.525106430053711,0,0,1.1466000080108643
0.063987566,0,0,1.525106430053711,0,0,1.605239987373352
0.064149546,0,0,1.525106430053711,0,0,1.605239987373352
0.064279693,0,0,1.525106430053711,0,0,-1.1466000080108643
0.064436395,0,0,1.525106430053711,0,0,-1.1466000080108643
0.064585467,0,0,1.4293384552001953,0,0,0
0.064742132,0,0,1.4293384552001953,0,0,0
0.064901667,0,0,1.4293384552001953,0,0,0.611519992351532
0.065058425,0,0,1.4293384552001953,0,0,0.611519992351532
0.065213812,0,0,1.4293384552001953,0,0,0.305759996175766
0.065369903,0,0,1.4293384552001953,0,0,0.305759996175766
0.065526642,0,0,1.4939818382263184,0,0,1.1466000080108643
0.065676436,0,0,1.4939818382263184,0,0,1.1466000080108643
0.065822824,0,0,1.4939818382263184,0,0,0.305759996175766
0.065969081,0,0,1.4939818382263184,0,0,0.305759996175766
0.066115191,0,0,1.4939818382263184,0,0,0.305759996175766
0.066278245,0,0,1.4939818382263184,0,0,0.5350799560546875
0.06642565,0,0,1.4939818382263184,0,0,0.5350799560546875
0.066574908,0,0,1.5658079385757446,0,0,0.611519992351532
0.066731406,0,0,1.5658079385757446,0,0,0.611519992351532
0.066883645,0,0,1.5658079385757446,0,0,1.375920057296753
0.067035681,0,0,1.5658079385757446,0,0,1.375920057296753
0.067190105,0,0,1.5658079385757446,0,0,1.9109998941421509
0.067354973,0,0,1.5658079385757446,0,0,1.9109998941421509
0.067501564,0,0,1.381454348564148,0,0,1.6816799640655518
0.067644044,0,0,1.381454348564148,0,0,1.6816799640655518
0.067789135,0,0,1.381454348564148,0,0,1.1466000080108643
0.067935282,0,0,1.381454348564148,0,0,1.1466000080108643
0.068081521,0,0,1.381454348564148,0,0,0.9937199950218201
0.068227427,0,0,1.381454348564148,0,0,0.9937199950218201
0.06837361,0,0,1.381454348564148,0,0,0.9937199950218201
0.068519479,0,0,1.357512354850769,0,0,0.305759996175766
0.068665607,0,0,1.357512354850769,0,0,0.305759996175766
0.068811809,0,0,1.357512354850769,0,0,1.1466000080108643
0.068957993,0,0,1.357512354850769,0,0,1.1466000080108643
0.069114028,0,0,1.357512354850769,0,0,1.375920057296753
0.069255378,0,0,1.357512354850769,0,0,1.375920057296753
0.069401395,0,0,1.357512354850769,0,0,0.3822000026702881
0.069547282,0,0,1.3239935636520386,0,0,0.3822000026702881
0.069693021,0,0,1.3239935636520386,0,0,0.305759996175766
0.069839112,0,0,1.3239935636520386,0,0,0.305759996175766
0.069985,0,0,1.3239935636520386,0,0,0.305759996175766
0.070131109,0,0,1.3239935636520386,0,0,0.4586400091648102
0.070277885,0,0,1.3239935636520386,0,0,0.4586400091648102
0.070422124,0,0,1.3239935636520386,0,0,0.5350799560546875
0.070568178,0,0,1.3263877630233765,0,0,0.5350799560546875
0.070714306,0,0,1.3263877630233765,0,0,0.5350799560546875
0.070860212,0,0,1.3263877630233765,0,0,0.5350799560546875
0.071006433,0,0,1.3263877630233765,0,0,0.2293200045824051
0.071152098,0,0,1.3263877630233765,0,0,0.2293200045824051
0.071298207,0,0,1.3263877630233765,0,0,0.9937199950218201
0.071444206,0,0,1.3263877630233765,0,0,0.9937199950218201
0.071590186,0,0,1.4245500564575195,0,0,0.9937199950218201
0.071736147,0,0,1.4245500564575195,0,0,0.2293200045824051
0.07188233,0,0,1.4245500564575195,0,0,0.2293200045824051
0.072028347,0,0,1.4245500564575195,0,0,0.2293200045824051
0.07217429,0,0,1.4245500564575195,0,0,0.2293200045824051
0.072320214,0,0,1.4245500564575195,0,0,0.305759996175766
0.072466009,0,0,1.4245500564575195,0,0,0.305759996175766
0.072612174,0,0,1.5083470344543457,0,0,0.9172800183296204
0.072758191,0,0,1.5083470344543457,0,0,0.9172800183296204
0.072904004,0,0,1.5083470344543457,0,0,0.9172800183296204
0.073050151,0,0,1.5083470344543457,0,0,1.070159912109375
0.073196242,0,0,1.5083470344543457,0,0,1.070159912109375
0.073342425,0,0,1.5083470344543457,0,0,0
0.073488294,0,0,1.5083470344543457,0,0,0
0.073655107,0,0,1.5131354331970215,0,0,0.0764399990439415
0.073782383,0,0,1.5131354331970215,0,0,0.0764399990439415
0.073928122,0,0,1.5131354331970215,0,0,0
0.074074121,0,0,1.5131354331970215,0,0,0
0.074224193,0,0,1.5131354331970215,0,0,0.5350799560546875
0.074371766,0,0,1.5131354331970215,0,0,0.5350799560546875
0.07451706,0,0,1.5275006294250488,0,0,0.5350799560546875
0.074663059,0,0,1.5275006294250488,0,0,1.375920057296753
0.074808928,0,0,1.5275006294250488,0,0,1.375920057296753
0.07495487,0,0,1.5275006294250488,0,0,2.522519826889038
0.075100906,0,0,1.5275006294250488,0,0,2.522519826889038
0.075246793,0,0,1.5275006294250488,0,0,0.611519992351532
0.07539294,0,0,1.5275006294250488,0,0,0.611519992351532
0.075538697,0,0,1.4891934394836426,0,0,0
0.075684603,0,0,1.4891934394836426,0,0,0
0.075830694,0,0,1.4891934394836426,0,0,1.1466000080108643
0.075976433,0,0,1.4891934394836426,0,0,1.1466000080108643
0.076151727,0,0,1.4891934394836426,0,0,0.8408399820327759
0.076269874,0,0,1.4891934394836426,0,0,0.8408399820327759
0.07641478,0,0,1.4891934394836426,0,0,0.8408399820327759
0.076560501,0,0,1.644816517829895,0,0,1.1466000080108643
0.076706518,0,0,1.644816517829895,0,0,1.1466000080108643
0.076852497,0,0,1.644816517829895,0,0,0.611519992351532
0.076998533,0,0,1.644816517829895,0,0,0.611519992351532
0.077144513,0,0,1.644816517829895,0,0,1.070159912109375
0.077290363,0,0,1.644816517829895,0,0,1.070159912109375
0.07743625,0,0,1.644816517829895,0,0,1.070159912109375
0.077582119,0,0,1.4772224426269531,0,0,0.6879600286483765
0.077727969,0,0,1.4772224426269531,0,0,0.6879600286483765
0.077874042,0,0,1.4772224426269531,0,0,-0.152879998087883
0.078020096,0,0,1.4772224426269531,0,0,-0.152879998087883
0.078169927,0,0,1.4772224426269531,0,0,0.4586400091648102
0.078314352,0,0,1.4772224426269531,0,0,0.4586400091648102
0.078460146,0,0,1.4772224426269531,0,0,0.5350799560546875
0.078606033,0,0,1.400607943534851,0,0,0.5350799560546875
0.078752143,0,0,1.400607943534851,0,0,0.5350799560546875
0.078898049,0,0,1.400607943534851,0,0,0.5350799560546875
0.079044158,0,0,1.400607943534851,0,0,0.5350799560546875
0.079190027,0,0,1.400607943534851,0,0,1.9109998941421509
0.079336266,0,0,1.400607943534851,0,0,1.9109998941421509
0.079482227,0,0,1.400607943534851,0,0,1.452359914779663
0.079628189,0,0,1.3431471586227417,0,0,1.452359914779663
0.079773946,0,0,1.3431471586227417,0,0,0.6879600286483765
0.079920148,0,0,1.3431471586227417,0,0,0.6879600286483765
0.080065888,0,0,1.3431471586227417,0,0,1.070159912109375
0.080211979,0,0,1.3431471586227417,0,0,1.070159912109375
0.080358107,0,0,1.3431471586227417,0,0,0.6879600286483765
0.080504049,0,0,1.3431471586227417,0,0,0.6879600286483765
0.080649937,0,0,1.256955862045288,0,0,0.6879600286483765
0.080795898,0,0,1.256955862045288,0,0,1.6816799640655518
0.080941822,0,0,1.256955862045288,0,0,1.6816799640655518
0.081088024,0,0,1.256955862045288,0,0,0.305759996175766
0.081233801,0,0,1.256955862045288,0,0,0.305759996175766
0.08137978,0,0,1.256955862045288,0,0,0.3822000026702881
0.081525631,0,0,1.213860273361206,0,0,0.3822000026702881
0.081671462,0,0,1.213860273361206,0,0,0.2293200045824051
0.08181772,0,0,1.213860273361206,0,0,0.2293200045824051
0.081963552,0,0,1.213860273361206,0,0,0.2293200045824051
0.082109569,0,0,1.213860273361206,0,0,0.5350799560546875
0.082256752,0,0,1.213860273361206,0,0,0.5350799560546875
0.082401769,0,0,1.213860273361206,0,0,0.6879600286483765
0.082547638,0,0,1.3910311460494995,0,0,0.6879600286483765
0.082697155,0,0,1.3910311460494995,0,0,0.5350799560546875
0.082841209,0,0,1.3910311460494995,0,0,0.5350799560546875
0.08298704,0,0,1.3910311460494995,0,0,0.7644000053405762
0.083133002,0,0,1.3910311460494995,0,0,0.7644000053405762
0.083278926,0,0,1.3910311460494995,0,0,0.305759996175766
0.083425017,0,0,1.3910311460494995,0,0,0.305759996175766
0.083571052,0,0,1.4939818382263184,0,0,0.305759996175766
0.083717236,0,0,1.4939818382263184,0,0,1.452359914779663
0.083863197,0,0,1.4939818382263184,0,0,1.452359914779663
0.084009122,0,0,1.4939818382263184,0,0,0
0.084155324,0,0,1.4939818382263184,0,0,0
0.084301248,0,0,1.4939818382263184,0,0,0.3822000026702881
0.08444708,0,0,1.4939818382263184,0,0,0.3822000026702881
0.084592948,0,0,1.525106430053711,0,0,0.4586400091648102
0.084738928,0,0,1.525106430053711,0,0,0.4586400091648102
0.084884797,0,0,1.525106430053711,0,0,0.6879600286483765
0.085030907,0,0,1.525106430053711,0,0,0.6879600286483765
0.08517659,0,0,1.525106430053711,0,0,0.6879600286483765
0.085322626,0,0,1.525106430053711,0,0,0.8408399820327759
0.085468568,0,0,1.525106430053711,0,0,0.8408399820327759
0.085614456,0,0,1.4915876388549805,0,0,0.6879600286483765
0.08576038,0,0,1.4915876388549805,0,0,0.6879600286483765
0.085906267,0,0,1.4915876388549805,0,0,-0.305759996175766
0.086052284,0,0,1.4915876388549805,0,0,-0.305759996175766
0.086198819,0,0,1.4915876388549805,0,0,0.4586400091648102
0.086365484,0,0,1.4915876388549805,0,0,0.4586400091648102
0.08651176,0,0,1.4915876388549805,0,0,0.3822000026702881
0.086657814,0,0,1.4532804489135742,0,0,0.3822000026702881
0.086803831,0,0,1.4532804489135742,0,0,0.3822000026702881
0.086949811,0,0,1.4532804489135742,0,0,0.3822000026702881
0.087095735,0,0,1.4532804489135742,0,0,0.3822000026702881
0.087245326,0,0,1.4532804489135742,0,0,0.9172800183296204
0.087389454,0,0,1.4532804489135742,0,0,0.9172800183296204
0.087535619,0,0,1.5466543436050415,0,0,0.611519992351532
0.087681692,0,0,1.5466543436050415,0,0,0.611519992351532
0.087827505,0,0,1.5466543436050415,0,0,0.5350799560546875
0.087973429,0,0,1.5466543436050415,0,0,0.5350799560546875
0.088119483,0,0,1.5466543436050415,0,0,0.6879600286483765
0.088265556,0,0,1.5466543436050415,0,0,0.6879600286483765
0.088411332,0,0,1.5466543436050415,0,0,0.6879600286483765
0.08855733,0,0,1.400607943534851,0,0,0.2293200045824051
0.08870344,0,0,1.400607943534851,0,0,0.2293200045824051
0.088849309,0,0,1.400607943534851,0,0,0.8408399820327759
0.088995381,0,0,1.400607943534851,0,0,0.8408399820327759
0.089141528,0,0,1.400607943534851,0,0,0.305759996175766
0.0892876,0,0,1.400607943534851,0,0,0.305759996175766
0.08943345,0,0,1.400607943534851,0,0,0.5350799560546875
0.089579486,0,0,1.359906554222107,0,0,0.5350799560546875
0.08972554,0,0,1.359906554222107,0,0,0.5350799560546875
0.089871686,0,0,1.359906554222107,0,0,0.9172800183296204
0.090017721,0,0,1.359906554222107,0,0,0.9172800183296204
0.090163683,0,0,1.359906554222107,0,0,0.9937199950218201
0.090310292,0,0,1.359906554222107,0,0,0.9937199950218201
0.090455791,0,0,1.359906554222107,0,0,0.8408399820327759
0.090601622,0,0,1.4460978507995605,0,0,0.8408399820327759
0.090747676,0,0,1.4460978507995605,0,0,0.7644000053405762
0.090893786,0,0,1.4460978507995605,0,0,0.7644000053405762
0.091039729,0,0,1.4460978507995605,0,0,0.9172800183296204
0.091185986,0,0,1.4460978507995605,0,0,0.9172800183296204
0.091331929,0,0,1.4460978507995605,0,0,0.9172800183296204
0.091478039,0,0,1.4460978507995605,0,0,1.5288000106811523
0.091624111,0,0,1.3311761617660522,0,0,1.5288000106811523
0.091773591,0,0,1.3311761617660522,0,0,0.611519992351532
0.091917867,0,0,1.3311761617660522,0,0,0.611519992351532
0.092063977,0,0,1.3311761617660522,0,0,0.4586400091648102
0.092209901,0,0,1.3311761617660522,0,0,0.4586400091648102
0.092355862,0,0,1.3311761617660522,0,0,0
0.092501749,0,0,1.3311761617660522,0,0,0
0.092647655,0,0,1.3838485479354858,0,0,0.3822000026702881
0.092793635,0,0,1.3838485479354858,0,0,0.3822000026702881
0.09293967,0,0,1.3838485479354858,0,0,0.3822000026702881
0.093085687,0,0,1.3838485479354858,0,0,0.4586400091648102
0.093231649,0,0,1.3838485479354858,0,0,0.4586400091648102
0.09337761,0,0,1.3838485479354858,0,0,0.2293200045824051
0.093523627,0,0,1.3838485479354858,0,0,0.2293200045824051
0.093669533,0,0,1.4724340438842773,0,0,0.5350799560546875
0.093815513,0,0,1.4724340438842773,0,0,0.5350799560546875
0.093968029,0,0,1.4724340438842773,0,0,1.070159912109375
0.094107898,0,0,1.4724340438842773,0,0,1.070159912109375
0.094254304,0,0,1.4724340438842773,0,0,1.070159912109375
0.094399525,0,0,1.4724340438842773,0,0,0.9172800183296204
0.094545708,0,0,1.5394717454910278,0,0,0.9172800183296204
0.094691614,0,0,1.5394717454910278,0,0,0.152879998087883
0.094837612,0,0,1.5394717454910278,0,0,0.152879998087883
0.094983592,0,0,1.5394717454910278,0,0,0
0.095129461,0,0,1.5394717454910278,0,0,0
0.095275626,0,0,1.5394717454910278,0,0,0.611519992351532
0.095421532,0,0,1.5394717454910278,0,0,0.611519992351532
0.095567697,0,0,1.5873557329177856,0,0,0.611519992351532
0.095713714,0,0,1.5873557329177856,0,0,0.611519992351532
0.095859749,0,0,1.5873557329177856,0,0,0.611519992351532
0.096005951,0,0,1.5873557329177856,0,0,0.6879600286483765
0.096151746,0,0,1.5873557329177856,0,0,0.6879600286483765
0.096301226,0,0,1.5873557329177856,0,0,0.305759996175766
0.096445613,0,0,1.5873557329177856,0,0,0.305759996175766
0.096591667,0,0,1.5107412338256836,0,0,-0.305759996175766
0.096737554,0,0,1.5107412338256836,0,0,-0.305759996175766
0.096883516,0,0,1.5107412338256836,0,0,-0.305759996175766
0.09702944,0,0,1.5107412338256836,0,0,-0.305759996175766
0.097175586,0,0,1.5107412338256836,0,0,0.9172800183296204
0.097321548,0,0,1.5107412338256836,0,0,0.9172800183296204
0.097467713,0,0,1.5107412338256836,0,0,0.9172800183296204
0.097613785,0,0,1.525106430053711,0,0,0.8408399820327759
0.097759543,0,0,1.525106430053711,0,0,0.8408399820327759
0.097905615,0,0,1.525106430053711,0,0,0
0.098051743,0,0,1.525106430053711,0,0,0
0.098198445,0,0,1.525106430053711,0,0,0.305759996175766
0.098354573,0,0,1.525106430053711,0,0,0.305759996175766
0.098500201,0,0,1.525106430053711,0,0,0.611519992351532
0.098645959,0,0,1.6328455209732056,0,0,0.611519992351532
0.098791624,0,0,1.6328455209732056,0,0,0.9172800183296204
0.098937067,0,0,1.6328455209732056,0,0,0.9172800183296204
0.099090176,0,0,1.6328455209732056,0,0,0.9172800183296204
0.09924236,0,0,1.6328455209732056,0,0,1.6816799640655518
0.099393932,0,0,1.6328455209732056,0,0,1.6816799640655518
0.09953943,0,0,1.4101848602294922,0,0,1.605239987373352
0.099685114,0,0,1.4101848602294922,0,0,1.605239987373352
0.099831057,0,0,1.4101848602294922,0,0,1.758120059967041
0.099977426,0,0,1.4101848602294922,0,0,1.758120059967041
0.10012348,0,0,1.4101848602294922,0,0,1.375920057296753
0.100269756,0,0,1.4101848602294922,0,0,1.375920057296753
0.100416069,0,0,1.4101848602294922,0,0,0.6879600286483765
0.100562104,0,0,1.436521053314209,0,0,0.6879600286483765
0.100708121,0,0,1.436521053314209,0,0,0.6879600286483765
0.100859268,0,0,1.436521053314209,0,0,1.2994799613952637
0.101003118,0,0,1.436521053314209,0,0,1.2994799613952637
0.101149357,0,0,1.436521053314209,0,0,0.2293200045824051
0.101295596,0,0,1.436521053314209,0,0,0.2293200045824051
0.101441687,0,0,1.436521053314209,0,0,0.5350799560546875
0.101587778,0,0,1.2952631711959839,0,0,0.5350799560546875
0.101734017,0,0,1.2952631711959839,0,0,0.9937199950218201
0.101880367,0,0,1.2952631711959839,0,0,0.9937199950218201
0.102026644,0,0,1.2952631711959839,0,0,0.7644000053405762
0.102172809,0,0,1.2952631711959839,0,0,0.7644000053405762
0.102319344,0,0,1.2952631711959839,0,0,0.7644000053405762
0.102463824,0,0,1.2952631711959839,0,0,0.4586400091648102
0.102608322,0,0,1.256955862045288,0,0,0.4586400091648102
0.102752858,0,0,1.256955862045288,0,0,1.2994799613952637
0.10289743,0,0,1.256955862045288,0,0,1.2994799613952637
0.10304941,0,0,1.256955862045288,0,0,0
0.10319439,0,0,1.256955862045288,0,0,0
0.103339981,0,0,1.256955862045288,0,0,0.5350799560546875
0.103485183,0,0,1.256955862045288,0,0,0.5350799560546875
0.103630274,0,0,1.3623007535934448,0,0,0.5350799560546875
0.103777735,0,0,1.3623007535934448,0,0,0.9172800183296204
0.103922419,0,0,1.3623007535934448,0,0,0.9172800183296204
0.10407001,0,0,1.3623007535934448,0,0,1.2994799613952637
0.104210156,0,0,1.3623007535934448,0,0,1.2994799613952637
0.10435384,0,0,1.3623007535934448,0,0,0.7644000053405762
0.104498209,0,0,1.3623007535934448,0,0,0.7644000053405762
0.104642577,0,0,1.4724340438842773,0,0,1.1466000080108643
0.104787206,0,0,1.4724340438842773,0,0,1.1466000080108643
0.104931741,0,0,1.4724340438842773,0,0,1.1466000080108643
0.10507635,0,0,1.4724340438842773,0,0,0.2293200045824051
0.105220886,0,0,1.4724340438842773,0,0,0.2293200045824051
0.105373329,0,0,1.4724340438842773,0,0,0
0.10551466,0,0,1.4724340438842773,0,0,0
0.105659214,0,0,1.5514427423477173,0,0,0
0.105803824,0,0,1.5514427423477173,0,0,0
0.105948304,0,0,1.5514427423477173,0,0,0.4586400091648102
0.10609271,0,0,1.5514427423477173,0,0,0.4586400091648102
0.106240171,0,0,1.5514427423477173,0,0,1.2994799613952637
0.106384299,0,0,1.5514427423477173,0,0,1.2994799613952637
0.106529001,0,0,1.5514427423477173,0,0,1.2994799613952637
0.106673518,0,0,1.6065093278884888,0,0,1.1466000080108643
0.106818109,0,0,1.6065093278884888,0,0,1.1466000080108643
0.106962459,0,0,1.6065093278884888,0,0,0.5350799560546875
0.107107106,0,0,1.6065093278884888,0,0,0.5350799560546875
0.107251678,0,0,1.6065093278884888,0,0,0.6879600286483765
0.107396121,0,0,1.6065093278884888,0,0,0.6879600286483765
0.107540842,0,0,1.6065093278884888,0,0,0.6879600286483765
0.107685358,0,0,1.5442601442337036,0,0,0.6879600286483765
0.107829838,0,0,1.5442601442337036,0,0,0.6879600286483765
0.107974466,0,0,1.5442601442337036,0,0,0
0.108119002,0,0,1.5442601442337036,0,0,0
0.108263463,0,0,1.5442601442337036,0,0,0.305759996175766
0.108407999,0,0,1.5442601442337036,0,0,0.305759996175766
0.108552367,0,0,1.5921441316604614,0,0,1.375920057296753
0.108697051,0,0,1.5921441316604614,0,0,1.375920057296753
0.108841327,0,0,1.5921441316604614,0,0,0.7644000053405762
0.108985733,0,0,1.5921441316604614,0,0,0.7644000053405762
0.10913025,0,0,1.5921441316604614,0,0,0.7644000053405762
0.109274545,0,0,1.5921441316604614,0,0,1.223039984703064
0.109419432,0,0,1.5921441316604614,0,0,1.223039984703064
0.109563745,0,0,1.522712230682373,0,0,1.5288000106811523
0.109707632,0,0,1.522712230682373,0,0,1.5288000106811523
0.109856686,0,0,1.522712230682373,0,0,0.2293200045824051
0.110003018,0,0,1.522712230682373,0,0,0.2293200045824051
0.110148701,0,0,1.522712230682373,0,0,1.375920057296753
0.110293441,0,0,1.522712230682373,0,0,1.375920057296753
0.11043918,0,0,1.522712230682373,0,0,0.8408399820327759
0.110587419,0,0,1.4221558570861816,0,0,0.8408399820327759
0.110735954,0,0,1.4221558570861816,0,0,0.8408399820327759
0.110894027,0,0,1.4221558570861816,0,0,1.452359914779663
0.111033766,0,0,1.4221558570861816,0,0,1.452359914779663
0.111182042,0,0,1.4221558570861816,0,0,1.5288000106811523
0.111328133,0,0,1.4221558570861816,0,0,1.5288000106811523
0.11147465,0,0,1.4221558570861816,0,0,1.070159912109375
0.111620963,0,0,1.4844050407409668,0,0,1.070159912109375
0.111767813,0,0,1.4844050407409668,0,0,1.070159912109375
0.111914774,0,0,1.4844050407409668,0,0,1.070159912109375
0.112061365,0,0,1.4844050407409668,0,0,1.452359914779663
0.112207753,0,0,1.4844050407409668,0,0,1.452359914779663
0.112354899,0,0,1.4844050407409668,0,0,1.452359914779663
0.112501416,0,0,1.4844050407409668,0,0,0
0.1126481,0,0,1.4293384552001953,0,0,0
0.112794524,0,0,1.4293384552001953,0,0,0
0.112940763,0,0,1.4293384552001953,0,0,0
0.113086687,0,0,1.4293384552001953,0,0,0.3822000026702881
0.113232964,0,0,1.4293384552001953,0,0,0.3822000026702881
0.113379129,0,0,1.4293384552001953,0,0,0.5350799560546875
0.113525571,0,0,1.4293384552001953,0,0,0.5350799560546875
0.113672885,0,0,1.4101848602294922,0,0,0.9172800183296204
0.11381942,0,0,1.4101848602294922,0,0,0.9172800183296204
0.113965048,0,0,1.4101848602294922,0,0,0.9172800183296204
0.114111139,0,0,1.4101848602294922,0,0,-0.2293200045824051
0.114261359,0,0,1.4101848602294922,0,0,-29.582279205322266
0.114416728,0,0,1.4101848602294922,0,0,0
0.114559115,0,0,1.4245500564575195,0,0,0
0.114706743,0,0,1.4245500564575195,0,0,-0.152879998087883
0.114852446,0,0,1.4245500564575195,0,0,-0.152879998087883
0.11500324,0,0,1.4245500564575195,0,0,0.9172800183296204
0.115148498,0,0,1.4245500564575195,0,0,0.9172800183296204
0.115297126,0,0,1.4245500564575195,0,0,0.305759996175766
0.11544442,0,0,1.4245500564575195,0,0,0.305759996175766
0.115591178,0,0,1.5490485429763794,0,0,0.305759996175766
0.115737454,0,0,1.5490485429763794,0,0,0.6879600286483765
0.115886249,0,0,1.5490485429763794,0,0,0.6879600286483765
0.11603171,0,0,1.5490485429763794,0,0,0.4586400091648102
0.116188431,0,0,1.5490485429763794,0,0,0.4586400091648102
0.116331874,0,0,1.5490485429763794,0,0,1.070159912109375
0.116478039,0,0,1.5490485429763794,0,0,1.070159912109375
0.116625241,0,0,1.5705963373184204,0,0,0.305759996175766
0.116772776,0,0,1.5705963373184204,0,0,0.305759996175766
0.116919089,0,0,1.5705963373184204,0,0,0.9172800183296204
0.117065088,0,0,1.5705963373184204,0,0,0.9172800183296204
0.117212549,0,0,1.5705963373184204,0,0,0.9172800183296204
0.117361844,0,0,1.5705963373184204,0,0,1.5288000106811523
0.117506416,0,0,1.5705963373184204,0,0,1.5288000106811523
0.117652044,0,0,1.6424223184585571,0,0,1.9874399900436401
0.117799857,0,0,1.6424223184585571,0,0,1.9874399900436401
0.117948448,0,0,1.6424223184585571,0,0,0.9937199950218201
0.118094891,0,0,1.6424223184585571,0,0,0.9937199950218201
0.118255445,0,0,1.6424223184585571,0,0,0.0764399990439415
0.118390814,0,0,1.6424223184585571,0,0,0.0764399990439415
0.118536442,0,0,1.6424223184585571,0,0,0.6879600286483765
0.118683681,0,0,1.5634137392044067,0,0,0.6879600286483765
0.118830494,0,0,1.5634137392044067,0,0,0.6879600286483765
0.118995437,0,0,1.5634137392044067,0,0,1.2994799613952637
0.119131602,0,0,1.5634137392044067,0,0,1.2994799613952637
0.119278526,0,0,1.5634137392044067,0,0,1.223039984703064
0.119426506,0,0,1.5634137392044067,0,0,1.223039984703064
0.119572319,0,0,1.5825673341751099,0,0,0.7644000053405762
0.119719169,0,0,1.5825673341751099,0,0,0.7644000053405762
0.119866501,0,0,1.5825673341751099,0,0,1.9109998941421509
0.12002537,0,0,1.5825673341751099,0,0,1.9109998941421509
0.120167053,0,0,1.5825673341751099,0,0,1.605239987373352
0.120321014,0,0,1.5825673341751099,0,0,1.605239987373352
0.120460661,0,0,1.5825673341751099,0,0,0.9172800183296204
0.120607641,0,0,1.3527239561080933,0,0,0.9172800183296204
0.120754935,0,0,1.3527239561080933,0,0,0.9172800183296204
0.120902508,0,0,1.3527239561080933,0,0,0.611519992351532
0.121050173,0,0,1.3527239561080933,0,0,0.611519992351532
0.12119769,0,0,1.3527239561080933,0,0,0.611519992351532
0.121344855,0,0,1.3527239561080933,0,0,0.611519992351532
0.121497631,0,0,1.3527239561080933,0,0,1.1466000080108643
0.121649259,0,0,1.3551181554794312,0,0,1.1466000080108643
0.121809035,0,0,1.3551181554794312,0,0,1.070159912109375
0.121951552,0,0,1.3551181554794312,0,0,1.070159912109375
0.122098328,0,0,1.3551181554794312,0,0,1.2994799613952637
0.122247808,0,0,1.3551181554794312,0,0,1.2994799613952637
0.122394306,0,0,1.3551181554794312,0,0,1.2994799613952637
0.122548138,0,0,1.3551181554794312,0,0,0.7644000053405762
0.122705821,0,0,1.3479355573654175,0,0,0.7644000053405762
0.122861801,0,0,1.3479355573654175,0,0,1.758120059967041
0.123020818,0,0,1.3479355573654175,0,0,1.758120059967041
0.123177964,0,0,1.3479355573654175,0,0,0.9172800183296204
0.123331499,0,0,1.3479355573654175,0,0,0.9172800183296204
0.12348885,0,0,1.3479355573654175,0,0,0.305759996175766
0.1236517,0,0,1.3263877630233765,0,0,0.305759996175766
0.123804087,0,0,1.3263877630233765,0,0,0
0.1239549,0,0,1.3263877630233765,0,0,0
0.124103787,0,0,1.3263877630233765,0,0,0.2293200045824051
0.124249897,0,0,1.3263877630233765,0,0,0.2293200045824051
0.124403099,0,0,1.3263877630233765,0,0,0.2293200045824051
0.124550764,0,0,1.3263877630233765,0,0,0.2293200045824051
0.124700595,0,0,1.292868971824646,0,0,0.7644000053405762
0.124848668,0,0,1.292868971824646,0,0,0.7644000053405762
0.125019647,0,0,1.292868971824646,0,0,0.5350799560546875
0.12516372,0,0,1.292868971824646,0,0,0.5350799560546875
0.125318959,0,0,1.292868971824646,0,0,0.9172800183296204
0.125487994,0,0,1.292868971824646,0,0,0.9172800183296204
0.12565664,0,0,1.45806884765625,0,0,0.9937199950218201
0.12582162,0,0,1.45806884765625,0,0,0.9937199950218201
0.126001062,0,0,1.45806884765625,0,0,0.611519992351532
0.126178116,0,0,1.45806884765625,0,0,0.611519992351532
0.12634191,0,0,1.45806884765625,0,0,0.9937199950218201
0.126517557,0,0,1.45806884765625,0,0,0.9937199950218201
0.126685147,0,0,1.5969325304031372,0,0,0
0.126858201,0,0,1.5969325304031372,0,0,0
0.127029032,0,0,1.5969325304031372,0,0,1.375920057296753
0.127202327,0,0,1.5969325304031372,0,0,1.375920057296753
0.127366177,0,0,1.5969325304031372,0,0,0.9172800183296204
0.127535193,0,0,1.5969325304031372,0,0,0.9172800183296204
0.127717469,0,0,1.525106430053711,0,0,1.223039984703064
0.127888245,0,0,1.525106430053711,0,0,1.223039984703064
0.128081039,0,0,1.525106430053711,0,0,1.223039984703064
0.128267371,0,0,1.525106430053711,0,0,1.6816799640655518
0.12844372,0,0,1.525106430053711,0,0,1.6816799640655518
0.128613644,0,0,1.5825673341751099,0,0,1.375920057296753
0.128786013,0,0,1.5825673341751099,0,0,1.375920057296753
0.128949622,0,0,1.5825673341751099,0,0,0.5350799560546875
0.129127991,0,0,1.5825673341751099,0,0,0.5350799560546875
0.129295822,0,0,1.5825673341751099,0,0,0.2293200045824051
0.129484153,0,0,1.5825673341751099,0,0,0.2293200045824051
0.129654411,0,0,1.5825673341751099,0,0,-0.305759996175766
0.129823131,0,0,1.5825673341751099,0,0,9.478560447692871
0.129988907,0,0,1.5825673341751099,0,0,0.5350799560546875
0.130163553,0,0,1.5825673341751099,0,0,0.6879600286483765
0.13032494,0,0,1.5825673341751099,0,0,0.6879600286483765
0.130499957,0,0,1.5825673341751099,0,0,0.6879600286483765
0.130701214,0,0,1.6543933153152466,0,0,0.6879600286483765
0.130846712,0,0,1.6543933153152466,0,0,1.1466000080108643
0.131017692,0,0,1.6543933153152466,0,0,1.1466000080108643
0.131186449,0,0,1.6543933153152466,0,0,0.611519992351532
0.13137228,0,0,1.6543933153152466,0,0,0.611519992351532
0.13154939,0,0,1.6543933153152466,0,0,0.9172800183296204
0.131731165,0,0,1.3000515699386597,0,0,0.9172800183296204
0.131898663,0,0,1.3000515699386597,0,0,0.2293200045824051
0.132064291,0,0,1.3000515699386597,0,0,0.2293200045824051
0.132235382,0,0,1.3000515699386597,0,0,0.9172800183296204
0.132409399,0,0,1.3000515699386597,0,0,-8.867039680480957
0.132597989,0,0,1.235408067703247,0,0,-0.152879998087883
0.132766117,0,0,1.235408067703247,0,0,0.4586400091648102
0.132946541,0,0,1.235408067703247,0,0,0.4586400091648102
0.133117243,0,0,1.235408067703247,0,0,0.6879600286483765
0.133290463,0,0,1.235408067703247,0,0,0.6879600286483765
0.133461942,0,0,1.235408067703247,0,0,0.152879998087883
0.133639829,0,0,1.3862427473068237,0,0,0.152879998087883
0.13381529,0,0,1.3862427473068237,0,0,0.4586400091648102
0.133984048,0,0,1.3862427473068237,0,0,0.4586400091648102
0.134165416,0,0,1.3862427473068237,0,0,1.8345600366592407
0.134325711,0,0,1.3862427473068237,0,0,1.8345600366592407
0.134490635,0,0,1.3862427473068237,0,0,0
0.134667873,0,0,1.3239935636520386,0,0,0
0.134837057,0,0,1.3239935636520386,0,0,2.2932000160217285
0.135006296,0,0,1.3239935636520386,0,0,0.8408399820327759
0.135177368,0,0,1.3239935636520386,0,0,0.8408399820327759
0.135347459,0,0,1.3239935636520386,0,0,0.4586400091648102
0.135516308,0,0,1.3239935636520386,0,0,0.4586400091648102
0.135692195,0,0,1.3934253454208374,0,0,0.611519992351532
0.135851842,0,0,1.3934253454208374,0,0,0.611519992351532
0.136020081,0,0,1.3934253454208374,0,0,0.6879600286483765
0.136182653,0,0,1.3934253454208374,0,0,0.6879600286483765
0.136357484,0,0,1.3934253454208374,0,0,0.611519992351532
0.136519816,0,0,1.3934253454208374,0,0,0.611519992351532
0.136691388,0,0,1.522712230682373,0,0,1.5288000106811523
0.136859331,0,0,1.522712230682373,0,0,1.5288000106811523
0.137031847,0,0,1.522712230682373,0,0,0.3822000026702881
0.137197419,0,0,1.522712230682373,0,0,0.3822000026702881
0.137371677,0,0,1.522712230682373,0,0,0
0.137547341,0,0,1.522712230682373,0,0,0
0.137716951,0,0,1.580173134803772,0,0,1.452359914779663
0.137893745,0,0,1.580173134803772,0,0,1.452359914779663
0.138144372,0,0,1.580173134803772,0,0,1.223039984703064
0.138309759,0,0,1.580173134803772,0,0,0.5350799560546875
0.138482331,0,0,1.580173134803772,0,0,0.5350799560546875
0.13864794,0,0,1.5969325304031372,0,0,0.9172800183296204
0.138813624,0,0,1.5969325304031372,0,0,0.9172800183296204
0.139009492,0,0,1.5969325304031372,0,0,0.9172800183296204
0.139175138,0,0,1.5969325304031372,0,0,0.9172800183296204
0.139353766,0,0,1.5969325304031372,0,0,0.3822000026702881
0.139537838,0,0,1.5969325304031372,0,0,0
0.139703947,0,0,1.601720929145813,0,0,0
0.139877593,0,0,1.601720929145813,0,0,0.5350799560546875
0.14015535,0,0,1.601720929145813,0,0,0.5350799560546875
0.140316996,0,0,1.601720929145813,0,0,0.2293200045824051
0.140483476,0,0,1.601720929145813,0,0,0.2293200045824051
0.140655788,0,0,1.5825673341751099,0,0,2.06387996673584
0.140829805,0,0,1.5825673341751099,0,0,0.9937199950218201
0.140991414,0,0,1.5825673341751099,0,0,0.9937199950218201
0.141147542,0,0,1.5825673341751099,0,0,0.9937199950218201
0.141307522,0,0,1.5825673341751099,0,0,0.8408399820327759
0.14146939,0,0,1.5825673341751099,0,0,0.8408399820327759
0.141635555,0,0,1.5394717454910278,0,0,0
0.14182722,0,0,1.5394717454910278,0,0,0.9172800183296204
0.141970737,0,0,1.5394717454910278,0,0,0.9172800183296204
0.14214205,0,0,1.5394717454910278,0,0,0.305759996175766
0.142304289,0,0,1.5394717454910278,0,0,0.305759996175766
0.142473213,0,0,1.5394717454910278,0,0,1.1466000080108643
0.142646785,0,0,1.4053963422775269,0,0,1.1466000080108643
0.142803228,0,0,1.4053963422775269,0,0,0.9937199950218201
0.142959207,0,0,1.4053963422775269,0,0,0.9937199950218201
0.143131002,0,0,1.4053963422775269,0,0,1.070159912109375
0.143291852,0,0,1.4053963422775269,0,0,1.070159912109375
0.143455313,0,0,1.4053963422775269,0,0,0.7644000053405762
0.143621941,0,0,1.414973258972168,0,0,0.7644000053405762
0.143782735,0,0,1.414973258972168,0,0,1.223039984703064
0.143950141,0,0,1.414973258972168,0,0,1.223039984703064
0.14410488,0,0,1.414973258972168,0,0,0.7644000053405762
0.144271674,0,0,1.414973258972168,0,0,0.7644000053405762
0.144444839,0,0,1.414973258972168,0,0,0.9937199950218201
0.144613596,0,0,1.4053963422775269,0,0,0.9937199950218201
0.144790965,0,0,1.4053963422775269,0,0,0.9937199950218201
0.14494787,0,0,1.4053963422775269,0,0,0.9937199950218201
0.145110331,0,0,1.4053963422775269,0,0,0.2293200045824051
0.145278089,0,0,1.4053963422775269,0,0,0.2293200045824051
0.145440124,0,0,1.4053963422775269,0,0,0
0.14560477,0,0,1.3407529592514038,0,0,0
0.145766602,0,0,1.3407529592514038,0,0,0.0764399990439415
0.145925026,0,0,1.3407529592514038,0,0,0.0764399990439415
0.146092061,0,0,1.3407529592514038,0,0,1.070159912109375
0.146260448,0,0,1.3407529592514038,0,0,1.070159912109375
0.146426206,0,0,1.3407529592514038,0,0,0.4586400091648102
0.146594722,0,0,1.4508862495422363,0,0,0.4586400091648102
0.146767258,0,0,1.4508862495422363,0,0,1.375920057296753
0.14692883,0,0,1.4508862495422363,0,0,1.375920057296753
0.147093013,0,0,1.4508862495422363,0,0,0.305759996175766
0.14726403,0,0,1.4508862495422363,0,0,0.305759996175766
0.147429343,0,0,1.4508862495422363,0,0,0.3822000026702881
0.147586248,0,0,1.4508862495422363,0,0,0.3822000026702881
0.147746747,0,0,1.4437036514282227,0,0,-0.5350799560546875
0.147901097,0,0,1.4437036514282227,0,0,-0.5350799560546875
0.14806328,0,0,1.4437036514282227,0,0,-0.152879998087883
0.148226204,0,0,1.4437036514282227,0,0,-0.152879998087883
0.14838774,0,0,1.4437036514282227,0,0,1.605239987373352
0.148563756,0,0,1.4437036514282227,0,0,1.605239987373352
0.148731976,0,0,1.5442601442337036,0,0,-0.9172800183296204
0.14890866,0,0,1.5442601442337036,0,0,8.867039680480957
0.149074454,0,0,1.5442601442337036,0,0,0.4586400091648102
0.149232878,0,0,1.5442601442337036,0,0,0.4586400091648102
0.149397062,0,0,1.5442601442337036,0,0,0.4586400091648102
0.149562504,0,0,1.5442601442337036,0,0,0.4586400091648102
0.149734428,0,0,1.5729905366897583,0,0,1.223039984703064
0.149908074,0,0,1.5729905366897583,0,0,0.9937199950218201
0.150067165,0,0,1.5729905366897583,0,0,0.9937199950218201
0.15025296,0,0,1.5729905366897583,0,0,0.8408399820327759
0.150415402,0,0,1.5729905366897583,0,0,0.8408399820327759
0.150579863,0,0,1.5729905366897583,0,0,0.152879998087883
0.150743121,0,0,1.4676456451416016,0,0,0.152879998087883
0.150909063,0,0,1.4676456451416016,0,0,0.6879600286483765
0.151074895,0,0,1.4676456451416016,0,0,0.6879600286483765
0.151242245,0,0,1.4676456451416016,0,0,0.3822000026702881
0.151405058,0,0,1.4676456451416016,0,0,0.3822000026702881
0.151573334,0,0,1.4676456451416016,0,0,1.070159912109375
0.151730851,0,0,1.7357962131500244,0,0,1.070159912109375
0.151891756,0,0,1.7357962131500244,0,0,1.1466000080108643
0.15205468,0,0,1.7357962131500244,0,0,1.1466000080108643
0.152221882,0,0,1.7357962131500244,0,0,0.611519992351532
0.152400102,0,0,1.7357962131500244,0,0,0.611519992351532
0.152534064,0,0,1.7357962131500244,0,0,0.9937199950218201
0.15270458,0,0,1.455674648284912,0,0,0.9937199950218201
0.152871838,0,0,1.455674648284912,0,0,1.070159912109375
0.153047466,0,0,1.455674648284912,0,0,1.070159912109375
0.153215482,0,0,1.455674648284912,0,0,0.6879600286483765
0.153385165,0,0,1.455674648284912,0,0,0.6879600286483765
0.153547904,0,0,1.455674648284912,0,0,0.4586400091648102
0.153709995,0,0,1.357512354850769,0,0,0.4586400091648102
0.153870049,0,0,1.357512354850769,0,0,0
0.154038658,0,0,1.357512354850769,0,0,0
0.154236341,0,0,1.357512354850769,0,0,1.9109998941421509
0.154405599,0,0,1.357512354850769,0,0,1.9109998941421509
0.15457343,0,0,1.357512354850769,0,0,0.8408399820327759
0.154731669,0,0,1.381454348564148,0,0,0.8408399820327759
0.154899482,0,0,1.381454348564148,0,0,2.2167599201202393
0.155072036,0,0,1.381454348564148,0,0,0.9172800183296204
0.155230663,0,0,1.381454348564148,0,0,0.9172800183296204
0.155488235,0,0,1.381454348564148,0,0,0.6879600286483765
0.155553586,0,0,1.381454348564148,0,0,0.6879600286483765
0.155718214,0,0,1.381454348564148,0,0,0.611519992351532
0.155884767,0,0,1.381454348564148,0,0,0.611519992351532
0.156048488,0,0,1.381454348564148,0,0,0.7644000053405762
0.156203597,0,0,1.381454348564148,0,0,0.7644000053405762
0.156375429,0,0,1.381454348564148,0,0,0.6879600286483765
0.156538371,0,0,1.381454348564148,0,0,0.6879600286483765
0.156703462,0,0,1.2641384601593018,0,0,0.9937199950218201
0.156855664,0,0,1.2641384601593018,0,0,0.9937199950218201
0.157012459,0,0,1.2641384601593018,0,0,0.0764399990439415
0.157174234,0,0,1.2641384601593018,0,0,0.0764399990439415
0.15733851,0,0,1.2641384601593018,0,0,0.8408399820327759
0.157497527,0,0,1.2641384601593018,0,0,0.8408399820327759
0.157652044,0,0,1.403002142906189,0,0,0.8408399820327759
0.157813468,0,0,1.403002142906189,0,0,0.6879600286483765
0.158006836,0,0,1.403002142906189,0,0,0.8408399820327759
0.158172372,0,0,1.403002142906189,0,0,0.8408399820327759
0.158344684,0,0,1.403002142906189,0,0,0.2293200045824051
0.158507442,0,0,1.403002142906189,0,0,0.2293200045824051
0.158670903,0,0,1.4772224426269531,0,0,0.4586400091648102
0.158839827,0,0,1.4772224426269531,0,0,0.4586400091648102
0.158996881,0,0,1.4772224426269531,0,0,1.2994799613952637
0.159157212,0,0,1.4772224426269531,0,0,1.2994799613952637
0.159304526,0,0,1.4772224426269531,0,0,0.9937199950218201
0.159456228,0,0,1.4772224426269531,0,0,0.9937199950218201
0.159629929,0,0,1.5442601442337036,0,0,0
0.159795446,0,0,1.5442601442337036,0,0,0
0.159955574,0,0,1.5442601442337036,0,0,0.2293200045824051
0.160133572,0,0,1.5442601442337036,0,0,0.2293200045824051
0.160301033,0,0,1.5442601442337036,0,0,1.6816799640655518
0.160458142,0,0,1.5442601442337036,0,0,1.6816799640655518
0.160609585,0,0,1.5873557329177856,0,0,1.375920057296753
0.16076625,0,0,1.5873557329177856,0,0,1.375920057296753
0.160939841,0,0,1.5873557329177856,0,0,0.152879998087883
0.161117191,0,0,1.5873557329177856,0,0,0.152879998087883
0.161279318,0,0,1.5873557329177856,0,0,0.152879998087883
0.16144302,0,0,1.5873557329177856,0,0,0.152879998087883
0.161609019,0,0,1.4460978507995605,0,0,0.152879998087883
0.161780813,0,0,1.4460978507995605,0,0,0.152879998087883
0.161936978,0,0,1.4460978507995605,0,0,0.9172800183296204
0.162101828,0,0,1.4460978507995605,0,0,0.9172800183296204
0.162268474,0,0,1.4460978507995605,0,0,0.3822000026702881
0.162432546,0,0,1.4460978507995605,0,0,0.3822000026702881
0.162601841,0,0,1.4460978507995605,0,0,0.2293200045824051
0.162762617,0,0,1.5538369417190552,0,0,0.2293200045824051
0.162930541,0,0,1.5538369417190552,0,0,1.223039984703064
0.163101224,0,0,1.5538369417190552,0,0,1.223039984703064
0.163255222,0,0,1.5538369417190552,0,0,1.070159912109375
0.163422498,0,0,1.5538369417190552,0,0,1.070159912109375
0.1635787,0,0,1.5538369417190552,0,0,0
0.163747198,0,0,1.3742717504501343,0,0,0
0.163908419,0,0,1.3742717504501343,0,0,-0.4586400091648102
0.16406888,0,0,1.3742717504501343,0,0,-0.4586400091648102
0.164229804,0,0,1.3742717504501343,0,0,2.3696401119232178
0.164398191,0,0,1.3742717504501343,0,0,2.3696401119232178
0.164563949,0,0,1.3742717504501343,0,0,1.9109998941421509
0.164725428,0,0,1.3742717504501343,0,0,1.9109998941421509
0.164900519,0,0,1.3742717504501343,0,0,1.452359914779663
0.165066943,0,0,1.3742717504501343,0,0,1.452359914779663
0.165243719,0,0,1.3742717504501343,0,0,0.6879600286483765
0.16540831,0,0,1.3742717504501343,0,0,0.6879600286483765
0.165573437,0,0,1.3742717504501343,0,0,1.223039984703064
0.165743121,0,0,1.403002142906189,0,0,0.5350799560546875
0.165903286,0,0,1.403002142906189,0,0,0.5350799560546875
0.166067265,0,0,1.403002142906189,0,0,0.9172800183296204
0.166267633,0,0,1.403002142906189,0,0,0.9172800183296204
0.166433446,0,0,1.403002142906189,0,0,0.6879600286483765
0.166604,0,0,1.403002142906189,0,0,0.6879600286483765
0.166768961,0,0,1.3215993642807007,0,0,1.2994799613952637
0.166933015,0,0,1.3215993642807007,0,0,1.2994799613952637
0.167095754,0,0,1.3215993642807007,0,0,0.2293200045824051
0.167266196,0,0,1.3215993642807007,0,0,0.2293200045824051
0.167428417,0,0,1.3215993642807007,0,0,0.4586400091648102
0.167592693,0,0,1.3215993642807007,0,0,0.4586400091648102
0.16775445,0,0,1.316810965538025,0,0,0.152879998087883
0.167908004,0,0,1.316810965538025,0,0,0.152879998087883
0.168075039,0,0,1.316810965538025,0,0,0.305759996175766
0.168233093,0,0,1.316810965538025,0,0,0.305759996175766
0.168391628,0,0,1.316810965538025,0,0,1.223039984703064
0.168543256,0,0,1.316810965538025,0,0,1.223039984703064
0.16870344,0,0,1.4245500564575195,0,0,0
0.168860401,0,0,1.4245500564575195,0,0,0
0.169023269,0,0,1.4245500564575195,0,0,0.3822000026702881
0.169181805,0,0,1.4245500564575195,0,0,0.3822000026702881
0.169340599,0,0,1.4245500564575195,0,0,0.6879600286483765
0.169492283,0,0,1.4245500564575195,0,0,0.6879600286483765
0.1696518,0,0,1.522712230682373,0,0,0.2293200045824051
0.169806835,0,0,1.522712230682373,0,0,0.2293200045824051
0.169969777,0,0,1.522712230682373,0,0,0.305759996175766
0.170123146,0,0,1.522712230682373,0,0,0.305759996175766
0.170296589,0,0,1.522712230682373,0,0,0.6879600286483765
0.170450383,0,0,1.522712230682373,0,0,0.6879600286483765
0.170603048,0,0,1.522712230682373,0,0,0.8408399820327759
0.17076088,0,0,1.5514427423477173,0,0,0.8408399820327759
0.170916119,0,0,1.5514427423477173,0,0,1.6816799640655518
0.171063895,0,0,1.5514427423477173,0,0,1.6816799640655518
0.171227597,0,0,1.5514427423477173,0,0,1.6816799640655518
0.171375725,0,0,1.5514427423477173,0,0,2.2932000160217285
0.171539519,0,0,1.5514427423477173,0,0,2.2932000160217285
0.171712147,0,0,1.53707754611969,0,0,1.452359914779663
0.171867201,0,0,1.53707754611969,0,0,1.452359914779663
0.172032958,0,0,1.53707754611969,0,0,-0.9937199950218201
0.172199901,0,0,1.53707754611969,0,0,8.790599822998047
0.17236064,0,0,1.53707754611969,0,0,1.070159912109375
0.172527471,0,0,1.53707754611969,0,0,1.070159912109375
0.172693562,0,0,1.5083470344543457,0,0,0.5350799560546875
0.172863782,0,0,1.5083470344543457,0,0,0.8408399820327759
0.17303354,0,0,1.5083470344543457,0,0,0.8408399820327759
0.173202371,0,0,1.5083470344543457,0,0,0.7644000053405762
0.173362443,0,0,1.5083470344543457,0,0,0.7644000053405762
0.173530793,0,0,1.5083470344543457,0,0,0.611519992351532
0.173722606,0,0,1.6950948238372803,0,0,0.611519992351532
0.173899456,0,0,1.6950948238372803,0,0,0.9937199950218201
0.174079843,0,0,1.6950948238372803,0,0,0.9937199950218201
0.174295915,0,0,1.6950948238372803,0,0,1.070159912109375
0.17447232,0,0,1.6950948238372803,0,0,0.4586400091648102
0.174640707,0,0,1.3670891523361206,0,0,0.4586400091648102
0.174808057,0,0,1.3670891523361206,0,0,0.611519992351532
0.17499424,0,0,1.3670891523361206,0,0,0.611519992351532
0.175162701,0,0,1.3670891523361206,0,0,0.9937199950218201
0.175321366,0,0,1.3670891523361206,0,0,0.9937199950218201
0.175520549,0,0,1.3670891523361206,0,0,0.9172800183296204
0.175663918,0,0,1.2856862545013428,0,0,0.9172800183296204
0.175826749,0,0,1.2856862545013428,0,0,1.070159912109375
0.175993877,0,0,1.2856862545013428,0,0,1.070159912109375
0.176166264,0,0,1.2856862545013428,0,0,0.9172800183296204
0.176334077,0,0,1.2856862545013428,0,0,0.9172800183296204
0.176509094,0,0,1.2856862545013428,0,0,0.9172800183296204
0.17668637,0,0,1.3215993642807007,0,0,0.9172800183296204
0.176855479,0,0,1.3215993642807007,0,0,1.9109998941421509
0.177020588,0,0,1.3215993642807007,0,0,1.9109998941421509
0.177194234,0,0,1.3215993642807007,0,0,0.4586400091648102
0.177351307,0,0,1.3215993642807007,0,0,0.4586400091648102
0.177525842,0,0,1.3215993642807007,0,0,2.2932000160217285
0.17769384,0,0,1.3192051649093628,0,0,2.2932000160217285
0.177860338,0,0,1.3192051649093628,0,0,1.223039984703064
0.178016466,0,0,1.3192051649093628,0,0,1.223039984703064
0.178187019,0,0,1.3192051649093628,0,0,0
0.178354721,0,0,1.3192051649093628,0,0,0.5350799560546875
0.178534349,0,0,1.3192051649093628,0,0,0.5350799560546875
0.17869594,0,0,1.4221558570861816,0,0,0.611519992351532
0.178872049,0,0,1.4221558570861816,0,0,0.611519992351532
0.179035825,0,0,1.4221558570861816,0,0,0.9172800183296204
0.179203027,0,0,1.4221558570861816,0,0,0.9172800183296204
0.179370358,0,0,1.4221558570861816,0,0,0.611519992351532
0.17953206,0,0,1.4221558570861816,0,0,0.611519992351532
0.179693577,0,0,1.4460978507995605,0,0,0.611519992351532
0.179860631,0,0,1.4460978507995605,0,0,0.611519992351532
0.180030573,0,0,1.4460978507995605,0,0,0.305759996175766
0.180187571,0,0,1.4460978507995605,0,0,0.305759996175766
0.180354051,0,0,1.4460978507995605,0,0,0.3822000026702881
0.18051779,0,0,1.4460978507995605,0,0,0.3822000026702881
0.180704362,0,0,1.5418659448623657,0,0,0.8408399820327759
0.180855305,0,0,1.5418659448623657,0,0,0.8408399820327759
0.181020655,0,0,1.5418659448623657,0,0,0.5350799560546875
0.181185708,0,0,1.5418659448623657,0,0,0.5350799560546875
0.181342484,0,0,1.5418659448623657,0,0,0.4586400091648102
0.181505538,0,0,1.5418659448623657,0,0,0.4586400091648102
0.181673907,0,0,1.5753847360610962,0,0,1.2994799613952637
0.181849868,0,0,1.5753847360610962,0,0,1.2994799613952637
0.182014199,0,0,1.5753847360610962,0,0,1.9109998941421509
0.182174753,0,0,1.5753847360610962,0,0,1.9109998941421509
0.18236164,0,0,1.5753847360610962,0,0,0.2293200045824051
0.182532008,0,0,1.5753847360610962,0,0,0.2293200045824051
0.182695581,0,0,1.4915876388549805,0,0,0.152879998087883
0.182857245,0,0,1.4915876388549805,0,0,0.152879998087883
0.183027132,0,0,1.4915876388549805,0,0,1.6816799640655518
0.183187168,0,0,1.4915876388549805,0,0,1.6816799640655518
0.183357295,0,0,1.4915876388549805,0,0,-0.4586400091648102
0.183523164,0,0,1.4915876388549805,0,0,9.325679779052734
0.183674977,0,0,1.5897499322891235,0,0,0.6879600286483765
0.18384266,0,0,1.5897499322891235,0,0,0.6879600286483765
0.184004122,0,0,1.5897499322891235,0,0,1.9109998941421509
0.184173953,0,0,1.5897499322891235,0,0,1.9109998941421509
0.184338081,0,0,1.5897499322891235,0,0,0.8408399820327759
0.18450432,0,0,1.5897499322891235,0,0,0.8408399820327759
0.184677299,0,0,1.455674648284912,0,0,0.8408399820327759
0.184835927,0,0,1.455674648284912,0,0,0.9172800183296204
0.184996907,0,0,1.455674648284912,0,0,0.9172800183296204
0.185161553,0,0,1.455674648284912,0,0,0.5350799560546875
0.185324255,0,0,1.455674648284912,0,0,0.5350799560546875
0.185485105,0,0,1.455674648284912,0,0,1.070159912109375
0.185645788,0,0,1.2306196689605713,0,0,1.070159912109375
0.185835101,0,0,1.2306196689605713,0,0,0.611519992351532
0.185983859,0,0,1.2306196689605713,0,0,0.611519992351532
0.186154857,0,0,1.2306196689605713,0,0,1.1466000080108643
0.186315911,0,0,1.2306196689605713,0,0,1.1466000080108643
0.186485075,0,0,1.2306196689605713,0,0,1.070159912109375
0.18665674,0,0,1.314416766166687,0,0,1.070159912109375
0.186833053,0,0,1.314416766166687,0,0,1.2994799613952637
0.18700344,0,0,1.314416766166687,0,0,1.2994799613952637
0.187174401,0,0,1.314416766166687,0,0,1.223039984703064
0.187346399,0,0,1.314416766166687,0,0,1.223039984703064
0.187511379,0,0,1.314416766166687,0,0,0.8408399820327759
0.187665618,0,0,1.3024457693099976,0,0,0.8408399820327759
0.187835542,0,0,1.3024457693099976,0,0,0.2293200045824051
0.188002133,0,0,1.3024457693099976,0,0,0.2293200045824051
0.188172279,0,0,1.3024457693099976,0,0,0.2293200045824051
0.188348907,0,0,1.3024457693099976,0,0,0.2293200045824051
0.188505127,0,0,1.3024457693099976,0,0,0.4586400091648102
0.188665662,0,0,1.3407529592514038,0,0,0.4586400091648102
0.188822994,0,0,1.3407529592514038,0,0,0
0.188987511,0,0,1.3407529592514038,0,0,0
0.18914399,0,0,1.3407529592514038,0,0,0.9937199950218201
0.189304359,0,0,1.3407529592514038,0,0,0.9937199950218201
0.189465783,0,0,1.3407529592514038,0,0,0.152879998087883
0.189630615,0,0,1.3407529592514038,0,0,0.152879998087883
0.18978952,0,0,1.414973258972168,0,0,1.758120059967041
0.189942074,0,0,1.414973258972168,0,0,1.758120059967041
0.190097776,0,0,1.414973258972168,0,0,0.2293200045824051
0.190265348,0,0,1.414973258972168,0,0,0.2293200045824051
0.190420772,0,0,1.414973258972168,0,0,0.4586400091648102
0.190582734,0,0,1.414973258972168,0,0,0.4586400091648102
0.190737343,0,0,1.460463047027588,0,0,0.8408399820327759
0.1909041,0,0,1.460463047027588,0,0,0.8408399820327759
0.191066932,0,0,1.460463047027588,0,0,0
0.191228763,0,0,1.460463047027588,0,0,0
0.19139291,0,0,1.460463047027588,0,0,0.8408399820327759
0.191551519,0,0,1.460463047027588,0,0,0.8408399820327759
0.191723239,0,0,1.6065093278884888,0,0,1.223039984703064
0.191890312,0,0,1.6065093278884888,0,0,1.223039984703064
0.192048125,0,0,1.6065093278884888,0,0,0.305759996175766
0.192220475,0,0,1.6065093278884888,0,0,0.305759996175766
0.19239301,0,0,1.6065093278884888,0,0,0.611519992351532
0.192558026,0,0,1.6065093278884888,0,0,0.611519992351532
0.192723543,0,0,1.6424223184585571,0,0,0.4586400091648102
0.192898689,0,0,1.6424223184585571,0,0,0.4586400091648102
0.193060613,0,0,1.6424223184585571,0,0,0.611519992351532
0.193230556,0,0,1.6424223184585571,0,0,-9.172800064086914
0.193398573,0,0,1.6424223184585571,0,0,-0.0764399990439415
0.193575515,0,0,1.6424223184585571,0,0,0.8408399820327759
0.19374905,0,0,1.4269442558288574,0,0,0.8408399820327759
0.193918104,0,0,1.4269442558288574,0,0,0.7644000053405762
0.194085491,0,0,1.4269442558288574,0,0,0.7644000053405762
0.194262341,0,0,1.4269442558288574,0,0,0.6879600286483765
0.194430746,0,0,1.4269442558288574,0,0,0.6879600286483765
0.194596893,0,0,1.4269442558288574,0,0,0.6879600286483765
0.194765317,0,0,1.577778935432434,0,0,0.6879600286483765
0.19493437,0,0,1.577778935432434,0,0,1.223039984703064
0.195101906,0,0,1.577778935432434,0,0,1.223039984703064
0.195278959,0,0,1.577778935432434,0,0,0.8408399820327759
0.195447939,0,0,1.577778935432434,0,0,0.8408399820327759
0.19562427,0,0,1.577778935432434,0,0,0.4586400091648102
0.195797416,0,0,1.5107412338256836,0,0,0.4586400091648102
0.195950767,0,0,1.5107412338256836,0,0,0
0.196121746,0,0,1.5107412338256836,0,0,0
0.196281022,0,0,1.5107412338256836,0,0,2.06387996673584
0.196440854,0,0,1.5107412338256836,0,0,2.06387996673584
0.196608537,0,0,1.5107412338256836,0,0,-0.4586400091648102
0.196778794,0,0,1.381454348564148,0,0,9.325679779052734
0.196950015,0,0,1.381454348564148,0,0,0.4586400091648102
0.197112254,0,0,1.381454348564148,0,0,0.4586400091648102
0.197260882,0,0,1.381454348564148,0,0,1.375920057296753
0.197415232,0,0,1.381454348564148,0,0,1.375920057296753
0.197570063,0,0,1.381454348564148,0,0,0.611519992351532
0.197727765,0,0,1.3910311460494995,0,0,0.611519992351532
0.197871597,0,0,1.3910311460494995,0,0,0.5350799560546875
0.198017392,0,0,1.3910311460494995,0,0,0.5350799560546875
0.198165075,0,0,1.3910311460494995,0,0,1.5288000106811523
0.198312814,0,0,1.3910311460494995,0,0,1.5288000106811523
0.198457979,0,0,1.3910311460494995,0,0,0.5350799560546875
0.198603441,0,0,1.3910311460494995,0,0,0.5350799560546875
0.198749828,0,0,1.3120225667953491,0,0,1.070159912109375
0.198895752,0,0,1.3120225667953491,0,0,1.070159912109375
0.199042028,0,0,1.3120225667953491,0,0,1.070159912109375
0.199187897,0,0,1.3120225667953491,0,0,0
0.199334247,0,0,1.3120225667953491,0,0,0
0.199480598,0,0,1.3120225667953491,0,0,0.7644000053405762
0.1996268,0,0,1.3120225667953491,0,0,0.7644000053405762
0.199773335,0,0,1.3215993642807007,0,0,0.7644000053405762
0.199920037,0,0,1.3215993642807007,0,0,0.7644000053405762
0.200067684,0,0,1.3215993642807007,0,0,0.9937199950218201
0.200214886,0,0,1.3215993642807007,0,0,0.9937199950218201
0.200361421,0,0,1.3215993642807007,0,0,0.4586400091648102
0.20051216,0,0,1.3215993642807007,0,0,0.4586400091648102
0.200662696,0,0,1.482010841369629,0,0,0.4586400091648102
0.200834101,0,0,1.482010841369629,0,0,0.7644000053405762
0.20099134,0,0,1.482010841369629,0,0,0.7644000053405762
0.201153912,0,0,1.482010841369629,0,0,0.9172800183296204
0.201320059,0,0,1.482010841369629,0,0,0.9172800183296204
0.20147939,0,0,1.482010841369629,0,0,1.070159912109375
0.201644,0,0,1.482010841369629,0,0,0.9172800183296204
0.201807572,0,0,1.5275006294250488,0,0,0.9172800183296204
0.201970496,0,0,1.5275006294250488,0,0,0.3822000026702881
0.202134605,0,0,1.5275006294250488,0,0,0.3822000026702881
0.202305548,0,0,1.5275006294250488,0,0,1.375920057296753
0.202470527,0,0,1.5275006294250488,0,0,1.375920057296753
0.202642877,0,0,1.5275006294250488,0,0,0.6879600286483765
0.202824653,0,0,1.5298948287963867,0,0,0.6879600286483765
0.203012688,0,0,1.5298948287963867,0,0,1.375920057296753
0.203178797,0,0,1.5298948287963867,0,0,1.375920057296753
0.203358129,0,0,1.5298948287963867,0,0,1.452359914779663
0.203494312,0,0,1.5298948287963867,0,0,1.452359914779663
0.203647811,0,0,1.5298948287963867,0,0,0.152879998087883
0.203798309,0,0,1.5729905366897583,0,0,0.152879998087883
0.203947141,0,0,1.5729905366897583,0,0,1.070159912109375
0.204101843,0,0,1.5729905366897583,0,0,1.070159912109375
0.204257082,0,0,1.5729905366897583,0,0,0.0764399990439415
0.204405876,0,0,1.5729905366897583,0,0,0.0764399990439415
0.204556041,0,0,1.5729905366897583,0,0,0.0764399990439415
0.204707873,0,0,1.525106430053711,0,0,0.9937199950218201
0.204871834,0,0,1.525106430053711,0,0,0.9937199950218201
0.205075221,0,0,1.525106430053711,0,0,1.223039984703064
0.205229404,0,0,1.525106430053711,0,0,0.305759996175766
0.205405847,0,0,1.525106430053711,0,0,0.305759996175766
0.205594641,0,0,1.525106430053711,0,0,0.9172800183296204
0.205757121,0,0,1.625662922859192,0,0,0.9172800183296204
0.20594323,0,0,1.625662922859192,0,0,0.611519992351532
0.206115783,0,0,1.625662922859192,0,0,0.611519992351532
0.206276856,0,0,1.625662922859192,0,0,1.1466000080108643
0.206448742,0,0,1.625662922859192,0,0,1.1466000080108643
0.206614685,0,0,1.625662922859192,0,0,1.758120059967041
0.206774776,0,0,1.3718775510787964,0,0,1.758120059967041
0.20694033,0,0,1.3718775510787964,0,0,1.2994799613952637
0.207108383,0,0,1.3718775510787964,0,0,1.2994799613952637
0.207295733,0,0,1.3718775510787964,0,0,-0.2293200045824051
0.207480435,0,0,1.3718775510787964,0,0,0.7644000053405762
0.207652322,0,0,1.3718775510787964,0,0,0.7644000053405762
0.207814227,0,0,1.3311761617660522,0,0,0.7644000053405762
0.207975429,0,0,1.3311761617660522,0,0,0.7644000053405762
0.208139446,0,0,1.3311761617660522,0,0,0.8408399820327759
0.208318944,0,0,1.3311761617660522,0,0,0.8408399820327759
0.208485516,0,0,1.3311761617660522,0,0,0.8408399820327759
0.20864257,0,0,1.3311761617660522,0,0,0.8408399820327759
0.208825809,0,0,1.3527239561080933,0,0,0.3822000026702881
0.208977474,0,0,1.3527239561080933,0,0,0.3822000026702881
0.20913849,0,0,1.3527239561080933,0,0,0.9937199950218201
0.209315044,0,0,1.3527239561080933,0,0,0.9937199950218201
0.209494449,0,0,1.3527239561080933,0,0,0
0.209661133,0,0,1.3527239561080933,0,0,0
0.209845297,0,0,1.2258312702178955,0,0,0.7644000053405762
0.210020981,0,0,1.2258312702178955,0,0,0.7644000053405762
0.210244423,0,0,1.2258312702178955,0,0,-0.6879600286483765
0.210434865,0,0,1.2258312702178955,0,0,1.1466000080108643
0.210605048,0,0,1.2258312702178955,0,0,1.1466000080108643
0.21076438,0,0,1.357512354850769,0,0,0.8408399820327759
0.210932007,0,0,1.357512354850769,0,0,0.8408399820327759
0.211099783,0,0,1.357512354850769,0,0,0.0764399990439415
0.211275078,0,0,1.357512354850769,0,0,0.0764399990439415
0.211424298,0,0,1.357512354850769,0,0,0.3822000026702881
0.211592278,0,0,1.357512354850769,0,0,0.3822000026702881
0.21174885,0,0,1.4077905416488647,0,0,0.2293200045824051
0.211900793,0,0,1.4077905416488647,0,0,0.2293200045824051
0.212052828,0,0,1.4077905416488647,0,0,0.2293200045824051
0.212216512,0,0,1.4077905416488647,0,0,0.2293200045824051
0.212377788,0,0,1.4077905416488647,0,0,0.6879600286483765
0.212546545,0,0,1.4077905416488647,0,0,0.6879600286483765
0.212718284,0,0,1.5442601442337036,0,0,0.2293200045824051
0.212895412,0,0,1.5442601442337036,0,0,0.2293200045824051
0.213068243,0,0,1.5442601442337036,0,0,1.070159912109375
0.213250648,0,0,1.5442601442337036,0,0,1.070159912109375
0.213436183,0,0,1.5442601442337036,0,0,0.8408399820327759
0.213648811,0,0,1.5442601442337036,0,0,1.070159912109375
0.213800476,0,0,1.625662922859192,0,0,1.070159912109375
0.213952418,0,0,1.625662922859192,0,0,1.070159912109375
0.214109065,0,0,1.625662922859192,0,0,1.070159912109375
0.214267989,0,0,1.625662922859192,0,0,0.152879998087883
0.214440024,0,0,1.625662922859192,0,0,0.152879998087883
0.214608411,0,0,1.625662922859192,0,0,-0.305759996175766
0.214783039,0,0,1.4652514457702637,0,0,-0.305759996175766
0.214956685,0,0,1.4652514457702637,0,0,0
0.215124924,0,0,1.4652514457702637,0,0,0
0.215313014,0,0,1.4652514457702637,0,0,1.070159912109375
0.215497475,0,0,1.4652514457702637,0,0,1.070159912109375
0.215667844,0,0,1.4652514457702637,0,0,0.611519992351532
0.21584162,0,0,1.5203180313110352,0,0,0.611519992351532
0.21604284,0,0,1.5203180313110352,0,0,0
0.216198245,0,0,1.5203180313110352,0,0,0.9937199950218201
0.216365503,0,0,1.5203180313110352,0,0,0.9937199950218201
0.216539834,0,0,1.5203180313110352,0,0,1.070159912109375
0.216700499,0,0,1.4508862495422363,0,0,1.070159912109375
0.216858664,0,0,1.4508862495422363,0,0,0.6879600286483765
0.217013107,0,0,1.4508862495422363,0,0,0.6879600286483765
0.217177549,0,0,1.4508862495422363,0,0,0.7644000053405762
0.217345344,0,0,1.4508862495422363,0,0,0.7644000053405762
0.217511916,0,0,1.4508862495422363,0,0,1.452359914779663
0.217701562,0,0,1.2761094570159912,0,0,1.452359914779663
0.217864153,0,0,1.2761094570159912,0,0,0.8408399820327759
0.218026651,0,0,1.2761094570159912,0,0,0.8408399820327759
0.218188482,0,0,1.2761094570159912,0,0,0
0.218345647,0,0,1.2761094570159912,0,0,0
0.21850996,0,0,1.2761094570159912,0,0,0.305759996175766
0.218667681,0,0,1.2761094570159912,0,0,0.305759996175766
0.218821716,0,0,1.3838485479354858,0,0,0.8408399820327759
0.218978363,0,0,1.3838485479354858,0,0,0.8408399820327759
0.219139879,0,0,1.3838485479354858,0,0,1.070159912109375
0.219315785,0,0,1.3838485479354858,0,0,1.070159912109375
0.219471079,0,0,1.3838485479354858,0,0,0.3822000026702881
0.219631485,0,0,1.3838485479354858,0,0,0.3822000026702881
0.219796965,0,0,1.3718775510787964,0,0,1.223039984703064
0.219987574,0,0,1.3718775510787964,0,0,1.223039984703064
0.220167534,0,0,1.3718775510787964,0,0,0.8408399820327759
0.220340847,0,0,1.3718775510787964,0,0,0.8408399820327759
0.220513753,0,0,1.3718775510787964,0,0,1.2994799613952637
0.220688344,0,0,1.280897855758667,0,0,1.2994799613952637
0.220875212,0,0,1.280897855758667,0,0,0.9937199950218201
0.221067895,0,0,1.280897855758667,0,0,0.7644000053405762
0.22126643,0,0,1.280897855758667,0,0,0.7644000053405762
0.221439428,0,0,1.280897855758667,0,0,0.305759996175766
0.221616648,0,0,1.280897855758667,0,0,0.305759996175766
0.221810683,0,0,1.4389152526855469,0,0,0
0.22198494,0,0,1.4389152526855469,0,0,0
0.222162957,0,0,1.4389152526855469,0,0,0.5350799560546875
0.222340566,0,0,1.4389152526855469,0,0,0.5350799560546875
0.222515249,0,0,1.4389152526855469,0,0,0.6879600286483765
0.222682803,0,0,1.4460978507995605,0,0,1.1466000080108643
0.222876875,0,0,1.4460978507995605,0,0,1.1466000080108643
0.223053576,0,0,1.4460978507995605,0,0,0
0.223240463,0,0,1.4460978507995605,0,0,0
0.22341198,0,0,1.4460978507995605,0,0,0.7644000053405762
0.223621959,0,0,1.4460978507995605,0,0,0.7644000053405762
0.223787605,0,0,1.5849615335464478,0,0,1.758120059967041
0.223945659,0,0,1.5849615335464478,0,0,1.758120059967041
0.224108231,0,0,1.5849615335464478,0,0,-0.9172800183296204
0.22429684,0,0,1.5849615335464478,0,0,0.9172800183296204
0.224457116,0,0,1.5849615335464478,0,0,0.9172800183296204
0.224619411,0,0,1.5849615335464478,0,0,0.9937199950218201
0.224811761,0,0,1.6424223184585571,0,0,0.9937199950218201
0.224932537,0,0,1.6424223184585571,0,0,0.9937199950218201
0.225082221,0,0,1.6424223184585571,0,0,0.305759996175766
0.22523296,0,0,1.6424223184585571,0,0,0.305759996175766
0.225387939,0,0,1.6424223184585571,0,0,0.2293200045824051
0.225571771,0,0,1.6424223184585571,0,0,0.2293200045824051
0.225752287,0,0,1.5322890281677246,0,0,0.3822000026702881
0.2259151,0,0,1.5322890281677246,0,0,1.070159912109375
0.226070358,0,0,1.5322890281677246,0,0,1.070159912109375
0.226257245,0,0,1.5322890281677246,0,0,0.9172800183296204
0.226383354,0,0,1.5322890281677246,0,0,0.9172800183296204
0.226530742,0,0,1.5322890281677246,0,0,0.9172800183296204
0.226695221,0,0,1.5322890281677246,0,0,1.070159912109375
0.226834775,0,0,1.6352397203445435,0,0,1.070159912109375
0.226998959,0,0,1.6352397203445435,0,0,0.5350799560546875
0.227144253,0,0,1.6352397203445435,0,0,0.5350799560546875
0.227292381,0,0,1.6352397203445435,0,0,0.5350799560546875
0.227454602,0,0,1.6352397203445435,0,0,0.5350799560546875
0.227605322,0,0,1.6352397203445435,0,0,0.5350799560546875
0.227759172,0,0,1.4939818382263184,0,0,0.5350799560546875
0.227914171,0,0,1.4939818382263184,0,0,1.1466000080108643
0.228080206,0,0,1.4939818382263184,0,0,1.1466000080108643
0.228229926,0,0,1.4939818382263184,0,0,0.7644000053405762
0.22837711,0,0,1.4939818382263184,0,0,0.7644000053405762
0.228527627,0,0,1.4939818382263184,0,0,0.9172800183296204
0.228674977,0,0,1.4939818382263184,0,0,0.9172800183296204
0.228824901,0,0,1.3646949529647827,0,0,1.070159912109375
0.22897314,0,0,1.3646949529647827,0,0,1.070159912109375
0.229121398,0,0,1.3646949529647827,0,0,1.070159912109375
0.229271581,0,0,1.3646949529647827,0,0,-0.2293200045824051
0.229423691,0,0,1.3646949529647827,0,0,-0.2293200045824051
0.22957293,0,0,1.3646949529647827,0,0,0.611519992351532
0.229722651,0,0,1.357512354850769,0,0,0.611519992351532
0.229872982,0,0,1.357512354850769,0,0,1.8345600366592407
0.230022481,0,0,1.357512354850769,0,0,1.8345600366592407
0.230172683,0,0,1.357512354850769,0,0,0.8408399820327759
0.230322236,0,0,1.357512354850769,0,0,0.8408399820327759
0.230470327,0,0,1.357512354850769,0,0,1.223039984703064
0.230620789,0,0,1.357512354850769,0,0,1.223039984703064
0.230768898,0,0,1.2737152576446533,0,0,0.611519992351532
0.230917434,0,0,1.2737152576446533,0,0,0.611519992351532
0.231065487,0,0,1.2737152576446533,0,0,0.611519992351532
0.23121606,0,0,1.2737152576446533,0,0,0.3822000026702881
0.231366021,0,0,1.2737152576446533,0,0,0.3822000026702881
0.231515427,0,0,1.2737152576446533,0,0,-0.611519992351532
0.231697129,0,0,1.2737152576446533,0,0,-0.611519992351532
0.231825868,0,0,1.3455413579940796,0,0,0.152879998087883
0.232010366,0,0,1.3455413579940796,0,0,0.152879998087883
0.232230623,0,0,1.3455413579940796,0,0,0.4586400091648102
0.232409121,0,0,1.3455413579940796,0,0,1.375920057296753
0.232612804,0,0,1.3455413579940796,0,0,1.375920057296753
0.232814912,0,0,1.4963760375976563,0,0,0.5350799560546875
0.233022762,0,0,1.4963760375976563,0,0,0.9172800183296204
0.233251093,0,0,1.4963760375976563,0,0,0.9172800183296204
0.23344635,0,0,1.4963760375976563,0,0,0.8408399820327759
0.233640922,0,0,1.4963760375976563,0,0,0.8408399820327759
0.23383242,0,0,1.5083470344543457,0,0,0.305759996175766
0.234050602,0,0,1.5083470344543457,0,0,1.1466000080108643
0.234290989,0,0,1.5083470344543457,0,0,0.611519992351532
0.234500042,0,0,1.5083470344543457,0,0,0.611519992351532
0.234702632,0,0,1.5083470344543457,0,0,0.6879600286483765
0.234903445,0,0,1.5394717454910278,0,0,0.6879600286483765
0.235092276,0,0,1.5394717454910278,0,0,1.223039984703064
0.235272626,0,0,1.5394717454910278,0,0,1.070159912109375
0.235471383,0,0,1.5394717454910278,0,0,1.070159912109375
0.235665659,0,0,1.5394717454910278,0,0,0.9172800183296204
0.235876082,0,0,1.53707754611969,0,0,0.9172800183296204
0.236094228,0,0,1.53707754611969,0,0,0.2293200045824051
0.236290429,0,0,1.53707754611969,0,0,0.305759996175766
0.236501964,0,0,1.53707754611969,0,0,0.305759996175766
0.236697277,0,0,1.53707754611969,0,0,-0.305759996175766
0.236907737,0,0,1.534683346748352,0,0,0.9937199950218201
0.237117735,0,0,1.534683346748352,0,0,0.9937199950218201
0.237309733,0,0,1.534683346748352,0,0,1.375920057296753
0.237500712,0,0,1.534683346748352,0,0,1.375920057296753
0.237699543,0,0,1.6136919260025024,0,0,0.9172800183296204
0.237999855,0,0,1.6136919260025024,0,0,1.070159912109375
0.238130057,0,0,1.6136919260025024,0,0,1.070159912109375
0.23831987,0,0,1.6136919260025024,0,0,1.2994799613952637
0.238525997,0,0,1.6136919260025024,0,0,0.611519992351532
0.238744495,0,0,1.3623007535934448,0,0,0.611519992351532
0.238939807,0,0,1.3623007535934448,0,0,0.0764399990439415
0.239136546,0,0,1.3623007535934448,0,0,0.0764399990439415
0.23937008,0,0,1.3623007535934448,0,0,0.6879600286483765
0.239533356,0,0,1.3623007535934448,0,0,0.611519992351532
0.239739206,0,0,1.3072341680526733,0,0,0.611519992351532
0.239934352,0,0,1.3072341680526733,0,0,0.152879998087883
0.240119831,0,0,1.3072341680526733,0,0,0.9172800183296204
0.240301329,0,0,1.3072341680526733,0,0,0.9172800183296204
0.240507216,0,0,1.3072341680526733,0,0,0.7644000053405762
0.240695917,0,0,1.3072341680526733,0,0,0.7644000053405762
0.240893897,0,0,1.3694833517074585,0,0,-0.305759996175766
0.241098598,0,0,1.3694833517074585,0,0,0.9937199950218201
0.241280911,0,0,1.3694833517074585,0,0,0.9937199950218201
0.241504779,0,0,1.3694833517074585,0,0,0.3822000026702881
0.241680795,0,0,1.3694833517074585,0,0,0.3822000026702881
0.241866775,0,0,1.2473790645599365,0,0,0.152879998087883
0.242118457,0,0,1.2473790645599365,0,0,0.7644000053405762
0.24233164,0,0,1.2473790645599365,0,0,0.7644000053405762
0.242552693,0,0,1.2473790645599365,0,0,0.611519992351532
0.242819116,0,0,1.3263877630233765,0,0,1.2994799613952637
0.24301741,0,0,1.3263877630233765,0,0,1.2994799613952637
0.243223908,0,0,1.3263877630233765,0,0,2.446079969406128
0.243435776,0,0,1.3263877630233765,0,0,0.5350799560546875
0.243653199,0,0,1.3263877630233765,0,0,0.5350799560546875
0.243863475,0,0,1.4844050407409668,0,0,1.070159912109375
0.244068232,0,0,1.4844050407409668,0,0,0.8408399820327759
0.244337766,0,0,1.4844050407409668,0,0,0.9937199950218201
0.244443172,0,0,1.4844050407409668,0,0,0.9937199950218201
0.244596337,0,0,1.4844050407409668,0,0,0.9937199950218201
0.244744521,0,0,1.525106430053711,0,0,9.631440162658691
0.244897223,0,0,1.525106430053711,0,0,-0.152879998087883
0.245079165,0,0,1.525106430053711,0,0,0.4586400091648102
0.245232256,0,0,1.525106430053711,0,0,0.4586400091648102
0.245391569,0,0,1.525106430053711,0,0,0.305759996175766
0.245554197,0,0,1.525106430053711,0,0,0.305759996175766
0.245719991,0,0,1.5466543436050415,0,0,0.4586400091648102
0.245888175,0,0,1.5466543436050415,0,0,0.4586400091648102
0.246053691,0,0,1.5466543436050415,0,0,1.9109998941421509
0.2462483,0,0,1.5466543436050415,0,0,1.9109998941421509
0.24641765,0,0,1.5466543436050415,0,0,0.305759996175766
0.246583241,0,0,1.5466543436050415,0,0,0.305759996175766
0.246743924,0,0,1.5849615335464478,0,0,-0.305759996175766
0.246908608,0,0,1.5849615335464478,0,0,-0.305759996175766
0.247080624,0,0,1.5849615335464478,0,0,-0.152879998087883
0.24724066,0,0,1.5849615335464478,0,0,9.631440162658691
0.247395362,0,0,1.5849615335464478,0,0,0.3822000026702881
0.247559489,0,0,1.5849615335464478,0,0,0.3822000026702881
0.247725525,0,0,1.580173134803772,0,0,1.9109998941421509
0.247891986,0,0,1.580173134803772,0,0,1.9109998941421509
0.248055595,0,0,1.580173134803772,0,0,1.223039984703064
0.248217501,0,0,1.580173134803772,0,0,0.8408399820327759
0.248388147,0,0,1.580173134803772,0,0,0.8408399820327759
0.248555849,0,0,1.580173134803772,0,0,1.1466000080108643
0.248729199,0,0,1.5897499322891235,0,0,1.1466000080108643
0.248895345,0,0,1.5897499322891235,0,0,1.223039984703064
0.24905488,0,0,1.5897499322891235,0,0,1.223039984703064
0.24922423,0,0,1.5897499322891235,0,0,0.9172800183296204
0.249403413,0,0,1.5897499322891235,0,0,0.9172800183296204
0.249563208,0,0,1.5897499322891235,0,0,1.223039984703064
0.249749706,0,0,1.3335703611373901,0,0,1.223039984703064
0.249896056,0,0,1.3335703611373901,0,0,1.070159912109375
0.250057943,0,0,1.3335703611373901,0,0,1.070159912109375
0.250248015,0,0,1.3335703611373901,0,0,0.9172800183296204
0.250408291,0,0,1.3335703611373901,0,0,0.9172800183296204
0.250571623,0,0,1.3335703611373901,0,0,0.611519992351532
0.250739232,0,0,1.3335703611373901,0,0,0.611519992351532
0.250902767,0,0,1.3335703611373901,0,0,0.305759996175766
0.251067136,0,0,1.3335703611373901,0,0,0.305759996175766
0.251229023,0,0,1.3335703611373901,0,0,1.223039984703064
0.25139641,0,0,1.3335703611373901,0,0,1.223039984703064
0.251557852,0,0,1.3335703611373901,0,0,0.9172800183296204
0.25172298,0,0,1.381454348564148,0,0,0.9172800183296204
0.251887349,0,0,1.381454348564148,0,0,0.6879600286483765
0.252045921,0,0,1.381454348564148,0,0,0.6879600286483765
0.25220666,0,0,1.381454348564148,0,0,0.8408399820327759
0.252376658,0,0,1.381454348564148,0,0,0.8408399820327759
0.252546471,0,0,1.381454348564148,0,0,0.2293200045824051
0.252707803,0,0,1.381454348564148,0,0,0.2293200045824051
0.25287319,0,0,1.357512354850769,0,0,0
0.253033503,0,0,1.357512354850769,0,0,0
0.25320063,0,0,1.357512354850769,0,0,0.4586400091648102
0.253363517,0,0,1.357512354850769,0,0,0.4586400091648102
0.253515608,0,0,1.357512354850769,0,0,2.828279972076416
0.253680421,0,0,1.357512354850769,0,0,2.828279972076416
0.253845271,0,0,1.4245500564575195,0,0,0.7644000053405762
0.254009232,0,0,1.4245500564575195,0,0,0.7644000053405762
0.254173916,0,0,1.4245500564575195,0,0,2.828279972076416
0.254337229,0,0,1.4245500564575195,0,0,2.828279972076416
0.254515412,0,0,1.4245500564575195,0,0,0.4586400091648102
0.25467541,0,0,1.4245500564575195,0,0,0.4586400091648102
0.254860056,0,0,1.4484920501708984,0,0,1.6816799640655518
0.255038388,0,0,1.4484920501708984,0,0,1.070159912109375
0.2552367,0,0,1.4484920501708984,0,0,1.070159912109375
0.255390236,0,0,1.4484920501708984,0,0,0.4586400091648102
0.25555016,0,0,1.4484920501708984,0,0,0.4586400091648102
0.255714065,0,0,1.4484920501708984,0,0,0.152879998087883
0.255854508,0,0,1.5897499322891235,0,0,0.152879998087883
0.256002525,0,0,1.5897499322891235,0,0,0.9172800183296204
0.256150227,0,0,1.5897499322891235,0,0,0.9172800183296204
0.256297503,0,0,1.5897499322891235,0,0,0.9172800183296204
0.256445594,0,0,1.5897499322891235,0,0,1.9109998941421509
0.256597315,0,0,1.5897499322891235,0,0,1.9109998941421509
0.256747221,0,0,1.6328455209732056,0,0,0.7644000053405762
0.2568947,0,0,1.6328455209732056,0,0,0.7644000053405762
0.257044995,0,0,1.6328455209732056,0,0,0.8408399820327759
0.257193179,0,0,1.6328455209732056,0,0,0.8408399820327759
0.257346751,0,0,1.6328455209732056,0,0,0.3822000026702881
0.257497694,0,0,1.6328455209732056,0,0,0.3822000026702881
0.257659451,0,0,1.6328455209732056,0,0,0.305759996175766
0.257808227,0,0,1.4748282432556152,0,0,0.305759996175766
0.257959652,0,0,1.4748282432556152,0,0,0.5350799560546875
0.258116076,0,0,1.4748282432556152,0,0,0.5350799560546875
0.258278222,0,0,1.4748282432556152,0,0,1.452359914779663
0.258428387,0,0,1.4748282432556152,0,0,1.452359914779663
0.258581941,0,0,1.4748282432556152,0,0,1.2994799613952637
0.258729643,0,0,1.5418659448623657,0,0,1.2994799613952637
0.258876197,0,0,1.5418659448623657,0,0,1.2994799613952637
0.259022399,0,0,1.5418659448623657,0,0,2.2932000160217285
0.259168786,0,0,1.5418659448623657,0,0,2.2932000160217285
0.259325914,0,0,1.5418659448623657,0,0,1.6816799640655518
0.259468727,0,0,1.5418659448623657,0,0,1.6816799640655518
0.259614966,0,0,1.5418659448623657,0,0,0.152879998087883
0.259761261,0,0,1.4460978507995605,0,0,0.152879998087883
0.259920222,0,0,1.4460978507995605,0,0,0.9937199950218201
0.260053739,0,0,1.4460978507995605,0,0,0.9937199950218201
0.260199441,0,0,1.4460978507995605,0,0,0.4586400091648102
0.260345403,0,0,1.4460978507995605,0,0,0.4586400091648102
0.26049142,0,0,1.4460978507995605,0,0,0.4586400091648102
0.260637437,0,0,1.4460978507995605,0,0,1.6816799640655518
0.26078375,0,0,1.4317326545715332,0,0,1.6816799640655518
0.260929896,0,0,1.4317326545715332,0,0,0.4586400091648102
0.261075765,0,0,1.4317326545715332,0,0,0.4586400091648102
0.2612218,0,0,1.4317326545715332,0,0,0.5350799560546875
0.261367947,0,0,1.4317326545715332,0,0,0.5350799560546875
0.261514001,0,0,1.4317326545715332,0,0,0.5350799560546875
0.26166611,0,0,1.4317326545715332,0,0,0.5350799560546875
0.261806535,0,0,1.4197616577148438,0,0,0.5350799560546875
0.261952292,0,0,1.4197616577148438,0,0,1.2994799613952637
0.262098254,0,0,1.4197616577148438,0,0,1.2994799613952637
0.26224503,0,0,1.4197616577148438,0,0,0
0.262389454,0,0,1.4197616577148438,0,0,0
0.262533879,0,0,1.4197616577148438,0,0,0.5350799560546875
0.262678247,0,0,1.4197616577148438,0,0,0.5350799560546875
0.262822968,0,0,1.3527239561080933,0,0,0.9937199950218201
0.2629673,0,0,1.3527239561080933,0,0,0.9937199950218201
0.263111872,0,0,1.3527239561080933,0,0,0.3822000026702881
0.263256389,0,0,1.3527239561080933,0,0,0.3822000026702881
0.263400998,0,0,1.3527239561080933,0,0,0.3822000026702881
0.263545534,0,0,1.3527239561080933,0,0,0.152879998087883
0.263690069,0,0,1.3527239561080933,0,0,0.152879998087883
0.263838345,0,0,1.335964560508728,0,0,1.758120059967041
0.263981048,0,0,1.335964560508728,0,0,1.758120059967041
0.264125602,0,0,1.335964560508728,0,0,1.605239987373352
0.264270081,0,0,1.335964560508728,0,0,1.605239987373352
0.264414654,0,0,1.335964560508728,0,0,0.611519992351532
0.264559152,0,0,1.335964560508728,0,0,0.611519992351532
0.264703503,0,0,1.335964560508728,0,0,0.611519992351532
0.264848242,0,0,1.4221558570861816,0,0,-0.3822000026702881
0.264992629,0,0,1.4221558570861816,0,0,-0.3822000026702881
0.265137035,0,0,1.4221558570861816,0,0,0.9172800183296204
0.265281552,0,0,1.4221558570861816,0,0,0.9172800183296204
0.265426272,0,0,1.4221558570861816,0,0,0.2293200045824051
0.26557053,0,0,1.4221558570861816,0,0,0.2293200045824051
0.265714843,0,0,1.4221558570861816,0,0,1.070159912109375
0.265859693,0,0,1.4987702369689941,0,0,1.070159912109375
0.26600421,0,0,1.4987702369689941,0,0,1.070159912109375
0.266148746,0,0,1.4987702369689941,0,0,0.611519992351532
0.266299651,0,0,1.4987702369689941,0,0,0.611519992351532
0.266446298,0,0,1.4987702369689941,0,0,-0.305759996175766
0.266592111,0,0,1.4987702369689941,0,0,-0.305759996175766
0.266738332,0,0,1.5155296325683594,0,0,0
0.266884034,0,0,1.5155296325683594,0,0,0
0.267030254,0,0,1.5155296325683594,0,0,0.9172800183296204
0.267176105,0,0,1.5155296325683594,0,0,0.9172800183296204
0.26732214,0,0,1.5155296325683594,0,0,1.223039984703064
0.267468083,0,0,1.5155296325683594,0,0,1.223039984703064
0.267614026,0,0,1.5155296325683594,0,0,1.223039984703064
0.267759969,0,0,1.6184803247451782,0,0,0.3822000026702881
0.267906189,0,0,1.6184803247451782,0,0,0.3822000026702881
0.268052336,0,0,1.6184803247451782,0,0,0
0.268198371,0,0,1.6184803247451782,0,0,0
0.268348647,0,0,1.6184803247451782,0,0,0.611519992351532
0.268492664,0,0,1.6184803247451782,0,0,0.611519992351532
0.268638681,0,0,1.6184803247451782,0,0,0.152879998087883
0.268784957,0,0,1.53707754611969,0,0,0.152879998087883
0.268930956,0,0,1.53707754611969,0,0,1.1466000080108643
0.269077139,0,0,1.53707754611969,0,0,1.1466000080108643
0.26922936,0,0,1.53707754611969,0,0,1.1466000080108643
0.269369525,0,0,1.53707754611969,0,0,1.758120059967041
0.269515116,0,0,1.53707754611969,0,0,1.758120059967041
0.269660744,0,0,1.53707754611969,0,0,0.0764399990439415
0.269806816,0,0,1.702277421951294,0,0,0.0764399990439415
0.269952907,0,0,1.702277421951294,0,0,0.4586400091648102
0.27009898,0,0,1.702277421951294,0,0,0.4586400091648102
0.270245459,0,0,1.702277421951294,0,0,1.2994799613952637
0.270391162,0,0,1.702277421951294,0,0,1.2994799613952637
0.270536975,0,0,1.702277421951294,0,0,1.2994799613952637
0.270683084,0,0,1.702277421951294,0,0,1.2994799613952637
0.27082899,0,0,1.45806884765625,0,0,1.2994799613952637
0.27097497,0,0,1.45806884765625,0,0,0
0.271121116,0,0,1.45806884765625,0,0,0
0.2712673,0,0,1.45806884765625,0,0,0.152879998087883
0.271413243,0,0,1.45806884765625,0,0,0.152879998087883
0.271559241,0,0,1.45806884765625,0,0,1.070159912109375
0.271705258,0,0,1.45806884765625,0,0,1.070159912109375
0.271851127,0,0,1.381454348564148,0,0,1.070159912109375
0.271997014,0,0,1.381454348564148,0,0,1.070159912109375
0.272142846,0,0,1.381454348564148,0,0,1.070159912109375
0.272288807,0,0,1.381454348564148,0,0,-0.5350799560546875
0.272434583,0,0,1.381454348564148,0,0,-0.5350799560546875
0.272580508,0,0,1.381454348564148,0,0,0.2293200045824051
0.272726765,0,0,1.381454348564148,0,0,0.2293200045824051
0.272876208,0,0,1.4077905416488647,0,0,1.223039984703064
0.273020318,0,0,1.4077905416488647,0,0,1.223039984703064
0.273166409,0,0,1.4077905416488647,0,0,1.223039984703064
0.27331224,0,0,1.4077905416488647,0,0,1.223039984703064
0.273458127,0,0,1.4077905416488647,0,0,0.9937199950218201
0.273603867,0,0,1.4077905416488647,0,0,0.9937199950218201
0.273749939,0,0,1.3096283674240112,0,0,0.9937199950218201
0.273896049,0,0,1.3096283674240112,0,0,-0.305759996175766
0.274041917,0,0,1.3096283674240112,0,0,-0.305759996175766
0.274187879,0,0,1.3096283674240112,0,0,0.305759996175766
0.274335673,0,0,1.3096283674240112,0,0,0.305759996175766
0.274480968,0,0,1.3096283674240112,0,0,0
0.274626577,0,0,1.3096283674240112,0,0,0
0.274772465,0,0,1.3072341680526733,0,0,0.9172800183296204
0.274918556,0,0,1.3072341680526733,0,0,0.9172800183296204
0.275064517,0,0,1.3072341680526733,0,0,0.9172800183296204
0.275210164,0,0,1.3072341680526733,0,0,0.9937199950218201
0.275356292,0,0,1.3072341680526733,0,0,0.9937199950218201
0.275502123,0,0,1.3072341680526733,0,0,0.2293200045824051
0.275647992,0,0,1.3072341680526733,0,0,0.2293200045824051
0.275794009,0,0,1.4772224426269531,0,0,1.375920057296753
0.275940155,0,0,1.4772224426269531,0,0,1.375920057296753
0.276086043,0,0,1.4772224426269531,0,0,1.070159912109375
0.27623193,0,0,1.4772224426269531,0,0,1.070159912109375
0.276377965,0,0,1.4772224426269531,0,0,0.9937199950218201
0.276523834,0,0,1.4772224426269531,0,0,0.9937199950218201
0.276669666,0,0,1.4772224426269531,0,0,0.9937199950218201
0.27681559,0,0,1.5131354331970215,0,0,0.152879998087883
0.276961459,0,0,1.5131354331970215,0,0,0.152879998087883
0.277107476,0,0,1.5131354331970215,0,0,1.223039984703064
0.277253474,0,0,1.5131354331970215,0,0,1.223039984703064
0.27740351,0,0,1.5131354331970215,0,0,0.7644000053405762
0.277547341,0,0,1.5131354331970215,0,0,0.7644000053405762
0.277692858,0,0,1.5131354331970215,0,0,1.1466000080108643
0.277839134,0,0,1.5418659448623657,0,0,1.1466000080108643
0.27798504,0,0,1.5418659448623657,0,0,1.375920057296753
0.27813115,0,0,1.5418659448623657,0,0,1.375920057296753
0.278277444,0,0,1.5418659448623657,0,0,1.375920057296753
0.278423072,0,0,1.5418659448623657,0,0,0
0.27857546,0,0,1.5418659448623657,0,0,0
0.278715328,0,0,1.5418659448623657,0,0,1.452359914779663
0.278860975,0,0,1.5634137392044067,0,0,1.452359914779663
0.279006955,0,0,1.5634137392044067,0,0,0.611519992351532
0.279152916,0,0,1.5634137392044067,0,0,0.611519992351532
0.279298729,0,0,1.5634137392044067,0,0,0.9937199950218201
0.279444839,0,0,1.5634137392044067,0,0,0.9937199950218201
0.279590541,0,0,1.5634137392044067,0,0,0.9937199950218201
0.279736428,0,0,1.5634137392044067,0,0,1.070159912109375
0.279882278,0,0,1.580173134803772,0,0,1.070159912109375
0.280028092,0,0,1.580173134803772,0,0,1.375920057296753
0.280174238,0,0,1.580173134803772,0,0,1.375920057296753
0.280320107,0,0,1.580173134803772,0,0,1.6816799640655518
0.280466124,0,0,1.580173134803772,0,0,1.6816799640655518
0.280612029,0,0,1.580173134803772,0,0,1.1466000080108643
0.280757917,0,0,1.5945383310317993,0,0,1.1466000080108643
0.280903711,0,0,1.5945383310317993,0,0,0.5350799560546875
0.281049728,0,0,1.5945383310317993,0,0,0.5350799560546875
0.281196004,0,0,1.5945383310317993,0,0,0.5350799560546875
0.281352003,0,0,1.5945383310317993,0,0,0.5350799560546875
0.28150676,0,0,1.5945383310317993,0,0,0.5350799560546875
0.281660092,0,0,1.5945383310317993,0,0,1.758120059967041
0.281812294,0,0,1.3623007535934448,0,0,1.758120059967041
0.281972033,0,0,1.3623007535934448,0,0,1.758120059967041
0.282121013,0,0,1.3623007535934448,0,0,1.758120059967041
0.282280196,0,0,1.3623007535934448,0,0,0.8408399820327759
0.28242962,0,0,1.3623007535934448,0,0,0.8408399820327759
0.282582452,0,0,1.3623007535934448,0,0,1.1466000080108643
0.282743858,0,0,1.3623007535934448,0,0,1.1466000080108643
0.282900356,0,0,1.4077905416488647,0,0,0.305759996175766
0.283054576,0,0,1.4077905416488647,0,0,0.305759996175766
0.283209075,0,0,1.4077905416488647,0,0,1.1466000080108643
0.283363758,0,0,1.4077905416488647,0,0,1.1466000080108643
0.283517405,0,0,1.4077905416488647,0,0,0.9172800183296204
0.283670329,0,0,1.4077905416488647,0,0,0.9172800183296204
0.283827864,0,0,1.400607943534851,0,0,1.1466000080108643
0.283983103,0,0,1.400607943534851,0,0,1.1466000080108643
0.284149972,0,0,1.400607943534851,0,0,1.070159912109375
0.284306581,0,0,1.400607943534851,0,0,1.070159912109375
0.284460394,0,0,1.400607943534851,0,0,1.223039984703064
0.284611596,0,0,1.400607943534851,0,0,1.223039984703064
0.284760446,0,0,1.3000515699386597,0,0,1.223039984703064
0.284906871,0,0,1.3000515699386597,0,0,0.9172800183296204
0.285053573,0,0,1.3000515699386597,0,0,0.9172800183296204
0.285199886,0,0,1.3000515699386597,0,0,0.305759996175766
0.285346199,0,0,1.3000515699386597,0,0,0.305759996175766
0.285492309,0,0,1.3000515699386597,0,0,0.8408399820327759
0.285638363,0,0,1.3000515699386597,0,0,0.8408399820327759
0.285784453,0,0,1.359906554222107,0,0,0.9172800183296204
0.285930452,0,0,1.359906554222107,0,0,0.9172800183296204
0.28607645,0,0,1.359906554222107,0,0,0.5350799560546875
0.286232245,0,0,1.359906554222107,0,0,0.5350799560546875
0.286377632,0,0,1.359906554222107,0,0,0.5350799560546875
0.286523593,0,0,1.359906554222107,0,0,0.305759996175766
0.286695036,0,0,1.359906554222107,0,0,0.305759996175766
0.286823312,0,0,1.4939818382263184,0,0,1.8345600366592407
0.286968885,0,0,1.4939818382263184,0,0,1.8345600366592407
0.287114865,0,0,1.4939818382263184,0,0,1.223039984703064
0.28726103,0,0,1.4939818382263184,0,0,1.223039984703064
0.287407213,0,0,1.4939818382263184,0,0,0.5350799560546875
0.287553082,0,0,1.4939818382263184,0,0,0.5350799560546875
0.287699043,0,0,1.4939818382263184,0,0,1.070159912109375
0.287845042,0,0,1.6065093278884888,0,0,1.070159912109375
0.287991077,0,0,1.6065093278884888,0,0,1.070159912109375
0.288142446,0,0,1.6065093278884888,0,0,0
0.288283037,0,0,1.6065093278884888,0,0,0
0.288428887,0,0,1.6065093278884888,0,0,1.1466000080108643
0.288574756,0,0,1.6065093278884888,0,0,1.1466000080108643
0.288720662,0,0,1.6065093278884888,0,0,1.375920057296753
0.288866641,0,0,1.6663644313812256,0,0,1.375920057296753
0.289012658,0,0,1.6663644313812256,0,0,1.5288000106811523
0.28915886,0,0,1.6663644313812256,0,0,1.5288000106811523
0.289304766,0,0,1.6663644313812256,0,0,0.6879600286483765
0.289450783,0,0,1.6663644313812256,0,0,0.6879600286483765
0.289596985,0,0,1.6663644313812256,0,0,0.6879600286483765
0.289742928,0,0,1.6663644313812256,0,0,1.070159912109375
0.289888852,0,0,1.5466543436050415,0,0,1.070159912109375
0.290034925,0,0,1.5466543436050415,0,0,0.6879600286483765
0.290180794,0,0,1.5466543436050415,0,0,0.6879600286483765
0.290328125,0,0,1.5466543436050415,0,0,0.5350799560546875
0.290473383,0,0,1.5466543436050415,0,0,0.5350799560546875
0.290619363,0,0,1.5466543436050415,0,0,0.9937199950218201
0.290765657,0,0,1.5969325304031372,0,0,0.9937199950218201
0.290911619,0,0,1.5969325304031372,0,0,0.9937199950218201
0.291057784,0,0,1.5969325304031372,0,0,0.611519992351532
0.291207301,0,0,1.5969325304031372,0,0,0.611519992351532
0.291351484,0,0,1.5969325304031372,0,0,-0.4586400091648102
0.291497575,0,0,1.5969325304031372,0,0,-0.4586400091648102
0.291643796,0,0,1.5969325304031372,0,0,1.2994799613952637
0.29178972,0,0,1.6160861253738403,0,0,1.2994799613952637
0.291935626,0,0,1.6160861253738403,0,0,0.8408399820327759
0.292081772,0,0,1.6160861253738403,0,0,0.8408399820327759
0.292227808,0,0,1.6160861253738403,0,0,1.375920057296753
0.29237351,0,0,1.6160861253738403,0,0,1.375920057296753
0.292519601,0,0,1.6160861253738403,0,0,1.375920057296753
0.292665321,0,0,1.6160861253738403,0,0,0
0.292811375,0,0,1.3862427473068237,0,0,0
0.292957411,0,0,1.3862427473068237,0,0,1.223039984703064
0.293103317,0,0,1.3862427473068237,0,0,1.223039984703064
0.293249333,0,0,1.3862427473068237,0,0,0.8408399820327759
0.293395424,0,0,1.3862427473068237,0,0,0.8408399820327759
0.293541497,0,0,1.3862427473068237,0,0,1.223039984703064
0.293687588,0,0,1.3862427473068237,0,0,1.223039984703064
0.293833697,0,0,1.4101848602294922,0,0,1.1466000080108643
0.293979677,0,0,1.4101848602294922,0,0,1.1466000080108643
0.294125583,0,0,1.4101848602294922,0,0,1.1466000080108643
0.294272359,0,0,1.4101848602294922,0,0,1.6816799640655518
0.294417913,0,0,1.4101848602294922,0,0,1.6816799640655518
0.29456393,0,0,1.4101848602294922,0,0,1.223039984703064
0.294709762,0,0,1.4101848602294922,0,0,1.223039984703064
0.294855816,0,0,1.357512354850769,0,0,1.5288000106811523
0.295001981,0,0,1.357512354850769,0,0,1.5288000106811523
0.295147812,0,0,1.357512354850769,0,0,1.223039984703064
0.295294014,0,0,1.357512354850769,0,0,1.223039984703064
0.295439957,0,0,1.357512354850769,0,0,1.223039984703064
0.29558653,0,0,1.357512354850769,0,0,0.9937199950218201
0.295736176,0,0,1.357512354850769,0,0,0.9937199950218201
0.295879564,0,0,1.3215993642807007,0,0,0.5350799560546875
0.296025525,0,0,1.3215993642807007,0,0,0.5350799560546875
0.296171782,0,0,1.3215993642807007,0,0,0.9937199950218201
0.296317633,0,0,1.3215993642807007,0,0,0.9937199950218201
0.296463464,0,0,1.3215993642807007,0,0,0.8408399820327759
0.296609518,0,0,1.3215993642807007,0,0,0.8408399820327759
0.296755628,0,0,1.3215993642807007,0,0,1.1466000080108643
0.296901793,0,0,1.37906014919281,0,0,1.1466000080108643
0.297047495,0,0,1.37906014919281,0,0,1.1466000080108643
0.297193567,0,0,1.37906014919281,0,0,0.9937199950218201
0.297339547,0,0,1.37906014919281,0,0,0.9937199950218201
0.297492786,0,0,1.37906014919281,0,0,1.2994799613952637
0.297631766,0,0,1.37906014919281,0,0,1.2994799613952637
0.297777635,0,0,1.3407529592514038,0,0,0.8408399820327759
0.297923374,0,0,1.3407529592514038,0,0,0.8408399820327759
0.298069298,0,0,1.3407529592514038,0,0,0.9937199950218201
0.298216778,0,0,1.3407529592514038,0,0,0.9937199950218201
0.29836261,0,0,1.3407529592514038,0,0,0.9937199950218201
0.298508238,0,0,1.3407529592514038,0,0,0.9937199950218201
0.298653977,0,0,1.3407529592514038,0,0,0.9937199950218201
0.298799494,0,0,1.3982137441635132,0,0,1.6816799640655518
0.298945141,0,0,1.3982137441635132,0,0,1.6816799640655518
0.299092269,0,0,1.3982137441635132,0,0,0.9172800183296204
0.299238452,0,0,1.3982137441635132,0,0,0.9172800183296204
0.299384543,0,0,1.3982137441635132,0,0,1.5288000106811523
0.299530819,0,0,1.3982137441635132,0,0,1.5288000106811523
0.299676947,0,0,1.3982137441635132,0,0,1.605239987373352
0.29982326,0,0,1.5753847360610962,0,0,1.605239987373352
0.299969407,0,0,1.5753847360610962,0,0,1.605239987373352
0.300115442,0,0,1.5753847360610962,0,0,1.070159912109375
0.300265274,0,0,1.5753847360610962,0,0,1.070159912109375
0.300409476,0,0,1.5753847360610962,0,0,0
0.300555752,0,0,1.5753847360610962,0,0,0
0.30070214,0,0,1.5753847360610962,0,0,0
0.300848101,0,0,1.5705963373184204,0,0,0
0.300994247,0,0,1.5705963373184204,0,0,1.070159912109375
0.301140505,0,0,1.5705963373184204,0,0,1.070159912109375
0.301286707,0,0,1.5705963373184204,0,0,1.070159912109375
0.301432946,0,0,1.5705963373184204,0,0,1.070159912109375
0.301579111,0,0,1.5705963373184204,0,0,1.070159912109375
0.301725184,0,0,1.5705963373184204,0,0,0.6879600286483765
0.30187133,0,0,1.6711528301239014,0,0,0.6879600286483765
0.302017569,0,0,1.6711528301239014,0,0,0.9172800183296204
0.30216366,0,0,1.6711528301239014,0,0,0.9172800183296204
0.30231064,0,0,1.6711528301239014,0,0,0.2293200045824051
0.302456268,0,0,1.6711528301239014,0,0,0.2293200045824051
0.302602359,0,0,1.6711528301239014,0,0,0.305759996175766
0.302748191,0,0,1.6711528301239014,0,0,0.305759996175766
0.30289443,0,0,1.455674648284912,0,0,0.3822000026702881
0.303040484,0,0,1.455674648284912,0,0,0.3822000026702881
0.303186575,0,0,1.455674648284912,0,0,0.3822000026702881
0.303332981,0,0,1.455674648284912,0,0,0.4586400091648102
0.303479164,0,0,1.455674648284912,0,0,0.4586400091648102
0.303625459,0,0,1.455674648284912,0,0,0.9937199950218201
0.303771457,0,0,1.455674648284912,0,0,0.9937199950218201
0.303917641,0,0,1.3718775510787964,0,0,0.7644000053405762
0.304063787,0,0,1.3718775510787964,0,0,0.7644000053405762
0.304210045,0,0,1.3718775510787964,0,0,0.2293200045824051
0.304356099,0,0,1.3718775510787964,0,0,0.2293200045824051
0.304502486,0,0,1.3718775510787964,0,0,0.2293200045824051
0.304648836,0,0,1.3718775510787964,0,0,0.7644000053405762
0.304798779,0,0,1.434126853942871,0,0,0.7644000053405762
0.304943055,0,0,1.434126853942871,0,0,1.8345600366592407
0.305089109,0,0,1.434126853942871,0,0,1.8345600366592407
0.305235404,0,0,1.434126853942871,0,0,1.5288000106811523
0.305381625,0,0,1.434126853942871,0,0,1.5288000106811523
0.305527679,0,0,1.434126853942871,0,0,1.223039984703064
0.305673992,0,0,1.434126853942871,0,0,1.223039984703064
0.305820157,0,0,1.357512354850769,0,0,0.9937199950218201
0.305966322,0,0,1.357512354850769,0,0,0.9937199950218201
0.306112302,0,0,1.357512354850769,0,0,0.9937199950218201
0.306259874,0,0,1.357512354850769,0,0,0.8408399820327759
0.306404854,0,0,1.357512354850769,0,0,0.8408399820327759
0.306550945,0,0,1.357512354850769,0,0,0.7644000053405762
0.306696906,0,0,1.357512354850769,0,0,0.7644000053405762
0.306849016,0,0,1.3072341680526733,0,0,1.452359914779663
0.306989273,0,0,1.3072341680526733,0,0,1.452359914779663
0.307135327,0,0,1.3072341680526733,0,0,1.2994799613952637
0.307281381,0,0,1.3072341680526733,0,0,1.2994799613952637
0.307427528,0,0,1.3072341680526733,0,0,0.6879600286483765
0.307573767,0,0,1.3072341680526733,0,0,0.6879600286483765
0.307719839,0,0,1.3072341680526733,0,0,0.6879600286483765
0.307866023,0,0,1.455674648284912,0,0,1.223039984703064
0.308012169,0,0,1.455674648284912,0,0,1.223039984703064
0.308158205,0,0,1.455674648284912,0,0,1.070159912109375
0.308304259,0,0,1.455674648284912,0,0,1.070159912109375
0.308450405,0,0,1.455674648284912,0,0,1.2994799613952637
0.308596311,0,0,1.455674648284912,0,0,1.2994799613952637
0.308742643,0,0,1.455674648284912,0,0,0.9172800183296204
0.3088889,0,0,1.4915876388549805,0,0,0.9172800183296204
0.309035065,0,0,1.4915876388549805,0,0,0.9937199950218201
0.309181119,0,0,1.4915876388549805,0,0,0.9937199950218201
0.309330655,0,0,1.4915876388549805,0,0,0.9937199950218201
0.309474987,0,0,1.4915876388549805,0,0,0.305759996175766
0.309621337,0,0,1.4915876388549805,0,0,0.305759996175766
0.309767557,0,0,1.4915876388549805,0,0,0.2293200045824051
0.309913741,0,0,1.5466543436050415,0,0,0.2293200045824051
0.310059702,0,0,1.5466543436050415,0,0,1.070159912109375
0.310225682,0,0,1.5466543436050415,0,0,1.070159912109375
0.310372662,0,0,1.5466543436050415,0,0,1.758120059967041
0.310518938,0,0,1.5466543436050415,0,0,1.758120059967041
0.310665436,0,0,1.5466543436050415,0,0,1.070159912109375
0.31081149,0,0,1.5753847360610962,0,0,1.070159912109375
0.310957581,0,0,1.5753847360610962,0,0,1.070159912109375
0.311103894,0,0,1.5753847360610962,0,0,-1.223039984703064
0.311249948,0,0,1.5753847360610962,0,0,-1.223039984703064
0.311396021,0,0,1.5753847360610962,0,0,-0.3822000026702881
0.311542019,0,0,1.5753847360610962,0,0,-0.3822000026702881
0.311688295,0,0,1.5753847360610962,0,0,0.5350799560546875
0.311834405,0,0,1.5753847360610962,0,0,0.5350799560546875
0.311980459,0,0,1.5753847360610962,0,0,1.223039984703064
0.312126698,0,0,1.5753847360610962,0,0,1.223039984703064
0.312272733,0,0,1.5753847360610962,0,0,0.9172800183296204
0.312418769,0,0,1.5753847360610962,0,0,0.9172800183296204
0.312565008,0,0,1.5753847360610962,0,0,0.9172800183296204
0.312711284,0,0,1.5753847360610962,0,0,0.5350799560546875
0.312857338,0,0,1.5921441316604614,0,0,0.5350799560546875
0.31300354,0,0,1.5921441316604614,0,0,0.2293200045824051
0.313149631,0,0,1.5921441316604614,0,0,0.2293200045824051
0.313295796,0,0,1.5921441316604614,0,0,0.305759996175766
0.313441942,0,0,1.5921441316604614,0,0,0.305759996175766
0.313588089,0,0,1.5921441316604614,0,0,1.223039984703064
0.313733921,0,0,1.5921441316604614,0,0,1.223039984703064
0.313885456,0,0,1.3742717504501343,0,0,1.223039984703064
0.314029047,0,0,1.3742717504501343,0,0,0.9937199950218201
0.314175138,0,0,1.3742717504501343,0,0,0.9937199950218201
0.314321692,0,0,1.3742717504501343,0,0,0.7644000053405762
0.31446769,0,0,1.3742717504501343,0,0,0.7644000053405762
0.314613578,0,0,1.3742717504501343,0,0,0.2293200045824051
0.314759557,0,0,1.3742717504501343,0,0,0.2293200045824051
0.314906037,0,0,1.292868971824646,0,0,0.305759996175766
0.315052202,0,0,1.292868971824646,0,0,0.305759996175766
0.315198516,0,0,1.292868971824646,0,0,0.7644000053405762
0.315344495,0,0,1.292868971824646,0,0,0.7644000053405762
0.315490568,0,0,1.292868971824646,0,0,0.7644000053405762
0.315636659,0,0,1.292868971824646,0,0,1.8345600366592407
0.315782861,0,0,1.292868971824646,0,0,1.8345600366592407
0.315929026,0,0,1.359906554222107,0,0,1.1466000080108643
0.316075209,0,0,1.359906554222107,0,0,1.1466000080108643
0.316229245,0,0,1.359906554222107,0,0,0.611519992351532
0.31636754,0,0,1.359906554222107,0,0,0.611519992351532
0.316513408,0,0,1.359906554222107,0,0,0.611519992351532
0.316659481,0,0,1.359906554222107,0,0,0.611519992351532
0.316805646,0,0,1.335964560508728,0,0,0.7644000053405762
0.316951626,0,0,1.335964560508728,0,0,0.7644000053405762
0.317097754,0,0,1.335964560508728,0,0,0.7644000053405762
0.3172439,0,0,1.335964560508728,0,0,2.2932000160217285
0.31738988,0,0,1.335964560508728,0,0,2.2932000160217285
0.317536008,0,0,1.335964560508728,0,0,0.9172800183296204
0.317682229,0,0,1.335964560508728,0,0,0.9172800183296204
0.317828301,0,0,1.3479355573654175,0,0,0.611519992351532
0.31797467,0,0,1.3479355573654175,0,0,0.611519992351532
0.318120742,0,0,1.3479355573654175,0,0,0.6879600286483765
0.318267981,0,0,1.3479355573654175,0,0,0.6879600286483765
0.318417017,0,0,1.3479355573654175,0,0,0.5350799560546875
0.318561071,0,0,1.3479355573654175,0,0,0.5350799560546875
0.318707384,0,0,1.3479355573654175,0,0,0.5350799560546875
0.318970825,0,0,1.4532804489135742,0,0,1.375920057296753
0.318996936,0,0,1.4532804489135742,0,0,1.375920057296753
0.319140101,0,0,1.4532804489135742,0,0,0
0.319285748,0,0,1.4532804489135742,0,0,0
0.319431783,0,0,1.4532804489135742,0,0,0.611519992351532
0.319577967,0,0,1.4532804489135742,0,0,0.611519992351532
0.319723965,0,0,1.4532804489135742,0,0,0.4586400091648102
0.31987013,0,0,1.558625340461731,0,0,0.4586400091648102
0.320016147,0,0,1.558625340461731,0,0,0.4586400091648102
0.320162442,0,0,1.558625340461731,0,0,0.4586400091648102
0.320308644,0,0,1.558625340461731,0,0,0.4586400091648102
0.32045492,0,0,1.558625340461731,0,0,0.5350799560546875
0.320600918,0,0,1.558625340461731,0,0,0.5350799560546875
0.320746861,0,0,1.558625340461731,0,0,0.5350799560546875
0.320892971,0,0,1.6376339197158813,0,0,0.5350799560546875
0.321039136,0,0,1.6376339197158813,0,0,0.7644000053405762
0.321185171,0,0,1.6376339197158813,0,0,0.7644000053405762
0.321331355,0,0,1.6376339197158813,0,0,0.7644000053405762
0.321477483,0,0,1.6376339197158813,0,0,0.7644000053405762
0.321623537,0,0,1.6376339197158813,0,0,0.7644000053405762
0.321769665,0,0,1.6376339197158813,0,0,-0.2293200045824051
0.321915848,0,0,1.6208745241165161,0,0,-0.2293200045824051
0.322061902,0,0,1.6208745241165161,0,0,0.6879600286483765
0.322219178,0,0,1.6208745241165161,0,0,0.6879600286483765
0.32236601,0,0,1.6208745241165161,0,0,0.7644000053405762
0.322512323,0,0,1.6208745241165161,0,0,0.7644000053405762
0.322658544,0,0,1.6208745241165161,0,0,0.7644000053405762
0.322804801,0,0,1.6208745241165161,0,0,0.7644000053405762
0.322954652,0,0,1.580173134803772,0,0,0.8408399820327759
0.32309878,0,0,1.580173134803772,0,0,0.8408399820327759
0.323244945,0,0,1.580173134803772,0,0,0.8408399820327759
0.323390962,0,0,1.580173134803772,0,0,1.1466000080108643
0.323536997,0,0,1.580173134803772,0,0,1.1466000080108643
0.323683421,0,0,1.580173134803772,0,0,1.8345600366592407
0.323829494,0,0,1.5945383310317993,0,0,1.8345600366592407
0.323975474,0,0,1.5945383310317993,0,0,1.605239987373352
0.324121805,0,0,1.5945383310317993,0,0,1.605239987373352
0.324268081,0,0,1.5945383310317993,0,0,1.1466000080108643
0.32441408,0,0,1.5945383310317993,0,0,1.1466000080108643
0.324560097,0,0,1.5945383310317993,0,0,0.611519992351532
0.324706502,0,0,1.5945383310317993,0,0,0.611519992351532
0.324852797,0,0,1.3215993642807007,0,0,0.611519992351532
0.324998777,0,0,1.3215993642807007,0,0,1.2994799613952637
0.325144998,0,0,1.3215993642807007,0,0,1.2994799613952637
0.325291163,0,0,1.3215993642807007,0,0,0.9172800183296204
0.325437161,0,0,1.3215993642807007,0,0,0.9172800183296204
0.3255834,0,0,1.3215993642807007,0,0,1.2994799613952637
0.32572951,0,0,1.3215993642807007,0,0,1.2994799613952637
0.325875841,0,0,1.4101848602294922,0,0,0.8408399820327759
0.326021803,0,0,1.4101848602294922,0,0,0.8408399820327759
0.326167949,0,0,1.4101848602294922,0,0,0.8408399820327759
0.326314596,0,0,1.4101848602294922,0,0,0.9937199950218201
0.32646052,0,0,1.4101848602294922,0,0,0.9937199950218201
0.326606722,0,0,1.4101848602294922,0,0,1.6816799640655518
0.326752906,0,0,1.4101848602294922,0,0,1.6816799640655518
0.326898941,0,0,1.4389152526855469,0,0,1.1466000080108643
0.327045273,0,0,1.4389152526855469,0,0,1.1466000080108643
0.327191512,0,0,1.4389152526855469,0,0,1.070159912109375
0.32733764,0,0,1.4389152526855469,0,0,1.070159912109375
0.327487064,0,0,1.4389152526855469,0,0,1.1466000080108643
0.327631637,0,0,1.4389152526855469,0,0,1.1466000080108643
0.327777487,0,0,1.4389152526855469,0,0,1.1466000080108643
0.327923726,0,0,1.3048399686813354,0,0,-0.3822000026702881
0.32807015,0,0,1.3048399686813354,0,0,-0.3822000026702881
0.328216241,0,0,1.3048399686813354,0,0,0
0.328362425,0,0,1.3048399686813354,0,0,0
0.328508497,0,0,1.3048399686813354,0,0,0.2293200045824051
0.32865457,0,0,1.3048399686813354,0,0,0.2293200045824051
0.328800827,0,0,1.3048399686813354,0,0,0.305759996175766
0.328946974,0,0,1.3551181554794312,0,0,0.305759996175766
0.329092972,0,0,1.3551181554794312,0,0,0.9172800183296204
0.329239341,0,0,1.3551181554794312,0,0,0.9172800183296204
0.32938558,0,0,1.3551181554794312,0,0,0.9172800183296204
0.329531504,0,0,1.3551181554794312,0,0,0.6879600286483765
0.329677577,0,0,1.3551181554794312,0,0,0.6879600286483765
0.329823909,0,0,1.5059528350830078,0,0,-0.3822000026702881
0.329970074,0,0,1.5059528350830078,0,0,-0.3822000026702881
0.33011635,0,0,1.5059528350830078,0,0,0
0.330263274,0,0,1.5059528350830078,0,0,0
0.330408458,0,0,1.5059528350830078,0,0,0.4586400091648102
0.330554734,0,0,1.5059528350830078,0,0,0.4586400091648102
0.330700843,0,0,1.5059528350830078,0,0,0.4586400091648102
