Time,AccelX1,AccelY1,AccelZ1,AccelX2,AccelY2,AccelZ2
0.000012278,0,0,1.6424223184585571,0,0,1.1466000080108643
0.009460888,0,0,1.6424223184585571,0,0,0.7644000053405762
0.009684737,0,0,1.6424223184585571,0,0,1.223039984703064
0.009867753,0,0,1.558625340461731,0,0,0.611519992351532
0.010048343,0,0,1.558625340461731,0,0,0.611519992351532
0.010413727,0,0,1.558625340461731,0,0,0.611519992351532
0.010618835,0,0,1.558625340461731,0,0,1.223039984703064
0.01130714,0,0,1.3407529592514038,0,0,1.2994799613952637
0.011509619,0,0,1.3407529592514038,0,0,0.4586400091648102
0.011685172,0,0,1.3407529592514038,0,0,0.4586400091648102
0.011856003,0,0,1.4437036514282227,0,0,0.5350799560546875
0.01202726,0,0,1.4437036514282227,0,0,0.5350799560546875
0.012202739,0,0,1.338358759880066,0,0,1.1466000080108643
0.013294316,0,0,1.3862427473068237,0,0,0.7644000053405762
0.014275266,0,0,1.2952631711959839,0,0,0.8408399820327759
0.015287844,0,0,1.4676456451416016,0,0,0.8408399820327759
0.016275942,0,0,1.6041151285171509,0,0,1.2994799613952637
0.017255613,0,0,1.482010841369629,0,0,-0.152879998087883
0.01825184,0,0,1.5825673341751099,0,0,0.9937199950218201
0.019239753,0,0,1.7525556087493896,0,0,1.2994799613952637
0.020238943,0,0,1.3718775510787964,0,0,0.8408399820327759
0.021235484,0,0,1.4197616577148438,0,0,0.611519992351532
0.022232619,0,0,1.314416766166687,0,0,1.070159912109375
0.023261456,0,0,1.4437036514282227,0,0,0.4586400091648102
0.024246461,0,0,1.4844050407409668,0,0,0.7644000053405762
0.025350539,0,0,1.4676456451416016,0,0,0.7644000053405762
0.026256193,0,0,1.5658079385757446,0,0,1.1466000080108643
0.027230179,0,0,1.400607943534851,0,0,0.5350799560546875
0.028251035,0,0,1.4221558570861816,0,0,0.8408399820327759
0.029224855,0,0,1.6519991159439087,0,0,0.9937199950218201
0.030222564,0,0,1.3862427473068237,0,0,0.6879600286483765
0.031222716,0,0,1.3623007535934448,0,0,0.611519992351532
0.032222795,0,0,1.1803414821624756,0,0,0.5350799560546875
0.033236837,0,0,1.3623007535934448,0,0,0.9172800183296204
0.034222934,0,0,1.400607943534851,0,0,1.070159912109375
0.035222791,0,0,1.41257905960083,0,0,0.8408399820327759
0.036222888,0,0,1.5682021379470825,0,0,0.9937199950218201
0.037222245,0,0,1.556231141090393,0,0,0.4586400091648102
0.038222268,0,0,1.4101848602294922,0,0,0.9172800183296204
0.039223309,0,0,1.7836803197860718,0,0,0.9937199950218201
0.040222981,0,0,1.4101848602294922,0,0,0.611519992351532
0.041222282,0,0,1.3455413579940796,0,0,0.9172800183296204
0.042362099,0,0,1.3215993642807007,0,0,0.8408399820327759
0.04322568,0,0,1.4293384552001953,0,0,0.8408399820327759
0.044223259,0,0,1.5418659448623657,0,0,0.9172800183296204
0.045222689,0,0,1.4245500564575195,0,0,0.8408399820327759
0.04622225,0,0,1.5705963373184204,0,0,0.8408399820327759
0.04722268,0,0,1.5514427423477173,0,0,1.452359914779663
0.048222481,0,0,1.3263877630233765,0,0,0.5350799560546875
0.049222079,0,0,1.6735470294952393,0,0,0.8408399820327759
0.05023262,0,0,1.4939818382263184,0,0,0.5350799560546875
0.05122494,0,0,1.3335703611373901,0,0,1.223039984703064
0.05222313,0,0,1.3646949529647827,0,0,0.5350799560546875
0.053221894,0,0,1.2617442607879639,0,0,1.1466000080108643
0.054222343,0,0,1.4676456451416016,0,0,0.8408399820327759
0.055222884,0,0,1.400607943534851,0,0,0.8408399820327759
0.05622263,0,0,1.4508862495422363,0,0,0.8408399820327759
0.05722182,0,0,1.5945383310317993,0,0,0.9937199950218201
0.058224602,0,0,1.357512354850769,0,0,0
0.059225273,0,0,1.5442601442337036,0,0,0.9172800183296204
0.060223482,0,0,1.5825673341751099,0,0,0.8408399820327759
0.06122232,0,0,1.314416766166687,0,0,1.5288000106811523
0.062221991,0,0,1.4101848602294922,0,0,0.6879600286483765
0.063377197,0,0,1.2545616626739502,0,0,0.9172800183296204
0.064227315,0,0,1.3910311460494995,0,0,0.9172800183296204
0.065236987,0,0,1.3766659498214722,0,0,0.9172800183296204
0.066226028,0,0,1.580173134803772,0,0,0.7644000053405762
0.06731368,0,0,1.623268723487854,0,0,0.8408399820327759
0.068231075,0,0,1.359906554222107,0,0,0.5350799560546875
0.069253431,0,0,1.3934253454208374,0,0,0.9172800183296204
0.070256195,0,0,1.6687586307525635,0,0,1.223039984703064
0.07123357,0,0,1.3431471586227417,0,0,0.9937199950218201
0.072292667,0,0,1.3910311460494995,0,0,0.8408399820327759
0.07325882,0,0,1.2090718746185303,0,0,0.7644000053405762
0.074253269,0,0,1.3862427473068237,0,0,0.9172800183296204
0.075253126,0,0,1.37906014919281,0,0,0.611519992351532
0.077798461,0,0,1.7070658206939697,0,0,0.9937199950218201
0.078012976,0,0,1.7070658206939697,0,0,1.375920057296753
0.078186715,0,0,1.534683346748352,0,0,0.8408399820327759
0.079309866,0,0,1.3838485479354858,0,0,0.8408399820327759
0.080276834,0,0,1.6136919260025024,0,0,1.2994799613952637
0.081253506,0,0,1.3000515699386597,0,0,0.611519992351532
0.08233675,0,0,1.3455413579940796,0,0,0.8408399820327759
0.083271293,0,0,1.2497732639312744,0,0,0.7644000053405762
0.084256742,0,0,1.4101848602294922,0,0,0.9172800183296204
0.085254247,0,0,1.3623007535934448,0,0,0.8408399820327759
0.086415027,0,0,1.4221558570861816,0,0,0.7644000053405762
0.087280848,0,0,1.7046716213226318,0,0,0.6879600286483765
0.088270557,0,0,1.5322890281677246,0,0,0.9937199950218201
0.089263061,0,0,1.3455413579940796,0,0,0.8408399820327759
0.090250307,0,0,1.6496049165725708,0,0,0.9172800183296204
0.091896988,0,0,1.4101848602294922,0,0,0.5350799560546875
0.092251168,0,0,1.3623007535934448,0,0,1.2994799613952637
0.09322434,0,0,1.359906554222107,0,0,0.7644000053405762
0.094224159,0,0,1.316810965538025,0,0,1.223039984703064
0.095237516,0,0,1.3048399686813354,0,0,0.5350799560546875
0.096226521,0,0,1.3503297567367554,0,0,0.9172800183296204
0.097223988,0,0,1.4844050407409668,0,0,1.223039984703064
0.098245048,0,0,1.5849615335464478,0,0,1.6816799640655518
0.099225387,0,0,1.4101848602294922,0,0,0.611519992351532
0.100224502,0,0,1.6543933153152466,0,0,0.7644000053405762
0.101223581,0,0,1.3311761617660522,0,0,1.070159912109375
0.103400533,0,0,1.3311761617660522,0,0,1.070159912109375
0.103563586,0,0,1.357512354850769,0,0,0.4586400091648102
0.10422454,0,0,1.290474772453308,0,0,0.8408399820327759
0.105232248,0,0,1.5083470344543457,0,0,0.611519992351532
0.106250271,0,0,1.3742717504501343,0,0,0.9937199950218201
0.107253553,0,0,1.5418659448623657,0,0,0.9172800183296204
0.108284669,0,0,1.5969325304031372,0,0,1.070159912109375
0.109265674,0,0,1.4484920501708984,0,0,0.2293200045824051
0.110269049,0,0,1.5394717454910278,0,0,0.8408399820327759
0.111490421,0,0,1.7334020137786865,0,0,0.9172800183296204
0.112300576,0,0,1.3479355573654175,0,0,0.9937199950218201
0.113298673,0,0,1.4173674583435059,0,0,0.4586400091648102
0.11430677,0,0,1.2737152576446533,0,0,0.9172800183296204
0.115296312,0,0,1.4652514457702637,0,0,0.9937199950218201
0.116300132,0,0,1.4293384552001953,0,0,1.070159912109375
0.117263359,0,0,1.455674648284912,0,0,0.9937199950218201
0.118263568,0,0,1.5945383310317993,0,0,0.9937199950218201
0.119293183,0,0,1.436521053314209,0,0,0.305759996175766
0.120252225,0,0,1.5059528350830078,0,0,0.9172800183296204
0.121228952,0,0,1.6831238269805908,0,0,0.9937199950218201
0.122224124,0,0,1.3982137441635132,0,0,0.9937199950218201
0.123228351,0,0,1.4891934394836426,0,0,0.9937199950218201
0.1242248,0,0,1.2042834758758545,0,0,0.611519992351532
0.125223731,0,0,1.3407529592514038,0,0,0.9937199950218201
0.12622342,0,0,1.3479355573654175,0,0,0.9172800183296204
0.127227036,0,0,1.4197616577148438,0,0,0.8408399820327759
0.128225004,0,0,1.5083470344543457,0,0,0.7644000053405762
0.129261489,0,0,1.436521053314209,0,0,0.8408399820327759
0.130225772,0,0,1.4197616577148438,0,0,0.9172800183296204
0.131226277,0,0,1.6280571222305298,0,0,0.9937199950218201
0.132227319,0,0,1.3646949529647827,0,0,0.611519992351532
0.133226601,0,0,1.359906554222107,0,0,1.1466000080108643
0.134226161,0,0,1.3120225667953491,0,0,0.6879600286483765
0.135227129,0,0,1.381454348564148,0,0,1.2994799613952637
0.136225356,0,0,1.4101848602294922,0,0,0.6879600286483765
0.137226101,0,0,1.403002142906189,0,0,0.611519992351532
0.138225736,0,0,1.5945383310317993,0,0,0.9172800183296204
0.139226592,0,0,1.6112977266311646,0,0,1.1466000080108643
0.140225449,0,0,1.3455413579940796,0,0,0.3822000026702881
0.141225954,0,0,1.6065093278884888,0,0,0.7644000053405762
0.142225421,0,0,1.4484920501708984,0,0,0.4586400091648102
0.143226759,0,0,1.3623007535934448,0,0,1.223039984703064
0.144225393,0,0,1.2952631711959839,0,0,0.5350799560546875
0.145225991,0,0,1.316810965538025,0,0,1.223039984703064
0.146225903,0,0,1.5514427423477173,0,0,0.7644000053405762
0.147233352,0,0,1.4748282432556152,0,0,0.5350799560546875
0.148261541,0,0,1.5538369417190552,0,0,0.9937199950218201
0.149251028,0,0,1.5825673341751099,0,0,0.9172800183296204
0.150226496,0,0,1.400607943534851,0,0,0.0764399990439415
0.151230926,0,0,1.5897499322891235,0,0,0.8408399820327759
0.152225468,0,0,1.5203180313110352,0,0,0.7644000053405762
0.153225991,0,0,1.280897855758667,0,0,1.223039984703064
0.154225681,0,0,1.3455413579940796,0,0,0.611519992351532
0.155226945,0,0,1.3072341680526733,0,0,0.9937199950218201
0.156225227,0,0,1.4221558570861816,0,0,0.6879600286483765
0.157225621,0,0,1.3551181554794312,0,0,1.223039984703064
0.158225996,0,0,1.4748282432556152,0,0,0.5350799560546875
0.159226686,0,0,1.5538369417190552,0,0,0.8408399820327759
0.160229098,0,0,1.434126853942871,0,0,0.3822000026702881
0.161226214,0,0,1.455674648284912,0,0,1.2994799613952637
0.162226052,0,0,1.6543933153152466,0,0,0.6879600286483765
0.163227316,0,0,1.3239935636520386,0,0,1.1466000080108643
0.16422558,0,0,1.4460978507995605,0,0,0.4586400091648102
0.165226066,0,0,1.3239935636520386,0,0,1.1466000080108643
0.166225978,0,0,1.4460978507995605,0,0,0.8408399820327759
0.167227871,0,0,1.381454348564148,0,0,0.8408399820327759
0.168231339,0,0,1.4676456451416016,0,0,0.5350799560546875
0.169227862,0,0,1.6041151285171509,0,0,0.611519992351532
0.170266255,0,0,1.4700398445129395,0,0,0.7644000053405762
0.171248353,0,0,1.3479355573654175,0,0,0.8408399820327759
0.17223158,0,0,1.680729627609253,0,0,0.8408399820327759
0.173240473,0,0,1.4437036514282227,0,0,0.6879600286483765
0.174256015,0,0,1.3886369466781616,0,0,0.9172800183296204
0.175245335,0,0,1.2856862545013428,0,0,0.9172800183296204
0.179284131,0,0,1.403002142906189,0,0,0.8408399820327759
0.179490924,0,0,1.403002142906189,0,0,0.8408399820327759
0.179664199,0,0,1.403002142906189,0,0,1.5288000106811523
0.179832771,0,0,1.623268723487854,0,0,0.9172800183296204
0.180239303,0,0,1.5514427423477173,0,0,0.9937199950218201
0.18127277,0,0,1.3694833517074585,0,0,0.7644000053405762
0.182281422,0,0,1.6663644313812256,0,0,0.7644000053405762
0.183251539,0,0,1.4772224426269531,0,0,0.6879600286483765
0.184244006,0,0,1.3287819623947144,0,0,1.223039984703064
0.185242659,0,0,1.2473790645599365,0,0,0.7644000053405762
0.186245127,0,0,1.316810965538025,0,0,0.8408399820327759
0.187239946,0,0,1.4413094520568848,0,0,0.8408399820327759
0.188237914,0,0,1.403002142906189,0,0,0.4586400091648102
0.189237993,0,0,1.53707754611969,0,0,0.9172800183296204
0.19061527,0,0,1.5705963373184204,0,0,1.375920057296753
0.19125328,0,0,1.4508862495422363,0,0,0.611519992351532
0.192247118,0,0,1.6711528301239014,0,0,0.611519992351532
0.193243678,0,0,1.4484920501708984,0,0,0.7644000053405762
0.19424059,0,0,1.3287819623947144,0,0,1.2994799613952637
0.195243225,0,0,1.3407529592514038,0,0,0.5350799560546875
0.196243674,0,0,1.3215993642807007,0,0,1.375920057296753
0.197239327,0,0,1.4532804489135742,0,0,0.6879600286483765
0.198242609,0,0,1.4269442558288574,0,0,0.611519992351532
0.199231095,0,0,1.5322890281677246,0,0,1.1466000080108643
0.200251137,0,0,1.6615760326385498,0,0,1.2994799613952637
0.201226327,0,0,1.4508862495422363,0,0,0.5350799560546875
0.202226091,0,0,1.5179238319396973,0,0,0.611519992351532
0.203228558,0,0,1.623268723487854,0,0,0.5350799560546875
0.204224897,0,0,1.3215993642807007,0,0,0.8408399820327759
0.205225642,0,0,1.434126853942871,0,0,0.4586400091648102
0.206225906,0,0,1.2186486721038818,0,0,0.8408399820327759
0.207226355,0,0,1.4891934394836426,0,0,0.5350799560546875
0.208225193,0,0,1.3934253454208374,0,0,0.9172800183296204
0.20922779,0,0,1.4676456451416016,0,0,0.8408399820327759
0.21023998,0,0,1.5897499322891235,0,0,1.070159912109375
0.211232337,0,0,1.4173674583435059,0,0,0.4586400091648102
0.212226527,0,0,1.5131354331970215,0,0,0.9937199950218201
0.213225735,0,0,1.6903064250946045,0,0,0.9937199950218201
0.214225721,0,0,1.3407529592514038,0,0,0.7644000053405762
0.215225763,0,0,1.4269442558288574,0,0,0.8408399820327759
0.216225934,0,0,1.3024457693099976,0,0,0.9937199950218201
0.217225883,0,0,1.403002142906189,0,0,0.7644000053405762
0.218225703,0,0,1.4245500564575195,0,0,0.9172800183296204
0.219225985,0,0,1.434126853942871,0,0,0.7644000053405762
0.220225916,0,0,1.6352397203445435,0,0,0.3822000026702881
0.221225735,0,0,1.577778935432434,0,0,0.3822000026702881
0.222225888,0,0,1.4628572463989258,0,0,0.9172800183296204
0.223242393,0,0,1.7573440074920654,0,0,1.070159912109375
0.224252082,0,0,1.335964560508728,0,0,0.5350799560546875
0.225260031,0,0,1.2880805730819702,0,0,0.9937199950218201
0.226277091,0,0,1.3287819623947144,0,0,0.7644000053405762
0.227264059,0,0,1.400607943534851,0,0,1.070159912109375
0.228323637,0,0,1.403002142906189,0,0,0.7644000053405762
0.22929355,0,0,1.3479355573654175,0,0,0.7644000053405762
0.23030735,0,0,1.5634137392044067,0,0,0.6879600286483765
0.231293392,0,0,1.5873557329177856,0,0,1.070159912109375
0.232291119,0,0,1.4197616577148438,0,0,0.4586400091648102
0.233276383,0,0,1.7501614093780518,0,0,0.8408399820327759
0.23426037,0,0,1.558625340461731,0,0,0.611519992351532
0.235305541,0,0,1.3431471586227417,0,0,-37.76136016845703
0.236363341,0,0,1.414973258972168,0,0,0.7644000053405762
0.23728055,0,0,1.3838485479354858,0,0,0.9937199950218201
0.238315758,0,0,1.501164436340332,0,0,0.7644000053405762
0.239392447,0,0,1.381454348564148,0,0,0.8408399820327759
0.24032436,0,0,1.5322890281677246,0,0,1.070159912109375
0.241337364,0,0,1.5514427423477173,0,0,1.375920057296753
0.24230811,0,0,1.381454348564148,0,0,0.6879600286483765
0.243277912,0,0,1.5466543436050415,0,0,0.611519992351532
0.24427625,0,0,1.599326729774475,0,0,0.7644000053405762
0.245290476,0,0,1.3958195447921753,0,0,1.2994799613952637
0.246304148,0,0,1.5059528350830078,0,0,0.4586400091648102
0.247301356,0,0,1.290474772453308,0,0,0.9172800183296204
0.248274028,0,0,1.45806884765625,0,0,0.5350799560546875
0.24924644,0,0,1.3838485479354858,0,0,1.070159912109375
0.250245556,0,0,1.5155296325683594,0,0,0.8408399820327759
0.251241635,0,0,1.558625340461731,0,0,0.8408399820327759
0.252253565,0,0,1.3503297567367554,0,0,0.3822000026702881
0.253239978,0,0,1.3694833517074585,0,0,0.8408399820327759
0.25424139,0,0,1.6112977266311646,0,0,0.7644000053405762
0.255229246,0,0,1.41257905960083,0,0,1.1466000080108643
0.256226547,0,0,1.4724340438842773,0,0,0.6879600286483765
0.257276459,0,0,1.2210428714752197,0,0,1.070159912109375
0.25828626,0,0,1.4101848602294922,0,0,0.8408399820327759
0.259831757,0,0,1.3958195447921753,0,0,0.8408399820327759
0.260256121,0,0,1.5203180313110352,0,0,0.6879600286483765
0.261246496,0,0,1.6615760326385498,0,0,0.9172800183296204
0.262343148,0,0,1.4867992401123047,0,0,0.611519992351532
0.263246784,0,0,1.4508862495422363,0,0,1.070159912109375
0.264242177,0,0,1.7621324062347412,0,0,0.9937199950218201
0.265248978,0,0,1.3958195447921753,0,0,0.9937199950218201
0.266262594,0,0,1.4484920501708984,0,0,0.5350799560546875
0.267315023,0,0,1.3431471586227417,0,0,0.6879600286483765
0.268261159,0,0,1.4173674583435059,0,0,0.9937199950218201
0.269255126,0,0,1.3958195447921753,0,0,0.7644000053405762
0.27027002,0,0,1.4221558570861816,0,0,0.611519992351532
0.271252228,0,0,1.6424223184585571,0,0,0.9172800183296204
0.272254048,0,0,1.4532804489135742,0,0,0.9937199950218201
0.273247404,0,0,1.479616641998291,0,0,0.8408399820327759
0.274245224,0,0,1.7812861204147339,0,0,0.6879600286483765
0.275249543,0,0,1.50355863571167,0,0,0.8408399820327759
0.276253789,0,0,1.37906014919281,0,0,0.6879600286483765
0.277251886,0,0,1.3311761617660522,0,0,0.9172800183296204
0.278247224,0,0,1.3910311460494995,0,0,1.070159912109375
0.27924884,0,0,1.403002142906189,0,0,0.7644000053405762
0.280260789,0,0,1.4101848602294922,0,0,0.5350799560546875
0.281245479,0,0,1.5825673341751099,0,0,0.8408399820327759
0.282250891,0,0,1.6160861253738403,0,0,1.375920057296753
0.283253155,0,0,1.4077905416488647,0,0,0.3822000026702881
0.284258196,0,0,1.6543933153152466,0,0,0.5350799560546875
0.285253664,0,0,1.5729905366897583,0,0,0.6879600286483765
0.286246669,0,0,1.2880805730819702,0,0,1.223039984703064
0.287254229,0,0,1.335964560508728,0,0,0.9937199950218201
0.288256715,0,0,1.3192051649093628,0,0,0.7644000053405762
0.28924572,0,0,1.4245500564575195,0,0,0.6879600286483765
0.29024878,0,0,1.3886369466781616,0,0,0.9172800183296204
0.291250637,0,0,1.45806884765625,0,0,0.9172800183296204
0.292245438,0,0,1.5203180313110352,0,0,0.9172800183296204
0.293283979,0,0,1.3958195447921753,0,0,0.611519992351532
0.29425341,0,0,1.6065093278884888,0,0,0.9172800183296204
0.295257322,0,0,1.6304513216018677,0,0,0.5350799560546875
0.296264308,0,0,1.3479355573654175,0,0,0.9937199950218201
0.297267276,0,0,1.3742717504501343,0,0,0.8408399820327759
0.298293558,0,0,1.2258312702178955,0,0,1.1466000080108643
0.2992786,0,0,1.3335703611373901,0,0,0.611519992351532
0.300264919,0,0,1.4101848602294922,0,0,0.611519992351532
0.301250202,0,0,1.5107412338256836,0,0,0.9172800183296204
0.302262077,0,0,1.6136919260025024,0,0,0.9172800183296204
0.303255989,0,0,1.5275006294250488,0,0,0.2293200045824051
0.304248624,0,0,1.4197616577148438,0,0,1.1466000080108643
0.305245647,0,0,1.6735470294952393,0,0,1.2994799613952637
0.306248263,0,0,1.3694833517074585,0,0,0.611519992351532
0.307264341,0,0,1.3742717504501343,0,0,0.7644000053405762
0.308244068,0,0,1.2449848651885986,0,0,1.070159912109375
0.309271647,0,0,1.455674648284912,0,0,0.7644000053405762
0.310314151,0,0,1.460463047027588,0,0,1.070159912109375
0.311284748,0,0,1.53707754611969,0,0,0.9937199950218201
0.312304271,0,0,1.6136919260025024,0,0,0.9172800183296204
0.313287573,0,0,1.525106430053711,0,0,0.3822000026702881
0.314281188,0,0,1.3742717504501343,0,0,0.9172800183296204
0.315266804,0,0,1.7262194156646729,0,0,1.070159912109375
0.316257661,0,0,1.434126853942871,0,0,0.8408399820327759
0.317294443,0,0,1.3623007535934448,0,0,0.4586400091648102
0.318493167,0,0,1.3311761617660522,0,0,0.8408399820327759
0.319278916,0,0,1.3934253454208374,0,0,0.6879600286483765
0.320314105,0,0,1.3670891523361206,0,0,0.8408399820327759
0.321299795,0,0,1.37906014919281,0,0,0.9172800183296204
0.322303355,0,0,1.6065093278884888,0,0,0.8408399820327759
0.32337234,0,0,1.53707754611969,0,0,0.611519992351532
0.324297309,0,0,1.3838485479354858,0,0,0.5350799560546875
0.325265685,0,0,1.6328455209732056,0,0,0.5350799560546875
0.326280504,0,0,1.4772224426269531,0,0,0.7644000053405762
0.327294249,0,0,1.3192051649093628,0,0,0
0.328292457,0,0,1.3311761617660522,0,0,0.7644000053405762
0.329290796,0,0,1.2665326595306396,0,0,1.2994799613952637
0.330267152,0,0,1.381454348564148,0,0,0.6879600286483765
0.331243361,0,0,1.3862427473068237,0,0,0.9172800183296204
0.332247718,0,0,1.5634137392044067,0,0,1.070159912109375
0.33324387,0,0,1.5921441316604614,0,0,1.1466000080108643
0.334408206,0,0,1.3551181554794312,0,0,0.305759996175766
0.335261213,0,0,1.6855180263519287,0,0,0.8408399820327759
0.336234107,0,0,1.6352397203445435,0,0,0.5350799560546875
0.337228204,0,0,1.316810965538025,0,0,1.2994799613952637
0.338227394,0,0,1.3742717504501343,0,0,0.611519992351532
0.339229306,0,0,1.3096283674240112,0,0,1.1466000080108643
0.340229218,0,0,1.4508862495422363,0,0,0.611519992351532
0.341228149,0,0,1.37906014919281,0,0,0.9172800183296204
0.342226987,0,0,1.4891934394836426,0,0,0.6879600286483765
0.343230306,0,0,1.6112977266311646,0,0,0.9937199950218201
0.344229033,0,0,1.455674648284912,0,0,0.611519992351532
0.345228982,0,0,1.41257905960083,0,0,0.7644000053405762
0.346226246,0,0,1.5969325304031372,0,0,0.7644000053405762
0.347230103,0,0,1.2880805730819702,0,0,1.070159912109375
0.348229867,0,0,1.3718775510787964,0,0,0.6879600286483765
0.349229501,0,0,1.2114660739898682,0,0,0.9937199950218201
0.350230172,0,0,1.3910311460494995,0,0,0.611519992351532
0.351228307,0,0,1.3862427473068237,0,0,0.9172800183296204
0.35222933,0,0,1.4053963422775269,0,0,0.9172800183296204
0.353228872,0,0,1.6496049165725708,0,0,0.5350799560546875
0.354226784,0,0,1.4987702369689941,0,0,0.8408399820327759
0.355229844,0,0,1.4077905416488647,0,0,0.9172800183296204
0.356230219,0,0,1.800439715385437,0,0,0.9937199950218201
0.357227742,0,0,1.4844050407409668,0,0,0.7644000053405762
0.358233284,0,0,1.4437036514282227,0,0,0.7644000053405762
0.359266973,0,0,1.2545616626739502,0,0,0.9172800183296204
0.360474345,0,0,1.3263877630233765,0,0,0.6879600286483765
0.361295445,0,0,1.3431471586227417,0,0,1.1466000080108643
0.362257321,0,0,1.3311761617660522,0,0,20.409481048583984
0.363245381,0,0,1.5729905366897583,0,0,0.7644000053405762
0.364230534,0,0,1.50355863571167,0,0,0.9172800183296204
0.365224076,0,0,1.3407529592514038,0,0,0.7644000053405762
0.366223655,0,0,1.6280571222305298,0,0,0
0.367226363,0,0,1.400607943534851,0,0,0.611519992351532
0.368225053,0,0,1.3215993642807007,0,0,0.6879600286483765
0.369235132,0,0,1.3718775510787964,0,0,0.8408399820327759
0.370224581,0,0,1.3072341680526733,0,0,1.1466000080108643
0.37122516,0,0,1.400607943534851,0,0,0.611519992351532
0.372224368,0,0,1.400607943534851,0,0,0.6879600286483765
0.373223743,0,0,1.5466543436050415,0,0,0.7644000053405762
0.374223896,0,0,1.5969325304031372,0,0,1.6816799640655518
0.375224067,0,0,1.3838485479354858,0,0,0.6879600286483765
0.37622335,0,0,1.647210717201233,0,0,0.7644000053405762
0.377223817,0,0,1.5825673341751099,0,0,1.070159912109375
0.378223729,0,0,1.3623007535934448,0,0,1.452359914779663
0.379233882,0,0,1.41257905960083,0,0,0.611519992351532
0.380225072,0,0,1.3120225667953491,0,0,1.070159912109375
0.381223781,0,0,1.4676456451416016,0,0,0.8408399820327759
0.382223693,0,0,1.3646949529647827,0,0,0.8408399820327759
0.383223957,0,0,1.5179238319396973,0,0,0.9937199950218201
0.384223776,0,0,1.5753847360610962,0,0,1.452359914779663
0.385223447,0,0,1.3862427473068237,0,0,0.5350799560546875
0.386223767,0,0,1.5322890281677246,0,0,0.7644000053405762
0.387223994,0,0,1.6639702320098877,0,0,0.9172800183296204
0.388223906,0,0,1.3455413579940796,0,0,0.8408399820327759
0.389223633,0,0,1.3479355573654175,0,0,0.5350799560546875
0.390225026,0,0,1.2306196689605713,0,0,1.375920057296753
0.391224364,0,0,1.3455413579940796,0,0,0.5350799560546875
0.392223499,0,0,1.3072341680526733,0,0,0.9172800183296204
0.393223652,0,0,1.3551181554794312,0,0,1.070159912109375
0.394224045,0,0,1.5394717454910278,0,0,0.6879600286483765
0.395225642,0,0,1.5179238319396973,0,0,0
0.396228017,0,0,1.4221558570861816,0,0,0.7644000053405762
0.397226281,0,0,1.742978811264038,0,0,1.1466000080108643
0.398253434,0,0,1.3431471586227417,0,0,0.8408399820327759
0.399261679,0,0,1.292868971824646,0,0,0.6879600286483765
0.400227351,0,0,1.2832920551300049,0,0,0.7644000053405762
0.401226263,0,0,1.4484920501708984,0,0,0.8408399820327759
0.402226268,0,0,1.403002142906189,0,0,0.8408399820327759
0.403226902,0,0,1.4413094520568848,0,0,0.9937199950218201
0.404225684,0,0,1.5873557329177856,0,0,0.4586400091648102
0.405226022,0,0,1.5514427423477173,0,0,0.2293200045824051
0.406226212,0,0,1.3431471586227417,0,0,0.6879600286483765
0.407226884,0,0,1.7573440074920654,0,0,0.9172800183296204
0.408225203,0,0,1.4437036514282227,0,0,0.5350799560546875
0.409244059,0,0,1.2976573705673218,0,0,0.9937199950218201
0.410239009,0,0,1.2880805730819702,0,0,0.7644000053405762
0.411226439,0,0,1.381454348564148,0,0,0.9172800183296204
0.412224926,0,0,1.4437036514282227,0,0,0.7644000053405762
0.413223745,0,0,1.280897855758667,0,0,0.6879600286483765
0.414223898,0,0,1.5179238319396973,0,0,0.8408399820327759
0.415223717,0,0,1.5490485429763794,0,0,0.7644000053405762
0.416224333,0,0,1.3503297567367554,0,0,1.1466000080108643
0.417223597,0,0,1.6543933153152466,0,0,0.9937199950218201
0.418223861,0,0,1.5275006294250488,0,0,0.611519992351532
0.419224329,0,0,1.3335703611373901,0,0,1.452359914779663
0.420223204,0,0,1.3982137441635132,0,0,0.611519992351532
0.421223634,0,0,1.292868971824646,0,0,1.1466000080108643
0.422223028,0,0,1.4413094520568848,0,0,0.5350799560546875
0.42322507,0,0,1.2689268589019775,0,0,0.7644000053405762
0.424230741,0,0,1.4724340438842773,0,0,1.070159912109375
0.425258023,0,0,1.5753847360610962,0,0,1.452359914779663
0.426265139,0,0,1.400607943534851,0,0,1.070159912109375
0.42723144,0,0,1.6112977266311646,0,0,0.611519992351532
0.428227204,0,0,1.5945383310317993,0,0,0.8408399820327759
0.429226598,0,0,1.3455413579940796,0,0,-37.68491744995117
0.430226195,0,0,1.3646949529647827,0,0,0.5350799560546875
0.431228848,0,0,1.2713210582733154,0,0,1.1466000080108643
0.432226167,0,0,1.4269442558288574,0,0,0.5350799560546875
0.433237987,0,0,1.338358759880066,0,0,0.6879600286483765
0.434228436,0,0,1.4652514457702637,0,0,0.9937199950218201
0.435226996,0,0,1.6041151285171509,0,0,0.9172800183296204
0.436225501,0,0,1.4317326545715332,0,0,0.4586400091648102
0.437225987,0,0,1.460463047027588,0,0,0.7644000053405762
0.438226195,0,0,1.6089035272598267,0,0,0.6879600286483765
0.439226904,0,0,1.3862427473068237,0,0,0.6879600286483765
0.440225538,0,0,1.3479355573654175,0,0,0.6879600286483765
0.441226284,0,0,1.192312479019165,0,0,1.1466000080108643
0.442226362,0,0,1.37906014919281,0,0,0.6879600286483765
0.443243885,0,0,1.3742717504501343,0,0,0.7644000053405762
0.444228557,0,0,1.436521053314209,0,0,0.7644000053405762
0.445226728,0,0,1.525106430053711,0,0,0.5350799560546875
0.446226381,0,0,1.5610195398330688,0,0,0.4586400091648102
0.447226812,0,0,1.4317326545715332,0,0,0.7644000053405762
0.448225576,0,0,1.745373010635376,0,0,1.1466000080108643
0.449226062,0,0,1.3431471586227417,0,0,0.8408399820327759
0.450226252,0,0,1.2689268589019775,0,0,0.9937199950218201
0.45122683,0,0,1.2186486721038818,0,0,0.8408399820327759
0.452225631,0,0,1.3551181554794312,0,0,0.6879600286483765
0.453226043,0,0,1.4101848602294922,0,0,1.070159912109375
0.454226344,0,0,1.3934253454208374,0,0,0.611519992351532
0.455226997,0,0,1.4963760375976563,0,0,0.9172800183296204
0.456225817,0,0,1.5298948287963867,0,0,1.1466000080108643
0.457226229,0,0,1.3048399686813354,0,0,0.9172800183296204
0.458225937,0,0,1.6424223184585571,0,0,0.7644000053405762
0.459226923,0,0,1.4101848602294922,0,0,0.611519992351532
0.460231354,0,0,1.2401964664459229,0,0,0.9172800183296204
0.461226322,0,0,1.2282254695892334,0,0,0.6879600286483765
0.462226049,0,0,1.359906554222107,0,0,0.611519992351532
0.463227387,0,0,1.4293384552001953,0,0,1.070159912109375
0.464226447,0,0,1.37906014919281,0,0,0.8408399820327759
0.465226063,0,0,1.5083470344543457,0,0,0.9172800183296204
0.466225697,0,0,1.5418659448623657,0,0,0.9937199950218201
0.46723185,0,0,1.3120225667953491,0,0,0.3822000026702881
0.468230373,0,0,1.623268723487854,0,0,0.9172800183296204
0.469225896,0,0,1.5897499322891235,0,0,0.9172800183296204
0.470226197,0,0,1.335964560508728,0,0,1.223039984703064
0.471227128,0,0,1.3742717504501343,0,0,0.611519992351532
0.472224966,0,0,1.2952631711959839,0,0,0.7644000053405762
0.473225693,0,0,1.381454348564148,0,0,0.6879600286483765
0.474225808,0,0,1.3527239561080933,0,0,0.7644000053405762
0.475237387,0,0,1.5203180313110352,0,0,0.7644000053405762
0.476227892,0,0,1.5394717454910278,0,0,1.223039984703064
0.477226563,0,0,1.434126853942871,0,0,0.4586400091648102
0.478226086,0,0,1.6065093278884888,0,0,1.070159912109375
0.479227035,0,0,1.4891934394836426,0,0,0.9172800183296204
0.480225855,0,0,1.3503297567367554,0,0,1.070159912109375
0.481226137,0,0,1.3982137441635132,0,0,0.611519992351532
0.482226216,0,0,1.2521674633026123,0,0,1.223039984703064
0.483226832,0,0,1.4963760375976563,0,0,0.6879600286483765
0.4842253,0,0,1.4293384552001953,0,0,0.7644000053405762
0.485226119,0,0,1.4532804489135742,0,0,1.223039984703064
0.486226105,0,0,1.625662922859192,0,0,1.070159912109375
0.487226073,0,0,1.4532804489135742,0,0,0.2293200045824051
0.488225392,0,0,1.338358759880066,0,0,0.7644000053405762
0.489225971,0,0,1.6496049165725708,0,0,1.2994799613952637
0.49022592,0,0,1.3718775510787964,0,0,0.7644000053405762
0.491226851,0,0,1.4748282432556152,0,0,0.6879600286483765
0.492225689,0,0,1.3910311460494995,0,0,0.9937199950218201
0.493226138,0,0,1.45806884765625,0,0,0.9937199950218201
0.494226254,0,0,1.3479355573654175,0,0,0.6879600286483765
0.495226759,0,0,1.400607943534851,0,0,0.7644000053405762
0.496225504,0,0,1.5083470344543457,0,0,0.611519992351532
0.49723886,0,0,1.4532804489135742,0,0,0.611519992351532
0.498227476,0,0,1.338358759880066,0,0,0.611519992351532
0.49922774,0,0,1.6112977266311646,0,0,0.9937199950218201
0.500226189,0,0,1.5466543436050415,0,0,0.611519992351532
0.501226009,0,0,1.3718775510787964,0,0,0.9937199950218201
0.502226069,0,0,1.290474772453308,0,0,0.6879600286483765
0.503226796,0,0,1.3934253454208374,0,0,1.1466000080108643
0.50422556,0,0,1.4508862495422363,0,0,0.8408399820327759
0.505225509,0,0,1.4173674583435059,0,0,0.7644000053405762
0.50622618,0,0,1.482010841369629,0,0,0.8408399820327759
0.507226889,0,0,1.4915876388549805,0,0,0.6879600286483765
0.508225764,0,0,1.3718775510787964,0,0,0.9172800183296204
0.509225602,0,0,1.766920804977417,0,0,0.9172800183296204
0.510226199,0,0,1.5107412338256836,0,0,0.3822000026702881
0.511226778,0,0,1.2856862545013428,0,0,1.1466000080108643
0.512225542,0,0,1.3431471586227417,0,0,0.9172800183296204
0.513254398,0,0,1.256955862045288,0,0,1.070159912109375
0.514228385,0,0,1.4508862495422363,0,0,0.7644000053405762
0.515227056,0,0,1.4053963422775269,0,0,0.3822000026702881
0.516225486,0,0,1.460463047027588,0,0,0.9937199950218201
0.517225954,0,0,1.5705963373184204,0,0,0.8408399820327759
0.51822594,0,0,1.4844050407409668,0,0,0.5350799560546875
0.519226834,0,0,1.6376339197158813,0,0,0.8408399820327759
0.520225616,0,0,1.6041151285171509,0,0,0.6879600286483765
0.521226047,0,0,1.359906554222107,0,0,1.1466000080108643
0.522225996,0,0,1.314416766166687,0,0,0.6879600286483765
0.523234408,0,0,1.316810965538025,0,0,1.223039984703064
0.52422608,0,0,1.436521053314209,0,0,0.611519992351532
0.525226547,0,0,1.3479355573654175,0,0,0.8408399820327759
0.526226607,0,0,1.414973258972168,0,0,0.7644000053405762
0.527226686,0,0,1.556231141090393,0,0,0.8408399820327759
0.528225728,0,0,1.4508862495422363,0,0,0.5350799560546875
0.529226362,0,0,1.5849615335464478,0,0,0.611519992351532
0.530225959,0,0,1.6927006244659424,0,0,0.9172800183296204
0.53122652,0,0,1.37906014919281,0,0,0.9172800183296204
0.532226043,0,0,1.3766659498214722,0,0,0.5350799560546875
0.53322627,0,0,1.3024457693099976,0,0,0.9172800183296204
0.534226589,0,0,1.5179238319396973,0,0,0.7644000053405762
0.535227038,0,0,1.501164436340332,0,0,0.6879600286483765
0.536225895,0,0,1.4724340438842773,0,0,0.9937199950218201
0.537226418,0,0,1.577778935432434,0,0,0.9172800183296204
0.538226293,0,0,1.4389152526855469,0,0,0.3822000026702881
0.539227113,0,0,1.3646949529647827,0,0,0.9937199950218201
0.540228377,0,0,1.6687586307525635,0,0,0.9172800183296204
0.541226567,0,0,1.3958195447921753,0,0,0.9937199950218201
0.542226479,0,0,1.4053963422775269,0,0,0.5350799560546875
0.543227354,0,0,1.292868971824646,0,0,0.9172800183296204
0.544225414,0,0,1.359906554222107,0,0,0.9172800183296204
0.5452264,0,0,1.3479355573654175,0,0,0.9172800183296204
0.546226275,0,0,1.400607943534851,0,0,0.7644000053405762
0.547227465,0,0,1.5945383310317993,0,0,0.7644000053405762
0.548226155,0,0,1.623268723487854,0,0,1.452359914779663
0.549226234,0,0,1.482010841369629,0,0,0.9937199950218201
0.550226201,0,0,1.7142484188079834,0,0,0.9937199950218201
0.551226965,0,0,1.4317326545715332,0,0,0.5350799560546875
0.552225433,0,0,1.359906554222107,0,0,0.9172800183296204
0.553226438,0,0,1.3192051649093628,0,0,0.9172800183296204
0.554226276,0,0,1.2880805730819702,0,0,0.9172800183296204
0.555227095,0,0,1.3862427473068237,0,0,0.611519992351532
0.556225711,0,0,1.4173674583435059,0,0,0.7644000053405762
0.557226382,0,0,1.5418659448623657,0,0,0.9172800183296204
0.558226165,0,0,1.5322890281677246,0,0,1.375920057296753
0.559227077,0,0,1.2306196689605713,0,0,0.611519992351532
0.560223063,0,0,1.644816517829895,0,0,0.8408399820327759
0.561223734,0,0,1.5394717454910278,0,0,0.9172800183296204
0.562223702,0,0,1.3886369466781616,0,0,1.2994799613952637
0.563254539,0,0,1.3862427473068237,0,0,0.7644000053405762
0.564229859,0,0,1.2641384601593018,0,0,1.1466000080108643
0.565226475,0,0,1.4413094520568848,0,0,0.6879600286483765
0.566256961,0,0,1.455674648284912,0,0,0.6879600286483765
0.567737033,0,0,1.5921441316604614,0,0,0.9172800183296204
0.5682471,0,0,1.678335428237915,0,0,1.2994799613952637
0.569469009,0,0,1.4724340438842773,0,0,0.3822000026702881
0.57022961,0,0,1.558625340461731,0,0,0.8408399820327759
0.571235133,0,0,1.599326729774475,0,0,0.7644000053405762
0.57222573,0,0,1.2521674633026123,0,0,1.223039984703064
0.573225457,0,0,1.3215993642807007,0,0,0.6879600286483765
0.574225314,0,0,1.1971008777618408,0,0,1.070159912109375
0.5752258,0,0,1.4413094520568848,0,0,0.4586400091648102
0.576221805,0,0,1.403002142906189,0,0,0.9937199950218201
0.577222309,0,0,1.4508862495422363,0,0,1.070159912109375
0.578222462,0,0,1.5418659448623657,0,0,1.2994799613952637
0.579224448,0,0,1.4484920501708984,0,0,0.5350799560546875
0.580236193,0,0,1.479616641998291,0,0,0.8408399820327759
0.581226254,0,0,1.6759412288665771,0,0,0.9172800183296204
0.582491366,0,0,1.3958195447921753,0,0,0.8408399820327759
0.583227763,0,0,1.4413094520568848,0,0,0.8408399820327759
0.584224768,0,0,1.2832920551300049,0,0,0.9172800183296204
0.58522531,0,0,1.4484920501708984,0,0,0.6879600286483765
0.586225036,0,0,1.436521053314209,0,0,0.6879600286483765
0.587226208,0,0,1.4484920501708984,0,0,1.1466000080108643
0.588224564,0,0,1.5538369417190552,0,0,0.6879600286483765
0.589225032,0,0,1.5107412338256836,0,0,0.2293200045824051
0.590225111,0,0,1.3982137441635132,0,0,0.9937199950218201
0.591226041,0,0,1.800439715385437,0,0,0.9172800183296204
0.592221676,0,0,1.5107412338256836,0,0,0.611519992351532
0.593221866,0,0,1.338358759880066,0,0,0.6879600286483765
0.594222333,0,0,1.3958195447921753,0,0,1.070159912109375
0.595224597,0,0,1.316810965538025,0,0,0.9937199950218201
0.59622538,0,0,1.4053963422775269,0,0,0.5350799560546875
0.597224514,0,0,1.4197616577148438,0,0,0.7644000053405762
0.598225074,0,0,1.5658079385757446,0,0,0.9937199950218201
0.599226097,0,0,1.599326729774475,0,0,0.5350799560546875
0.600221806,0,0,1.4077905416488647,0,0,0.7644000053405762
0.601222292,0,0,1.6280571222305298,0,0,0.9937199950218201
0.602222371,0,0,1.5610195398330688,0,0,0.5350799560546875
0.60322469,0,0,1.4389152526855469,0,0,0.9937199950218201
0.604379026,0,0,1.3551181554794312,0,0,0.8408399820327759
0.605227385,0,0,1.2952631711959839,0,0,0.9937199950218201
0.606225278,0,0,1.45806884765625,0,0,0.6879600286483765
0.607225431,0,0,1.3766659498214722,0,0,0.8408399820327759
0.608225028,0,0,1.400607943534851,0,0,0.7644000053405762
0.609227996,0,0,1.4772224426269531,0,0,1.1466000080108643
0.610225593,0,0,1.4389152526855469,0,0,0.9172800183296204
0.611229153,0,0,1.6424223184585571,0,0,0.6879600286483765
0.612226417,0,0,1.6831238269805908,0,0,1.070159912109375
0.613225255,0,0,1.3910311460494995,0,0,1.1466000080108643
0.614225019,0,0,1.4413094520568848,0,0,0.7644000053405762
0.61522495,0,0,1.292868971824646,0,0,1.070159912109375
0.616222307,0,0,1.4460978507995605,0,0,0.8408399820327759
0.617222182,0,0,1.4077905416488647,0,0,0.6879600286483765
0.618221816,0,0,1.4915876388549805,0,0,0.8408399820327759
0.619224524,0,0,1.5825673341751099,0,0,1.070159912109375
0.620225955,0,0,1.4293384552001953,0,0,0.4586400091648102
0.621225126,0,0,1.455674648284912,0,0,0.6879600286483765
0.622224983,0,0,1.6376339197158813,0,0,0.5350799560546875
0.623225302,0,0,1.3263877630233765,0,0,1.375920057296753
0.624224992,0,0,1.4389152526855469,0,0,0.611519992351532
0.625227164,0,0,1.2832920551300049,0,0,1.1466000080108643
0.626225409,0,0,1.4389152526855469,0,0,0.9937199950218201
0.627394263,0,0,1.414973258972168,0,0,0.8408399820327759
0.628225826,0,0,1.4437036514282227,0,0,0.7644000053405762
0.629225293,0,0,1.5945383310317993,0,0,1.070159912109375
0.630225039,0,0,1.5394717454910278,0,0,0.7644000053405762
0.631226081,0,0,1.4173674583435059,0,0,0.6879600286483765
0.632224307,0,0,1.7884687185287476,0,0,1.070159912109375
0.633225294,0,0,1.400607943534851,0,0,0.611519992351532
0.635497855,0,0,1.2952631711959839,0,0,0.611519992351532
0.635665556,0,0,1.2952631711959839,0,0,0.611519992351532
0.636241215,0,0,1.3910311460494995,0,0,0.8408399820327759
0.637262775,0,0,1.381454348564148,0,0,0.6879600286483765
0.638227039,0,0,1.357512354850769,0,0,0.5350799560546875
0.639225562,0,0,1.5897499322891235,0,0,0.9172800183296204
0.64024453,0,0,1.53707754611969,0,0,0.6879600286483765
0.641228016,0,0,1.3910311460494995,0,0,0.7644000053405762
0.64223141,0,0,1.7262194156646729,0,0,1.070159912109375
0.643227618,0,0,1.5179238319396973,0,0,0.7644000053405762
0.644225752,0,0,1.3670891523361206,0,0,0.8408399820327759
0.645229405,0,0,1.3527239561080933,0,0,0.8408399820327759
0.646226058,0,0,1.3838485479354858,0,0,0.7644000053405762
0.647226822,0,0,1.50355863571167,0,0,0.6879600286483765
0.64824466,0,0,1.3623007535934448,0,0,0.6879600286483765
0.649259238,0,0,1.5107412338256836,0,0,0.7644000053405762
0.650227855,0,0,1.5442601442337036,0,0,1.223039984703064
0.651226767,0,0,1.434126853942871,0,0,0.5350799560546875
0.652227345,0,0,1.625662922859192,0,0,0.9172800183296204
0.653226072,0,0,1.5322890281677246,0,0,0.9172800183296204
0.654225799,0,0,1.3479355573654175,0,0,1.2994799613952637
0.655242952,0,0,1.3215993642807007,0,0,0.8408399820327759
0.656226123,0,0,1.2449848651885986,0,0,1.2994799613952637
0.657226036,0,0,1.4844050407409668,0,0,0.611519992351532
0.658226022,0,0,1.4413094520568848,0,0,0.611519992351532
0.659226378,0,0,1.45806884765625,0,0,0.8408399820327759
0.660225457,0,0,1.482010841369629,0,0,1.1466000080108643
0.661226165,0,0,1.3958195447921753,0,0,0.611519992351532
0.662225818,0,0,1.4867992401123047,0,0,0.9937199950218201
0.663227027,0,0,1.644816517829895,0,0,0.9172800183296204
0.664225809,0,0,1.45806884765625,0,0,1.070159912109375
0.665226184,0,0,1.4389152526855469,0,0,0.611519992351532
0.666225948,0,0,1.2282254695892334,0,0,0.9937199950218201
0.667228231,0,0,1.3718775510787964,0,0,0.4586400091648102
0.668225643,0,0,1.381454348564148,0,0,0.8408399820327759
0.66922587,0,0,1.5107412338256836,0,0,1.1466000080108643
0.670226078,0,0,1.7357962131500244,0,0,0.9937199950218201
0.671244064,0,0,1.50355863571167,0,0,0.2293200045824051
0.672228606,0,0,1.37906014919281,0,0,0.611519992351532
0.673226407,0,0,1.6208745241165161,0,0,1.223039984703064
0.674226041,0,0,1.338358759880066,0,0,0.9937199950218201
0.675226935,0,0,1.2832920551300049,0,0,0.8408399820327759
0.676225236,0,0,1.2018892765045166,0,0,0.9937199950218201
0.677226203,0,0,1.3623007535934448,0,0,0.7644000053405762
0.678225708,0,0,1.338358759880066,0,0,0.9172800183296204
0.679226805,0,0,1.3934253454208374,0,0,0.6879600286483765
0.680225514,0,0,1.525106430053711,0,0,0.9172800183296204
0.681225685,0,0,1.5107412338256836,0,0,0.3822000026702881
0.682225745,0,0,1.479616641998291,0,0,0.7644000053405762
0.683227028,0,0,1.7357962131500244,0,0,0.9172800183296204
0.684225662,0,0,1.4197616577148438,0,0,0.6879600286483765
0.685225944,0,0,1.3910311460494995,0,0,0.9937199950218201
0.686226023,0,0,1.3551181554794312,0,0,1.223039984703064
0.687226324,0,0,1.3335703611373901,0,0,0.6879600286483765
0.688226218,0,0,1.4173674583435059,0,0,0.611519992351532
0.689226204,0,0,1.4197616577148438,0,0,0.8408399820327759
0.69022606,0,0,1.5083470344543457,0,0,0.6879600286483765
0.691226695,0,0,1.5083470344543457,0,0,0.9172800183296204
0.692225329,0,0,1.359906554222107,0,0,0.7644000053405762
0.693226112,0,0,1.623268723487854,0,0,1.1466000080108643
0.694226153,0,0,1.5466543436050415,0,0,0.5350799560546875
0.695226732,0,0,1.4077905416488647,0,0,0.9172800183296204
0.696225459,0,0,1.400607943534851,0,0,0.9172800183296204
0.697226093,0,0,1.2521674633026123,0,0,0.7644000053405762
0.698225913,0,0,1.414973258972168,0,0,0.5350799560546875
0.699226843,0,0,1.3215993642807007,0,0,0.611519992351532
0.700225478,0,0,1.4173674583435059,0,0,0.9172800183296204
0.701226297,0,0,1.5466543436050415,0,0,1.452359914779663
0.702225987,0,0,1.4437036514282227,0,0,0.6879600286483765
0.70322651,0,0,1.5682021379470825,0,0,0.8408399820327759
0.704225719,0,0,1.6328455209732056,0,0,0.611519992351532
0.705226779,0,0,1.3287819623947144,0,0,0.9937199950218201
0.706226672,0,0,1.3862427473068237,0,0,0.611519992351532
0.707226992,0,0,1.1779472827911377,0,0,0.8408399820327759
0.70822546,0,0,1.3551181554794312,0,0,0.9172800183296204
0.709226131,0,0,1.359906554222107,0,0,0.611519992351532
0.71022608,0,0,1.4173674583435059,0,0,0.611519992351532
0.711226825,0,0,1.5442601442337036,0,0,1.2994799613952637
0.712225719,0,0,1.4939818382263184,0,0,0.611519992351532
0.71322602,0,0,1.455674648284912,0,0,0.611519992351532
0.714226321,0,0,1.6519991159439087,0,0,0.7644000053405762
0.715226715,0,0,1.359906554222107,0,0,1.452359914779663
0.716225941,0,0,1.400607943534851,0,0,0.611519992351532
0.71722615,0,0,1.2497732639312744,0,0,0.6879600286483765
0.718226284,0,0,1.434126853942871,0,0,0.6879600286483765
0.719226863,0,0,1.3527239561080933,0,0,0.6879600286483765
0.720225627,0,0,1.414973258972168,0,0,0.6879600286483765
0.721225835,0,0,1.6112977266311646,0,0,0.611519992351532
0.72222597,0,0,1.5059528350830078,0,0,0.5350799560546875
0.723227141,0,0,1.3766659498214722,0,0,0.7644000053405762
0.72422559,0,0,1.7597382068634033,0,0,1.1466000080108643
0.72522565,0,0,1.4460978507995605,0,0,0.9172800183296204
0.726226229,0,0,1.45806884765625,0,0,0.3822000026702881
0.727226586,0,0,1.3048399686813354,0,0,0.9172800183296204
0.728225683,0,0,1.3718775510787964,0,0,0.8408399820327759
0.729226132,0,0,1.4197616577148438,0,0,0.9172800183296204
0.730226081,0,0,1.3694833517074585,0,0,0.7644000053405762
0.731226715,0,0,1.5322890281677246,0,0,0.5350799560546875
0.732225498,0,0,1.4987702369689941,0,0,0.5350799560546875
0.733226132,0,0,1.3335703611373901,0,0,0.9172800183296204
0.7342261,0,0,1.7046716213226318,0,0,1.223039984703064
0.735226827,0,0,1.4891934394836426,0,0,0.9172800183296204
0.736225702,0,0,1.2761094570159912,0,0,0.8408399820327759
0.737226132,0,0,1.2234370708465576,0,0,0.6879600286483765
0.7382261,0,0,1.3215993642807007,0,0,0.9937199950218201
0.73922692,0,0,1.3646949529647827,0,0,0.8408399820327759
0.740225776,0,0,1.3694833517074585,0,0,0.6879600286483765
0.74122591,0,0,1.4891934394836426,0,0,0.7644000053405762
0.742226063,0,0,1.482010841369629,0,0,1.5288000106811523
0.743226272,0,0,1.3335703611373901,0,0,0.4586400091648102
0.744225461,0,0,1.577778935432434,0,0,0.611519992351532
0.745226022,0,0,1.5729905366897583,0,0,0.5350799560546875
0.746225545,0,0,1.338358759880066,0,0,0.9172800183296204
0.747226513,0,0,1.4173674583435059,0,0,1.070159912109375
0.748225684,0,0,1.2306196689605713,0,0,0.8408399820327759
0.749226077,0,0,1.3958195447921753,0,0,0.5350799560546875
0.750226101,0,0,1.3072341680526733,0,0,1.070159912109375
0.751228031,0,0,1.4676456451416016,0,0,0.5350799560546875
0.752226406,0,0,1.5682021379470825,0,0,1.2994799613952637
0.753241577,0,0,1.4269442558288574,0,0,0.2293200045824051
0.75422699,0,0,1.455674648284912,0,0,0.9937199950218201
0.755226828,0,0,1.5897499322891235,0,0,1.1466000080108643
0.756225925,0,0,1.3311761617660522,0,0,0.8408399820327759
0.757226096,0,0,1.3958195447921753,0,0,0.9172800183296204
0.758226379,0,0,1.3287819623947144,0,0,1.375920057296753
0.759226921,0,0,1.53707754611969,0,0,0.8408399820327759
0.760229555,0,0,1.3862427473068237,0,0,0.611519992351532
0.761226152,0,0,1.4508862495422363,0,0,1.1466000080108643
0.762226101,0,0,1.656787633895874,0,0,0.8408399820327759
0.763227013,0,0,1.5514427423477173,0,0,0.5350799560546875
0.764224796,0,0,1.4389152526855469,0,0,0.8408399820327759
0.765226097,0,0,1.6376339197158813,0,0,0.9937199950218201
0.766226176,0,0,1.3934253454208374,0,0,0.4586400091648102
0.767226736,0,0,1.3766659498214722,0,0,0.8408399820327759
0.76822574,0,0,1.3215993642807007,0,0,0.9937199950218201
0.769226134,0,0,1.3958195447921753,0,0,0.7644000053405762
0.770225935,0,0,1.2761094570159912,0,0,1.070159912109375
0.771226884,0,0,1.4077905416488647,0,0,0.9172800183296204
0.772225518,0,0,1.5969325304031372,0,0,0.611519992351532
0.773226116,0,0,1.5729905366897583,0,0,0.5350799560546875
0.774226065,0,0,1.3958195447921753,0,0,0.9937199950218201
0.775226495,0,0,1.7405846118927002,0,0,1.070159912109375
0.776225963,0,0,1.4700398445129395,0,0,0.4586400091648102
0.777226246,0,0,1.357512354850769,0,0,0.8408399820327759
0.778225991,0,0,1.3527239561080933,0,0,0.6879600286483765
0.779226625,0,0,1.2880805730819702,0,0,1.070159912109375
0.780225352,0,0,1.3263877630233765,0,0,0.9172800183296204
0.781226098,0,0,1.3215993642807007,0,0,0.9937199950218201
0.782226213,0,0,1.5538369417190552,0,0,0.7644000053405762
0.783227663,0,0,1.5442601442337036,0,0,0.9937199950218201
0.784226112,0,0,1.3623007535934448,0,0,0.7644000053405762
0.785226098,0,0,1.647210717201233,0,0,0.8408399820327759
0.786225751,0,0,1.5705963373184204,0,0,0.8408399820327759
0.787226126,0,0,1.3335703611373901,0,0,1.1466000080108643
0.788226056,0,0,1.3886369466781616,0,0,0.7644000053405762
0.78922558,0,0,1.2617442607879639,0,0,0.9937199950218201
0.790225677,0,0,1.4437036514282227,0,0,0.611519992351532
0.791226996,0,0,1.4389152526855469,0,0,0.5350799560546875
0.792225168,0,0,1.580173134803772,0,0,0.8408399820327759
0.793226191,0,0,1.6160861253738403,0,0,1.452359914779663
0.794226066,0,0,1.4867992401123047,0,0,0.611519992351532
0.795226793,0,0,1.4939818382263184,0,0,0.6879600286483765
0.79622552,0,0,1.7142484188079834,0,0,0.6879600286483765
0.797225895,0,0,1.4460978507995605,0,0,1.375920057296753
0.798226048,0,0,1.3886369466781616,0,0,0.7644000053405762
0.7992267,0,0,1.2665326595306396,0,0,0.9172800183296204
0.800225631,0,0,1.45806884765625,0,0,0.5350799560546875
0.801226173,0,0,1.3694833517074585,0,0,0.9937199950218201
0.802226103,0,0,1.4389152526855469,0,0,0.6879600286483765
0.80322696,0,0,1.5322890281677246,0,0,0.9937199950218201
0.804225428,0,0,1.5394717454910278,0,0,0.4586400091648102
0.805225914,0,0,1.5322890281677246,0,0,0.8408399820327759
0.806226178,0,0,1.680729627609253,0,0,0.6879600286483765
0.807226738,0,0,1.3694833517074585,0,0,0.9937199950218201
0.808225224,0,0,1.3551181554794312,0,0,0.611519992351532
0.809479873,0,0,1.3287819623947144,0,0,0.9172800183296204
0.810225715,0,0,1.4460978507995605,0,0,0.611519992351532
0.811234923,0,0,1.4460978507995605,0,0,0.8408399820327759
0.812224928,0,0,1.4652514457702637,0,0,0.9172800183296204
0.813223951,0,0,1.5634137392044067,0,0,0.611519992351532
0.814223586,0,0,1.522712230682373,0,0,0.2293200045824051
0.815223498,0,0,1.4437036514282227,0,0,0.6879600286483765
0.816223965,0,0,1.7357962131500244,0,0,0.9172800183296204
0.817229248,0,0,1.4460978507995605,0,0,0.8408399820327759
0.818223993,0,0,1.434126853942871,0,0,0.6879600286483765
0.819223794,0,0,1.3551181554794312,0,0,0.9172800183296204
0.82022404,0,0,1.3120225667953491,0,0,0.7644000053405762
0.821223581,0,0,1.403002142906189,0,0,0.9172800183296204
0.822223364,0,0,1.3862427473068237,0,0,0.8408399820327759
0.823225109,0,0,1.6160861253738403,0,0,0.7644000053405762
0.824226743,0,0,1.623268723487854,0,0,1.2994799613952637
0.825226156,0,0,1.3886369466781616,0,0,0.9172800183296204
0.826226271,0,0,1.6639702320098877,0,0,1.070159912109375
0.827227035,0,0,1.4987702369689941,0,0,0.6879600286483765
0.828225429,0,0,1.3239935636520386,0,0,0.9937199950218201
0.829225563,0,0,1.3096283674240112,0,0,0.7644000053405762
0.830225994,0,0,1.2880805730819702,0,0,1.1466000080108643
0.831226776,0,0,1.4700398445129395,0,0,0.9172800183296204
0.832225373,0,0,1.3742717504501343,0,0,0.9172800183296204
0.833225545,0,0,1.525106430053711,0,0,0.9937199950218201
0.834226272,0,0,1.5418659448623657,0,0,1.223039984703064
0.835226795,0,0,1.2976573705673218,0,0,0.6879600286483765
0.836225577,0,0,1.4891934394836426,0,0,0.9937199950218201
0.837226082,0,0,1.5322890281677246,0,0,0.5350799560546875
0.838225994,0,0,1.3048399686813354,0,0,1.070159912109375
0.83922698,0,0,1.4173674583435059,0,0,0.5350799560546875
0.840227504,0,0,1.237802267074585,0,0,1.1466000080108643
0.841226212,0,0,1.403002142906189,0,0,0.6879600286483765
0.842225865,0,0,1.403002142906189,0,0,0.6879600286483765
0.84322711,0,0,1.5155296325683594,0,0,0.9937199950218201
0.844225207,0,0,1.5753847360610962,0,0,1.070159912109375
0.845225971,0,0,1.4269442558288574,0,0,0.0764399990439415
0.846226032,0,0,1.4460978507995605,0,0,0.9172800183296204
0.84722687,0,0,1.6424223184585571,0,0,0.9937199950218201
0.848225485,0,0,1.403002142906189,0,0,1.1466000080108643
0.849225842,0,0,1.3239935636520386,0,0,0.5350799560546875
0.850226087,0,0,1.2761094570159912,0,0,0.9172800183296204
0.851226444,0,0,1.3862427473068237,0,0,0.6879600286483765
0.852225282,0,0,1.4053963422775269,0,0,0.6879600286483765
0.853226361,0,0,1.4413094520568848,0,0,0.8408399820327759
0.854225643,0,0,1.6328455209732056,0,0,0.611519992351532
0.855226648,0,0,1.5322890281677246,0,0,0.6879600286483765
0.856226227,0,0,1.3982137441635132,0,0,0.8408399820327759
0.857225991,0,0,1.625662922859192,0,0,0.7644000053405762
0.858226088,0,0,1.3886369466781616,0,0,0.8408399820327759
0.859226963,0,0,1.436521053314209,0,0,0.9937199950218201
0.860225912,0,0,1.2832920551300049,0,0,0.9172800183296204
0.861226176,0,0,1.3670891523361206,0,0,0.7644000053405762
0.862226144,0,0,1.41257905960083,0,0,0.9937199950218201
0.863226815,0,0,1.3311761617660522,0,0,0.6879600286483765
0.864225394,0,0,1.5322890281677246,0,0,0.6879600286483765
0.865226047,0,0,1.5394717454910278,0,0,0.4586400091648102
0.866226347,0,0,1.41257905960083,0,0,0.6879600286483765
0.867226408,0,0,1.7046716213226318,0,0,1.2994799613952637
0.868226653,0,0,1.4413094520568848,0,0,0.3822000026702881
0.86922575,0,0,1.3694833517074585,0,0,1.1466000080108643
0.870225811,0,0,1.3431471586227417,0,0,0.9172800183296204
0.871226945,0,0,1.3096283674240112,0,0,0.6879600286483765
0.872224968,0,0,1.4628572463989258,0,0,0.7644000053405762
0.873226102,0,0,1.2737152576446533,0,0,0.8408399820327759
0.874225885,0,0,1.3934253454208374,0,0,0.9937199950218201
0.875226945,0,0,1.4844050407409668,0,0,1.070159912109375
0.87622495,0,0,1.3766659498214722,0,0,0.9172800183296204
0.877226158,0,0,1.644816517829895,0,0,0.8408399820327759
0.878225996,0,0,1.5466543436050415,0,0,0.5350799560546875
0.879226982,0,0,1.403002142906189,0,0,0.9937199950218201
0.880225635,0,0,1.455674648284912,0,0,0.9172800183296204
0.881233844,0,0,1.3120225667953491,0,0,0.9172800183296204
0.882226682,0,0,1.4628572463989258,0,0,0.611519992351532
0.883226816,0,0,1.4317326545715332,0,0,0.7644000053405762
0.884225487,0,0,1.4748282432556152,0,0,0.611519992351532
0.885225844,0,0,1.6400281190872192,0,0,1.2994799613952637
0.886226034,0,0,1.5203180313110352,0,0,0.6879600286483765
0.887226742,0,0,1.5155296325683594,0,0,0.611519992351532
0.888225525,0,0,1.6184803247451782,0,0,0.611519992351532
0.889226048,0,0,1.3455413579940796,0,0,1.223039984703064
0.890226182,0,0,1.4987702369689941,0,0,0.4586400091648102
0.891226965,0,0,1.278503656387329,0,0,1.223039984703064
0.892225395,0,0,1.4508862495422363,0,0,0.8408399820327759
0.893226159,0,0,1.403002142906189,0,0,0.7644000053405762
0.894225645,0,0,1.4772224426269531,0,0,1.070159912109375
0.895226761,0,0,1.6160861253738403,0,0,1.070159912109375
0.896225395,0,0,1.5083470344543457,0,0,0.5350799560546875
0.897225622,0,0,1.4317326545715332,0,0,0.8408399820327759
0.898225757,0,0,1.778891921043396,0,0,0.8408399820327759
0.899243983,0,0,1.4293384552001953,0,0,0.9937199950218201
0.900261488,0,0,1.3311761617660522,0,0,0.611519992351532
0.901227808,0,0,1.2880805730819702,0,0,0.9937199950218201
0.902226368,0,0,1.3838485479354858,0,0,0.7644000053405762
0.90322965,0,0,1.3192051649093628,0,0,0.9937199950218201
0.904225303,0,0,1.357512354850769,0,0,0.611519992351532
0.905226104,0,0,1.4844050407409668,0,0,0.6879600286483765
0.90622609,0,0,1.4748282432556152,0,0,0
0.907226928,0,0,1.3311761617660522,0,0,0.7644000053405762
0.9082256,0,0,1.6352397203445435,0,0,1.2994799613952637
0.909226104,0,0,1.4173674583435059,0,0,0.9172800183296204
0.910225831,0,0,1.3982137441635132,0,0,0.6879600286483765
0.91122678,0,0,1.316810965538025,0,0,0.8408399820327759
0.91222523,0,0,1.3742717504501343,0,0,0.8408399820327759
0.913225975,0,0,1.4724340438842773,0,0,0.7644000053405762
0.914226054,0,0,1.4700398445129395,0,0,0.9937199950218201
0.915226651,0,0,1.6208745241165161,0,0,0.611519992351532
0.916225433,0,0,1.5825673341751099,0,0,1.375920057296753
0.917225864,0,0,1.3623007535934448,0,0,0.8408399820327759
0.918226035,0,0,1.6400281190872192,0,0,0.9937199950218201
0.919226281,0,0,1.5131354331970215,0,0,0.5350799560546875
0.920225656,0,0,1.290474772453308,0,0,1.070159912109375
0.921226049,0,0,1.2497732639312744,0,0,0.9937199950218201
0.92222598,0,0,1.2066776752471924,0,0,0.8408399820327759
0.9232268,0,0,1.403002142906189,0,0,0.5350799560546875
0.92422536,0,0,1.37906014919281,0,0,0.5350799560546875
0.92522605,0,0,1.4772224426269531,0,0,0.9937199950218201
0.926247369,0,0,1.625662922859192,0,0,1.5288000106811523
0.927229818,0,0,1.4508862495422363,0,0,0.4586400091648102
0.92822586,0,0,1.5945383310317993,0,0,1.1466000080108643
0.929226272,0,0,1.6927006244659424,0,0,0.8408399820327759
0.93022611,0,0,1.3024457693099976,0,0,1.223039984703064
0.931226689,0,0,1.3718775510787964,0,0,0.2293200045824051
0.932225453,0,0,1.2210428714752197,0,0,1.223039984703064
0.933226254,0,0,1.5107412338256836,0,0,0.8408399820327759
0.93422611,0,0,1.4197616577148438,0,0,0.6879600286483765
0.935227208,0,0,1.4987702369689941,0,0,0.9172800183296204
0.936225305,0,0,1.5873557329177856,0,0,1.070159912109375
0.937225532,0,0,1.4987702369689941,0,0,0.2293200045824051
0.938226407,0,0,1.4053963422775269,0,0,0.7644000053405762
0.939226671,0,0,1.678335428237915,0,0,1.070159912109375
0.940225527,0,0,1.3718775510787964,0,0,1.605239987373352
0.941225606,0,0,1.4484920501708984,0,0,0.6879600286483765
0.942226333,0,0,1.3024457693099976,0,0,1.1466000080108643
0.943230689,0,0,1.4867992401123047,0,0,0.6879600286483765
0.944225935,0,0,1.4077905416488647,0,0,0.9937199950218201
0.945249736,0,0,1.434126853942871,0,0,0.6879600286483765
0.946228315,0,0,1.5418659448623657,0,0,0.8408399820327759
0.947226949,0,0,1.50355863571167,0,0,0.305759996175766
0.948225657,0,0,1.3982137441635132,0,0,0.8408399820327759
0.949226069,0,0,1.7142484188079834,0,0,0.9937199950218201
0.950226093,0,0,1.4628572463989258,0,0,0.7644000053405762
0.951226671,0,0,1.3192051649093628,0,0,0.4586400091648102
0.952225454,0,0,1.2425906658172607,0,0,1.070159912109375
0.953226199,0,0,1.4173674583435059,0,0,0.611519992351532
0.95422613,0,0,1.4532804489135742,0,0,1.070159912109375
0.955226801,0,0,1.400607943534851,0,0,0.611519992351532
0.956225621,0,0,1.5634137392044067,0,0,0.5350799560546875
0.957226144,0,0,1.5131354331970215,0,0,0.9172800183296204
0.95822613,0,0,1.4077905416488647,0,0,0.7644000053405762
0.95922632,0,0,1.5753847360610962,0,0,0.7644000053405762
0.960225195,0,0,1.4891934394836426,0,0,0.9937199950218201
0.961226163,0,0,1.3527239561080933,0,0,1.223039984703064
0.96222576,0,0,1.4173674583435059,0,0,0.5350799560546875
0.963226728,0,0,1.3048399686813354,0,0,0.5350799560546875
0.96422551,0,0,1.41257905960083,0,0,0.7644000053405762
0.965226311,0,0,1.3886369466781616,0,0,0.611519992351532
0.966226131,0,0,1.5322890281677246,0,0,1.1466000080108643
0.967227709,0,0,1.6543933153152466,0,0,1.1466000080108643
0.968226029,0,0,1.4915876388549805,0,0,0.9937199950218201
0.969226182,0,0,1.5849615335464478,0,0,0.9937199950218201
0.970225927,0,0,1.6112977266311646,0,0,0.611519992351532
0.971227265,0,0,1.3766659498214722,0,0,1.2994799613952637
0.972224936,0,0,1.4101848602294922,0,0,0.4586400091648102
0.97322596,0,0,1.3000515699386597,0,0,1.2994799613952637
0.974226075,0,0,1.5203180313110352,0,0,0.5350799560546875
0.975261024,0,0,1.3982137441635132,0,0,0.9172800183296204
0.976226733,0,0,1.4891934394836426,0,0,0.9172800183296204
0.97722633,0,0,1.5610195398330688,0,0,1.8345600366592407
0.978226298,0,0,1.4772224426269531,0,0,0.5350799560546875
0.979227117,0,0,1.5203180313110352,0,0,0.8408399820327759
0.980225233,0,0,1.766920804977417,0,0,0.7644000053405762
0.981226034,0,0,1.2976573705673218,0,0,1.375920057296753
0.982226002,0,0,1.4053963422775269,0,0,0.611519992351532
0.983226673,0,0,1.314416766166687,0,0,1.1466000080108643
0.984225252,0,0,1.3958195447921753,0,0,0.5350799560546875
0.985226034,0,0,1.359906554222107,0,0,0.9937199950218201
0.986226113,0,0,1.45806884765625,0,0,0.9172800183296204
0.987226821,0,0,1.5155296325683594,0,0,1.2994799613952637
0.988225697,0,0,1.4963760375976563,0,0,0.305759996175766
0.989226127,0,0,1.434126853942871,0,0,0.9172800183296204
0.990225984,0,0,1.8052281141281128,0,0,0.9937199950218201
0.991226599,0,0,1.314416766166687,0,0,1.1466000080108643
0.992225604,0,0,1.3048399686813354,0,0,0.611519992351532
0.993226257,0,0,1.2042834758758545,0,0,0.9172800183296204
0.994226151,0,0,1.338358759880066,0,0,0.7644000053405762
0.995226655,0,0,1.3694833517074585,0,0,0.8408399820327759
0.996225475,0,0,1.3646949529647827,0,0,0.8408399820327759
0.99722609,0,0,1.5921441316604614,0,0,0.6879600286483765
0.998226095,0,0,1.6041151285171509,0,0,0.305759996175766
0.999226674,0,0,1.3982137441635132,0,0,0.7644000053405762
1.000225549,0,0,1.623268723487854,0,0,0.9172800183296204
1.001225924,0,0,1.4652514457702637,0,0,0.5350799560546875
1.002225762,0,0,1.357512354850769,0,0,0.9172800183296204
1.003226656,0,0,1.3910311460494995,0,0,0.6879600286483765
1.004225494,0,0,1.3000515699386597,0,0,0.5350799560546875
1.005225758,0,0,1.3096283674240112,0,0,0.6879600286483765
1.00622567,0,0,1.3694833517074585,0,0,0.611519992351532
1.0072266,0,0,1.479616641998291,0,0,0.6879600286483765
1.008224994,0,0,1.4867992401123047,0,0,0.6879600286483765
1.009247795,0,0,1.3982137441635132,0,0,0.9172800183296204
1.010233522,0,0,1.5107412338256836,0,0,0.9937199950218201
1.011226045,0,0,1.50355863571167,0,0,0.305759996175766
1.012224605,0,0,1.3263877630233765,0,0,1.070159912109375
1.013223628,0,0,1.3862427473068237,0,0,0.6879600286483765
1.01422354,0,0,1.2401964664459229,0,0,1.070159912109375
1.015223767,0,0,1.400607943534851,0,0,0.8408399820327759
1.01622355,0,0,1.290474772453308,0,0,0.7644000053405762
1.017223536,0,0,1.4987702369689941,0,0,0.9937199950218201
1.018223633,0,0,1.6208745241165161,0,0,1.223039984703064
1.019223545,0,0,1.4508862495422363,0,0,0.4586400091648102
1.020224106,0,0,1.6903064250946045,0,0,0.6879600286483765
1.021223481,0,0,1.7860745191574097,0,0,0.5350799560546875
1.022223411,0,0,1.4221558570861816,0,0,1.5288000106811523
1.023225249,0,0,1.3479355573654175,0,0,0.611519992351532
1.024226513,0,0,1.2617442607879639,0,0,1.223039984703064
1.025304609,0,0,1.5131354331970215,0,0,0.7644000053405762
1.026229263,0,0,1.4053963422775269,0,0,0.8408399820327759
1.027226935,0,0,1.50355863571167,0,0,0.9172800183296204
1.028225513,0,0,1.5753847360610962,0,0,0.9172800183296204
1.029226277,0,0,1.534683346748352,0,0,0.0764399990439415
1.030226134,0,0,1.4676456451416016,0,0,0.9172800183296204
1.031226879,0,0,1.680729627609253,0,0,0.5350799560546875
1.032225551,0,0,1.3527239561080933,0,0,1.223039984703064
1.033226111,0,0,1.3862427473068237,0,0,0.2293200045824051
1.03422606,0,0,1.290474772453308,0,0,0.9172800183296204
1.035226676,0,0,1.335964560508728,0,0,0.6879600286483765
1.036225384,0,0,1.4389152526855469,0,0,0.6879600286483765
1.037226111,0,0,1.434126853942871,0,0,0.611519992351532
1.038226023,0,0,1.5275006294250488,0,0,0.6879600286483765
1.039226732,0,0,1.5418659448623657,0,0,0.3822000026702881
1.040225588,0,0,1.3886369466781616,0,0,0.9937199950218201
1.041226056,0,0,1.7717092037200928,0,0,0.9172800183296204
1.042226116,0,0,1.479616641998291,0,0,0.6879600286483765
1.0432267689999999,0,0,1.357512354850769,0,0,0.2293200045824051
1.044225422,0,0,1.3910311460494995,0,0,0.9172800183296204
1.04522563,0,0,1.4460978507995605,0,0,0.6879600286483765
1.046226024,0,0,1.5083470344543457,0,0,1.070159912109375
1.047226325,0,0,1.3646949529647827,0,0,0.8408399820327759
1.048224663,0,0,1.4987702369689941,0,0,0.5350799560546875
1.049225186,0,0,1.5155296325683594,0,0,0.6879600286483765
1.050225561,0,0,1.3623007535934448,0,0,0.8408399820327759
1.051235288,0,0,1.6089035272598267,0,0,0.7644000053405762
1.05222757,0,0,1.4987702369689941,0,0,0.611519992351532
1.053226408,0,0,1.2761094570159912,0,0,1.375920057296753
1.054226043,0,0,1.3503297567367554,0,0,0.9172800183296204
1.055226547,0,0,1.2856862545013428,0,0,0.611519992351532
1.056225756,0,0,1.4891934394836426,0,0,0.611519992351532
1.057225853,0,0,1.3910311460494995,0,0,0.5350799560546875
1.058225969,0,0,1.5155296325683594,0,0,0.8408399820327759
1.059226807,0,0,1.6400281190872192,0,0,1.223039984703064
1.060229774,0,0,1.4676456451416016,0,0,0.7644000053405762
1.061226205,0,0,1.5705963373184204,0,0,0.7644000053405762
1.062226154,0,0,1.601720929145813,0,0,0.611519992351532
1.063227455,0,0,1.359906554222107,0,0,1.223039984703064
1.064226015,0,0,1.3718775510787964,0,0,0.7644000053405762
1.065226131,0,0,1.2497732639312744,0,0,1.1466000080108643
1.066225988,0,0,1.460463047027588,0,0,0.5350799560546875
1.0672264,0,0,1.3623007535934448,0,0,0.4586400091648102
1.068226293,0,0,1.4173674583435059,0,0,0.9172800183296204
1.069225724,0,0,1.5753847360610962,0,0,1.223039984703064
1.070225747,0,0,1.4460978507995605,0,0,0.6879600286483765
1.071226955,0,0,1.4700398445129395,0,0,0.9172800183296204
1.072224979,0,0,1.6400281190872192,0,0,0.9172800183296204
1.073225983,0,0,1.2545616626739502,0,0,1.1466000080108643
1.074226062,0,0,1.3455413579940796,0,0,0.4586400091648102
1.075226845,0,0,1.2952631711959839,0,0,0.9937199950218201
1.076225572,0,0,1.2832920551300049,0,0,0.9172800183296204
1.077225928,0,0,1.3120225667953491,0,0,0.9172800183296204
1.078226025,0,0,1.3862427473068237,0,0,0.7644000053405762
1.079226697,0,0,1.5682021379470825,0,0,0.8408399820327759
1.080225794,0,0,1.5634137392044067,0,0,0.3822000026702881
1.081225947,0,0,1.4724340438842773,0,0,0.611519992351532
1.082245414,0,0,1.766920804977417,0,0,0.6879600286483765
1.083229697,0,0,1.5107412338256836,0,0,1.2994799613952637
1.084226294,0,0,1.3239935636520386,0,0,0.8408399820327759
1.085226151,0,0,1.2952631711959839,0,0,1.1466000080108643
1.086225933,0,0,1.290474772453308,0,0,0.8408399820327759
1.087226493,0,0,1.292868971824646,0,0,1.1466000080108643
1.088225257,0,0,1.37906014919281,0,0,0.6879600286483765
1.089225855,0,0,1.525106430053711,0,0,0.305759996175766
1.090226211,0,0,1.5298948287963867,0,0,0.4586400091648102
1.09122666,0,0,1.3886369466781616,0,0,1.070159912109375
1.092224869,0,0,1.6352397203445435,0,0,1.1466000080108643
1.093225929,0,0,1.455674648284912,0,0,0.611519992351532
1.094226045,0,0,1.2018892765045166,0,0,0.9937199950218201
1.095226772,0,0,1.3311761617660522,0,0,0.9172800183296204
1.096225647,0,0,1.3503297567367554,0,0,0.9937199950218201
1.0972259659999999,0,0,1.4628572463989258,0,0,0.7644000053405762
1.098226137,0,0,1.4915876388549805,0,0,0.5350799560546875
1.099226457,0,0,1.4676456451416016,0,0,0.6879600286483765
1.100225462,0,0,1.5466543436050415,0,0,1.070159912109375
1.10122604,0,0,1.414973258972168,0,0,0.7644000053405762
1.102226008,0,0,1.6328455209732056,0,0,0.9172800183296204
1.10322842,0,0,1.680729627609253,0,0,0.9937199950218201
1.104225647,0,0,1.3527239561080933,0,0,0.9172800183296204
1.105225763,0,0,1.3239935636520386,0,0,0.6879600286483765
1.106225916,0,0,1.2090718746185303,0,0,1.2994799613952637
1.107226161,0,0,1.4413094520568848,0,0,0.7644000053405762
1.108226221,0,0,1.403002142906189,0,0,0.611519992351532
1.109226115,0,0,1.4460978507995605,0,0,0.9172800183296204
1.110225434,0,0,1.5610195398330688,0,0,0.9937199950218201
1.111226291,0,0,1.4197616577148438,0,0,0.5350799560546875
1.112225833,0,0,1.4963760375976563,0,0,0.7644000053405762
1.113225485,0,0,1.745373010635376,0,0,0.3822000026702881
1.114225694,0,0,1.4891934394836426,0,0,1.452359914779663
1.115226939,0,0,1.45806884765625,0,0,0.4586400091648102
1.116225296,0,0,1.2306196689605713,0,0,0.9937199950218201
1.117226097,0,0,1.292868971824646,0,0,0.7644000053405762
1.118225916,0,0,1.3287819623947144,0,0,0.6879600286483765
1.119226884,0,0,1.4867992401123047,0,0,0.9172800183296204
1.120225555,0,0,1.5490485429763794,0,0,0.9937199950218201
1.121225986,0,0,1.5155296325683594,0,0,0.2293200045824051
1.122226065,0,0,1.338358759880066,0,0,0.7644000053405762
1.12322668,0,0,1.6424223184585571,0,0,0.9172800183296204
1.124226185,0,0,1.3623007535934448,0,0,1.070159912109375
1.125225968,0,0,1.3096283674240112,0,0,0.5350799560546875
1.126225824,0,0,1.3766659498214722,0,0,0.8408399820327759
1.127227107,0,0,1.3646949529647827,0,0,0.7644000053405762
1.128224871,0,0,1.4389152526855469,0,0,0.9937199950218201
1.129226005,0,0,1.4197616577148438,0,0,0.9937199950218201
1.130226084,0,0,1.5107412338256836,0,0,0.3822000026702881
1.1312268109999999,0,0,1.5179238319396973,0,0,0.5350799560546875
1.132225389,0,0,1.3646949529647827,0,0,0.9937199950218201
1.133225857,0,0,1.6687586307525635,0,0,1.070159912109375
1.134225806,0,0,1.5897499322891235,0,0,0.9937199950218201
1.135226385,0,0,1.3766659498214722,0,0,0.5350799560546875
1.136225445,0,0,1.3982137441635132,0,0,1.070159912109375
1.13722595,0,0,1.335964560508728,0,0,0.7644000053405762
1.138226028,0,0,1.3934253454208374,0,0,0.9172800183296204
1.139226737,0,0,1.414973258972168,0,0,0.7644000053405762
1.140227334,0,0,1.525106430053711,0,0,0.7644000053405762
1.14122608,0,0,1.6184803247451782,0,0,0.9937199950218201
1.142225918,0,0,1.3479355573654175,0,0,0.9937199950218201
1.1432272,0,0,1.5107412338256836,0,0,0.5350799560546875
1.144227075,0,0,1.4748282432556152,0,0,0.9172800183296204
1.145225709,0,0,1.2713210582733154,0,0,1.223039984703064
1.146225881,0,0,1.359906554222107,0,0,0.9172800183296204
1.147227626,0,0,1.3263877630233765,0,0,0.9172800183296204
1.148225853,0,0,1.4939818382263184,0,0,0.6879600286483765
1.149226006,0,0,1.3407529592514038,0,0,0.8408399820327759
1.15024201,0,0,1.4484920501708984,0,0,0.9172800183296204
1.151291811,0,0,1.5945383310317993,0,0,1.375920057296753
1.152236057,0,0,1.434126853942871,0,0,0.611519992351532
1.153225636,0,0,1.5107412338256836,0,0,0.6879600286483765
1.154226585,0,0,1.6543933153152466,0,0,0.6879600286483765
1.155228534,0,0,1.3072341680526733,0,0,1.452359914779663
1.156224724,0,0,1.400607943534851,0,0,0.3822000026702881
1.157225636,0,0,1.2066776752471924,0,0,1.070159912109375
1.158226085,0,0,1.4389152526855469,0,0,0.611519992351532
1.159226571,0,0,1.3982137441635132,0,0,0.7644000053405762
1.16022565,0,0,1.4317326545715332,0,0,0.6879600286483765
1.16122584,0,0,1.5825673341751099,0,0,1.2994799613952637
1.162225993,0,0,1.522712230682373,0,0,0.4586400091648102
1.163226886,0,0,1.4173674583435059,0,0,0.611519992351532
1.164225298,0,0,1.6352397203445435,0,0,0.9937199950218201
1.165226081,0,0,1.2761094570159912,0,0,1.070159912109375
1.166226178,0,0,1.256955862045288,0,0,0.6879600286483765
1.167227535,0,0,1.256955862045288,0,0,1.070159912109375
1.168226799,0,0,1.4293384552001953,0,0,0.4586400091648102
1.169226044,0,0,1.4197616577148438,0,0,0.8408399820327759
1.170225919,0,0,1.4101848602294922,0,0,0.6879600286483765
1.171227053,0,0,1.5921441316604614,0,0,0.9172800183296204
1.172226317,0,0,1.5658079385757446,0,0,0.8408399820327759
1.173225989,0,0,1.4221558570861816,0,0,0.9172800183296204
1.174226179,0,0,1.6639702320098877,0,0,0.8408399820327759
1.175226905,0,0,1.436521053314209,0,0,0.8408399820327759
1.1762250029999999,0,0,1.3335703611373901,0,0,1.070159912109375
1.1772261,0,0,1.2952631711959839,0,0,0.5350799560546875
1.178225697,0,0,1.3646949529647827,0,0,0.5350799560546875
1.179226795,0,0,1.5418659448623657,0,0,0.9937199950218201
1.180225558,0,0,1.3910311460494995,0,0,0.6879600286483765
1.181225952,0,0,1.5418659448623657,0,0,0.8408399820327759
1.182226049,0,0,1.580173134803772,0,0,0.6879600286483765
1.183226517,0,0,1.4173674583435059,0,0,1.223039984703064
1.184225651,0,0,1.5442601442337036,0,0,1.070159912109375
1.185225915,0,0,1.5514427423477173,0,0,0.305759996175766
1.18622629,0,0,1.2880805730819702,0,0,1.223039984703064
1.187226813,0,0,1.3503297567367554,0,0,0.7644000053405762
1.188225411,0,0,1.192312479019165,0,0,1.070159912109375
1.189226027,0,0,1.4844050407409668,0,0,0.8408399820327759
1.190226068,0,0,1.4532804489135742,0,0,0.6879600286483765
1.191226721,0,0,1.5394717454910278,0,0,0.5350799560546875
1.192225596,0,0,1.5729905366897583,0,0,1.070159912109375
1.193226119,0,0,1.414973258972168,0,0,0.9937199950218201
1.194225957,0,0,1.4963760375976563,0,0,0.6879600286483765
1.195226684,0,0,1.6328455209732056,0,0,0.6879600286483765
1.196225022,0,0,1.3335703611373901,0,0,1.1466000080108643
1.197225805,0,0,1.4221558570861816,0,0,0.5350799560546875
1.1982277909999999,0,0,1.2473790645599365,0,0,1.070159912109375
1.199226129,0,0,1.455674648284912,0,0,0.611519992351532
1.20022693,0,0,1.359906554222107,0,0,0.8408399820327759
1.201226453,0,0,1.4221558570861816,0,0,0.8408399820327759
1.202225939,0,0,1.5969325304031372,0,0,1.452359914779663
1.203227351,0,0,1.50355863571167,0,0,0.7644000053405762
1.204226078,0,0,1.400607943534851,0,0,0.9172800183296204
1.205226027,0,0,1.6687586307525635,0,0,0.7644000053405762
1.20622618,0,0,1.278503656387329,0,0,1.452359914779663
1.207226796,0,0,1.3623007535934448,0,0,0.6879600286483765
1.208225097,0,0,1.41257905960083,0,0,1.070159912109375
1.209499116,0,0,1.41257905960083,0,0,0.5350799560546875
1.210226514,0,0,1.4652514457702637,0,0,0.9172800183296204
1.211229704,0,0,1.3479355573654175,0,0,1.070159912109375
1.212225134,0,0,1.50355863571167,0,0,0.5350799560546875
1.213223824,0,0,1.5466543436050415,0,0,0.4586400091648102
1.214223625,0,0,1.4053963422775269,0,0,1.1466000080108643
1.21522363,0,0,1.6711528301239014,0,0,1.070159912109375
1.216223968,0,0,1.4652514457702637,0,0,1.070159912109375
1.217223602,0,0,1.37906014919281,0,0,0.7644000053405762
1.218223348,0,0,1.3694833517074585,0,0,1.2994799613952637
1.219223352,0,0,1.3623007535934448,0,0,0.3822000026702881
1.220224357,0,0,1.4389152526855469,0,0,0.9172800183296204
1.221223213,0,0,1.4389152526855469,0,0,0.611519992351532
1.222223477,0,0,1.5083470344543457,0,0,0.305759996175766
1.223225278,0,0,1.577778935432434,0,0,0.8408399820327759
1.224226709,0,0,1.4197616577148438,0,0,0.9937199950218201
1.225226269,0,0,1.6184803247451782,0,0,0.4586400091648102
1.226226237,0,0,1.5490485429763794,0,0,0.4586400091648102
1.227227223,0,0,1.2761094570159912,0,0,0.611519992351532
1.228225691,0,0,1.3192051649093628,0,0,0.8408399820327759
1.229226473,0,0,1.2641384601593018,0,0,0.7644000053405762
1.230226978,0,0,1.381454348564148,0,0,1.070159912109375
1.231226871,0,0,1.3623007535934448,0,0,0.5350799560546875
1.23222558,0,0,1.4700398445129395,0,0,0.9172800183296204
1.233226418,0,0,1.580173134803772,0,0,1.2994799613952637
1.234226311,0,0,1.4939818382263184,0,0,0.611519992351532
1.235226853,0,0,1.479616641998291,0,0,0.9172800183296204
1.236225784,0,0,1.6208745241165161,0,0,0.3822000026702881
1.237226473,0,0,1.359906554222107,0,0,1.070159912109375
1.23822633,0,0,1.3646949529647827,0,0,0.8408399820327759
1.239226872,0,0,1.280897855758667,0,0,0.9937199950218201
1.240225765,0,0,1.4652514457702637,0,0,0.9172800183296204
1.241225955,0,0,1.3838485479354858,0,0,0.4586400091648102
1.242226145,0,0,1.5514427423477173,0,0,0.9172800183296204
1.243226557,0,0,1.6352397203445435,0,0,1.452359914779663
1.244225728,0,0,1.5298948287963867,0,0,0.305759996175766
1.245226196,0,0,1.4077905416488647,0,0,0.6879600286483765
1.246225886,0,0,1.699883222579956,0,0,1.070159912109375
1.247226928,0,0,1.414973258972168,0,0,1.070159912109375
1.248225692,0,0,1.3742717504501343,0,0,0.611519992351532
1.249226141,0,0,1.2545616626739502,0,0,0.9937199950218201
1.250226034,0,0,1.4460978507995605,0,0,0.6879600286483765
1.251226706,0,0,1.359906554222107,0,0,0.7644000053405762
1.252230099,0,0,1.3718775510787964,0,0,1.1466000080108643
1.253253178,0,0,1.5610195398330688,0,0,0.8408399820327759
1.254225905,0,0,1.5610195398330688,0,0,0.152879998087883
1.255224317,0,0,1.4101848602294922,0,0,1.070159912109375
1.256223785,0,0,1.7310078144073486,0,0,1.2994799613952637
1.2572233449999999,0,0,1.3982137441635132,0,0,0.6879600286483765
1.258223442,0,0,1.2880805730819702,0,0,0.6879600286483765
1.2592236319999999,0,0,1.3263877630233765,0,0,0.9937199950218201
1.260223729,0,0,1.4317326545715332,0,0,0.7644000053405762
1.261223197,0,0,1.4437036514282227,0,0,0.9937199950218201
1.262223683,0,0,1.4437036514282227,0,0,0.7644000053405762
1.263260632,0,0,1.5442601442337036,0,0,0.7644000053405762
1.264224267,0,0,1.5825673341751099,0,0,0.5350799560546875
1.2652231600000001,0,0,1.381454348564148,0,0,1.1466000080108643
1.2662237570000001,0,0,1.5514427423477173,0,0,0.7644000053405762
1.267226392,0,0,1.5514427423477173,0,0,0.6879600286483765
1.268226637,0,0,1.3048399686813354,0,0,0.9172800183296204
1.269225734,0,0,1.4173674583435059,0,0,0.6879600286483765
1.270225758,0,0,1.2737152576446533,0,0,0.7644000053405762
1.271226688,0,0,1.4221558570861816,0,0,0.9172800183296204
1.272225156,0,0,1.3431471586227417,0,0,0.8408399820327759
1.273225901,0,0,1.4939818382263184,0,0,0.4586400091648102
1.27422561,0,0,1.5490485429763794,0,0,1.070159912109375
1.275226466,0,0,1.4844050407409668,0,0,0.9172800183296204
1.276225193,0,0,1.5442601442337036,0,0,0.6879600286483765
1.277225624,0,0,1.659181833267212,0,0,0.5350799560546875
1.278225888,0,0,1.3766659498214722,0,0,1.070159912109375
1.279226429,0,0,1.400607943534851,0,0,0.4586400091648102
1.280225286,0,0,1.3048399686813354,0,0,1.1466000080108643
1.281225846,0,0,1.4221558570861816,0,0,0.6879600286483765
1.282225703,0,0,1.3694833517074585,0,0,0.8408399820327759
1.283226189,0,0,1.5131354331970215,0,0,0.9172800183296204
1.284225027,0,0,1.5753847360610962,0,0,1.223039984703064
1.285225643,0,0,1.4772224426269531,0,0,0.4586400091648102
1.28622524,0,0,1.455674648284912,0,0,0.8408399820327759
1.287226467,0,0,1.7741034030914307,0,0,0.9172800183296204
1.288225175,0,0,1.403002142906189,0,0,1.375920057296753
1.289225847,0,0,1.3862427473068237,0,0,0.6879600286483765
1.290225796,0,0,1.290474772453308,0,0,1.1466000080108643
1.291226393,0,0,1.403002142906189,0,0,0.7644000053405762
1.292225546,0,0,1.3910311460494995,0,0,1.070159912109375
1.293225865,0,0,1.359906554222107,0,0,0.6879600286483765
1.294225963,0,0,1.5753847360610962,0,0,1.5288000106811523
1.2952263560000001,0,0,1.4987702369689941,0,0,0.0764399990439415
1.29622525,0,0,1.3479355573654175,0,0,0.7644000053405762
1.297225903,0,0,1.6974890232086182,0,0,1.1466000080108643
1.298225796,0,0,1.4269442558288574,0,0,1.1466000080108643
1.299226264,0,0,1.280897855758667,0,0,0.5350799560546875
1.300225268,0,0,1.2832920551300049,0,0,0.9172800183296204
1.301225884,0,0,1.2880805730819702,0,0,0.6879600286483765
1.302226037,0,0,1.3311761617660522,0,0,0.9172800183296204
1.303226708,0,0,1.3934253454208374,0,0,0.5350799560546875
1.30422488,0,0,1.580173134803772,0,0,0.4586400091648102
1.305225681,0,0,1.580173134803772,0,0,0.7644000053405762
1.306225963,0,0,1.3982137441635132,0,0,0.9937199950218201
1.307226338,0,0,1.623268723487854,0,0,1.1466000080108643
1.308224843,0,0,1.4844050407409668,0,0,0.8408399820327759
1.30922594,0,0,1.280897855758667,0,0,0.7644000053405762
1.310225797,0,0,1.3239935636520386,0,0,0.9937199950218201
1.311226505,0,0,1.2737152576446533,0,0,0.7644000053405762
1.312225251,0,0,1.4844050407409668,0,0,0.9172800183296204
1.313225959,0,0,1.4676456451416016,0,0,0.611519992351532
1.31422589,0,0,1.4867992401123047,0,0,0.9172800183296204
1.315226783,0,0,1.4389152526855469,0,0,0.9937199950218201
1.316225492,0,0,1.3766659498214722,0,0,0.8408399820327759
1.317225793,0,0,1.5945383310317993,0,0,1.070159912109375
1.318225834,0,0,1.6352397203445435,0,0,0.611519992351532
1.319226487,0,0,1.338358759880066,0,0,0.8408399820327759
1.320225362,0,0,1.4245500564575195,0,0,0.5350799560546875
1.3212258110000001,0,0,1.2617442607879639,0,0,1.1466000080108643
1.322235353,0,0,1.4317326545715332,0,0,0.8408399820327759
1.323227358,0,0,1.3742717504501343,0,0,0.611519992351532
1.324225362,0,0,1.4532804489135742,0,0,0.8408399820327759
1.325225997,0,0,1.5394717454910278,0,0,1.6816799640655518
1.326225446,0,0,1.4484920501708984,0,0,0.305759996175766
1.327226636,0,0,1.3958195447921753,0,0,0.8408399820327759
1.328225177,0,0,1.7046716213226318,0,0,0.7644000053405762
1.329225404,0,0,1.359906554222107,0,0,1.070159912109375
1.330225909,0,0,1.3431471586227417,0,0,0.611519992351532
1.331226765,0,0,1.2832920551300049,0,0,1.223039984703064
1.33222527,0,0,1.501164436340332,0,0,0.5350799560546875
1.333225904,0,0,1.4676456451416016,0,0,0.6879600286483765
1.334225705,0,0,1.4652514457702637,0,0,1.070159912109375
1.335226562,0,0,1.5466543436050415,0,0,0.9172800183296204
1.336225437,0,0,1.4987702369689941,0,0,0.305759996175766
1.3372257570000001,0,0,1.4077905416488647,0,0,0.8408399820327759
1.338225983,0,0,1.6831238269805908,0,0,1.1466000080108643
1.339226618,0,0,1.403002142906189,0,0,0.9172800183296204
1.340225363,0,0,1.3048399686813354,0,0,0.611519992351532
1.341225831,0,0,1.1827356815338135,0,0,1.223039984703064
1.342225873,0,0,1.2761094570159912,0,0,0.9172800183296204
1.343226303,0,0,1.4245500564575195,0,0,0.7644000053405762
1.344225308,0,0,1.4508862495422363,0,0,0.9937199950218201
1.345225683,0,0,1.4963760375976563,0,0,0.3822000026702881
1.34622578,0,0,1.5634137392044067,0,0,0.6879600286483765
1.347226192,0,0,1.3910311460494995,0,0,0.9937199950218201
1.348225234,0,0,1.6376339197158813,0,0,0.9937199950218201
1.349225831,0,0,1.5610195398330688,0,0,0.6879600286483765
1.350225854,0,0,1.2856862545013428,0,0,0.9937199950218201
1.351226137,0,0,1.3120225667953491,0,0,1.1466000080108643
1.3522253819999999,0,0,1.2952631711959839,0,0,0.4586400091648102
1.353225665,0,0,1.4293384552001953,0,0,0.8408399820327759
1.3542260210000001,0,0,1.403002142906189,0,0,0.611519992351532
1.355225841,0,0,1.5418659448623657,0,0,0.5350799560546875
1.3562257340000001,0,0,1.625662922859192,0,0,0.8408399820327759
1.357225869,0,0,1.4939818382263184,0,0,0.9937199950218201
1.358225855,0,0,1.5634137392044067,0,0,0.611519992351532
1.359227008,0,0,1.6927006244659424,0,0,0.3822000026702881
1.36022916,0,0,1.3670891523361206,0,0,1.2994799613952637
1.36122598,0,0,1.3311761617660522,0,0,0.7644000053405762
1.3622258,0,0,1.278503656387329,0,0,1.1466000080108643
1.363227267,0,0,1.4748282432556152,0,0,0.7644000053405762
1.364224661,0,0,1.3886369466781616,0,0,0.6879600286483765
1.365225758,0,0,1.5059528350830078,0,0,1.070159912109375
1.36622604,0,0,1.599326729774475,0,0,1.605239987373352
1.3672265270000001,0,0,1.4891934394836426,0,0,0.7644000053405762
1.368226291,0,0,1.479616641998291,0,0,0.8408399820327759
1.369225573,0,0,1.745373010635376,0,0,0.6879600286483765
1.370226207,0,0,1.3527239561080933,0,0,1.2994799613952637
1.371226731,0,0,1.414973258972168,0,0,0.7644000053405762
1.372224791,0,0,1.2306196689605713,0,0,1.070159912109375
1.373225518,0,0,1.4053963422775269,0,0,0.6879600286483765
1.3742259479999999,0,0,1.3287819623947144,0,0,0.6879600286483765
1.37522649,0,0,1.37906014919281,0,0,1.2994799613952637
1.376225402,0,0,1.5418659448623657,0,0,1.6816799640655518
1.377225666,0,0,1.5705963373184204,0,0,0.2293200045824051
1.378225837,0,0,1.4101848602294922,0,0,0.7644000053405762
1.379226731,0,0,1.7142484188079834,0,0,0.611519992351532
1.380225439,0,0,1.4053963422775269,0,0,0.9937199950218201
1.381225888,0,0,1.3527239561080933,0,0,0.4586400091648102
1.382225689,0,0,1.3311761617660522,0,0,0.8408399820327759
1.383226472,0,0,1.37906014919281,0,0,0.8408399820327759
1.38422544,0,0,1.4460978507995605,0,0,0.7644000053405762
1.385225907,0,0,1.3694833517074585,0,0,0.5350799560546875
1.386225653,0,0,1.5610195398330688,0,0,0.9172800183296204
1.3872263980000001,0,0,1.4987702369689941,0,0,-0.0764399990439415
1.388225514,0,0,1.4269442558288574,0,0,0.611519992351532
1.389225981,0,0,1.680729627609253,0,0,0.9937199950218201
1.390225949,0,0,1.5490485429763794,0,0,0.8408399820327759
1.391226565,0,0,1.3910311460494995,0,0,0.8408399820327759
1.392225255,0,0,1.3838485479354858,0,0,0.9937199950218201
1.393225741,0,0,1.460463047027588,0,0,0.4586400091648102
1.394225653,0,0,1.3958195447921753,0,0,0.9937199950218201
1.395226621,0,0,1.4173674583435059,0,0,0.5350799560546875
1.396225329,0,0,1.5203180313110352,0,0,0.9172800183296204
1.397225871,0,0,1.4867992401123047,0,0,0.4586400091648102
1.398225709,0,0,1.3718775510787964,0,0,0.9172800183296204
1.399226695,0,0,1.5897499322891235,0,0,1.1466000080108643
1.400225329,0,0,1.6639702320098877,0,0,0.5350799560546875
1.4012420190000001,0,0,1.3335703611373901,0,0,0.8408399820327759
1.402264634,0,0,1.357512354850769,0,0,0.611519992351532
1.403232565,0,0,1.3000515699386597,0,0,0.7644000053405762
1.404224978,0,0,1.4460978507995605,0,0,0.9937199950218201
1.405225908,0,0,1.3982137441635132,0,0,0.7644000053405762
1.406226228,0,0,1.434126853942871,0,0,0.9172800183296204
1.40722664,0,0,1.534683346748352,0,0,1.6816799640655518
1.40822507,0,0,1.4939818382263184,0,0,0.7644000053405762
1.4092446490000001,0,0,1.4389152526855469,0,0,0.3822000026702881
1.410234728,0,0,1.6041151285171509,0,0,0.611519992351532
1.411225881,0,0,1.3048399686813354,0,0,1.452359914779663
1.412224219,0,0,1.3862427473068237,0,0,0.2293200045824051
1.413223612,0,0,1.280897855758667,0,0,0.9937199950218201
1.414223784,0,0,1.4197616577148438,0,0,1.070159912109375
1.4152237140000001,0,0,1.3479355573654175,0,0,0.6879600286483765
1.4162234599999999,0,0,1.3335703611373901,0,0,0.9172800183296204
1.41722365,0,0,1.5298948287963867,0,0,1.223039984703064
1.418223821,0,0,1.5275006294250488,0,0,0
1.419223826,0,0,1.436521053314209,0,0,1.1466000080108643
1.420223738,0,0,1.7549498081207275,0,0,0.9937199950218201
1.421223483,0,0,1.3287819623947144,0,0,1.375920057296753
1.4222235429999999,0,0,1.2665326595306396,0,0,0.5350799560546875
1.423225122,0,0,1.3192051649093628,0,0,1.375920057296753
1.424226294,0,0,1.4197616577148438,0,0,0.3822000026702881
1.425225909,0,0,1.3527239561080933,0,0,0.8408399820327759
1.426225895,0,0,1.4053963422775269,0,0,0.9172800183296204
1.427226882,0,0,1.522712230682373,0,0,0.4586400091648102
1.428225238,0,0,1.5753847360610962,0,0,0.2293200045824051
1.429225928,0,0,1.4077905416488647,0,0,0.9172800183296204
1.430226025,0,0,1.6376339197158813,0,0,1.1466000080108643
1.431226623,0,0,1.4748282432556152,0,0,0.8408399820327759
1.432225516,0,0,1.3263877630233765,0,0,0.6879600286483765
1.433225928,0,0,1.3431471586227417,0,0,1.375920057296753
1.434225488,0,0,1.4197616577148438,0,0,0.3822000026702881
1.435226623,0,0,1.4389152526855469,0,0,0.7644000053405762
1.43622509,0,0,1.4389152526855469,0,0,0.8408399820327759
1.437225521,0,0,1.4389152526855469,0,0,0.6879600286483765
1.438226081,0,0,1.479616641998291,0,0,0.9937199950218201
1.439226753,0,0,1.3646949529647827,0,0,0.9172800183296204
1.440230572,0,0,1.4269442558288574,0,0,0.9172800183296204
1.441226281,0,0,1.5275006294250488,0,0,0.611519992351532
1.442227322,0,0,1.290474772453308,0,0,1.1466000080108643
1.443227382,0,0,1.3263877630233765,0,0,0.9172800183296204
1.444225702,0,0,1.3694833517074585,0,0,0.7644000053405762
1.445226003,0,0,1.3407529592514038,0,0,0.9937199950218201
1.446226174,0,0,1.4389152526855469,0,0,0.7644000053405762
1.447226827,0,0,1.4867992401123047,0,0,0.7644000053405762
1.448225313,0,0,1.5610195398330688,0,0,1.223039984703064
1.4492258740000001,0,0,1.4221558570861816,0,0,0.8408399820327759
1.450225804,0,0,1.4987702369689941,0,0,0.8408399820327759
1.451226605,0,0,1.6519991159439087,0,0,0.611519992351532
1.452225425,0,0,1.280897855758667,0,0,0.9172800183296204
1.453225966,0,0,1.3551181554794312,0,0,0.305759996175766
1.454226415,0,0,1.3407529592514038,0,0,0.9172800183296204
1.455227161,0,0,1.4844050407409668,0,0,0.7644000053405762
1.456226277,0,0,1.4293384552001953,0,0,0.7644000053405762
1.457242059,0,0,1.4101848602294922,0,0,0.9937199950218201
1.4582264710000001,0,0,1.5897499322891235,0,0,1.5288000106811523
1.459226031,0,0,1.5658079385757446,0,0,0.152879998087883
1.460225573,0,0,1.381454348564148,0,0,0.8408399820327759
1.4612258,0,0,1.6974890232086182,0,0,0.6879600286483765
1.462226064,0,0,1.3694833517074585,0,0,0.8408399820327759
1.4632264209999999,0,0,1.3000515699386597,0,0,0.5350799560546875
1.464225592,0,0,1.2425906658172607,0,0,0.9937199950218201
1.465225911,0,0,1.41257905960083,0,0,0.611519992351532
1.466225861,0,0,1.4748282432556152,0,0,0.5350799560546875
1.467228495,0,0,1.4915876388549805,0,0,1.070159912109375
1.468225814,0,0,1.525106430053711,0,0,0.7644000053405762
1.469225912,0,0,1.5729905366897583,0,0,0.611519992351532
1.470225805,0,0,1.3766659498214722,0,0,1.070159912109375
1.471227106,0,0,1.556231141090393,0,0,0.8408399820327759
1.472225203,0,0,1.525106430053711,0,0,0.9172800183296204
1.473226004,0,0,1.3455413579940796,0,0,0.8408399820327759
1.474225824,0,0,1.316810965538025,0,0,0.9172800183296204
1.475226495,0,0,1.3910311460494995,0,0,0.5350799560546875
1.476236018,0,0,1.414973258972168,0,0,0.9937199950218201
1.477227893,0,0,1.3934253454208374,0,0,0.9172800183296204
1.478226713,0,0,1.525106430053711,0,0,0.305759996175766
1.479227329,0,0,1.5873557329177856,0,0,0.305759996175766
1.480225519,0,0,1.501164436340332,0,0,1.070159912109375
1.481226134,0,0,1.5107412338256836,0,0,0.9937199950218201
1.482226287,0,0,1.5442601442337036,0,0,0.6879600286483765
1.4832270140000001,0,0,1.2521674633026123,0,0,1.070159912109375
1.484223278,0,0,1.4101848602294922,0,0,0.6879600286483765
1.4852237640000001,0,0,1.3120225667953491,0,0,0.8408399820327759
1.486223547,0,0,1.4484920501708984,0,0,0.611519992351532
1.487245681,0,0,1.4221558570861816,0,0,0.8408399820327759
1.491325402,0,0,1.3958195447921753,0,0,0.9937199950218201
1.491532621,0,0,1.3958195447921753,0,0,0.9937199950218201
1.491699823,0,0,1.3958195447921753,0,0,0.9172800183296204
1.491864154,0,0,1.3958195447921753,0,0,0.7644000053405762
1.492234723,0,0,1.6831238269805908,0,0,0.8408399820327759
1.493247468,0,0,1.3862427473068237,0,0,1.375920057296753
1.494230455,0,0,1.3239935636520386,0,0,0.2293200045824051
1.495270088,0,0,1.3958195447921753,0,0,1.5288000106811523
1.496392165,0,0,1.3958195447921753,0,0,0.5350799560546875
1.497231283,0,0,1.335964560508728,0,0,0.6879600286483765
1.4982298250000001,0,0,1.4221558570861816,0,0,0.9937199950218201
1.499225534,0,0,1.5634137392044067,0,0,1.2994799613952637
1.5002260010000001,0,0,1.558625340461731,0,0,0.3822000026702881
1.501223821,0,0,1.3862427473068237,0,0,0.7644000053405762
1.502224381,0,0,1.7118542194366455,0,0,0.8408399820327759
1.503227534,0,0,1.403002142906189,0,0,1.070159912109375
1.504225853,0,0,1.3263877630233765,0,0,0.305759996175766
1.5052253759999998,0,0,1.3431471586227417,0,0,1.1466000080108643
1.5062246030000002,0,0,1.3503297567367554,0,0,0.6879600286483765
1.507234349,0,0,1.3096283674240112,0,0,0.611519992351532
1.508227057,0,0,1.4245500564575195,0,0,1.070159912109375
1.50922534,0,0,1.577778935432434,0,0,0.4586400091648102
1.510225196,0,0,1.50355863571167,0,0,0.2293200045824051
1.511225219,0,0,1.3311761617660522,0,0,0.8408399820327759
1.512224798,0,0,1.6304513216018677,0,0,0.9937199950218201
1.5132245069999999,0,0,1.5442601442337036,0,0,0.9172800183296204
1.514224382,0,0,1.3120225667953491,0,0,0.4586400091648102
1.515278349,0,0,1.3766659498214722,0,0,0.9937199950218201
1.516236502,0,0,1.292868971824646,0,0,0.6879600286483765
1.517227673,0,0,1.4460978507995605,0,0,0.8408399820327759
1.518226919,0,0,1.4532804489135742,0,0,0.9172800183296204
1.5192288120000002,0,0,1.4891934394836426,0,0,0.9172800183296204
1.520226113,0,0,1.5298948287963867,0,0,1.070159912109375
1.5212464140000002,0,0,1.3958195447921753,0,0,0.9937199950218201
1.522229049,0,0,1.580173134803772,0,0,0.9937199950218201
1.52322709,0,0,1.5610195398330688,0,0,0.611519992351532
1.5242282249999999,0,0,1.2713210582733154,0,0,0.8408399820327759
1.525226989,0,0,1.338358759880066,0,0,0.6879600286483765
1.526226697,0,0,1.2282254695892334,0,0,0.9937199950218201
1.5272279979999999,0,0,1.4676456451416016,0,0,0.7644000053405762
1.5295634470000001,0,0,1.4676456451416016,0,0,1.070159912109375
1.529752667,0,0,1.4676456451416016,0,0,0.9172800183296204
1.5302649929999999,0,0,1.6280571222305298,0,0,1.223039984703064
1.531275331,0,0,1.4173674583435059,0,0,0.305759996175766
1.532267651,0,0,1.4077905416488647,0,0,0.7644000053405762
1.533314155,0,0,1.6208745241165161,0,0,0.611519992351532
1.5343090849999999,0,0,1.359906554222107,0,0,0.9172800183296204
1.535297979,0,0,1.4221558570861816,0,0,0.6879600286483765
1.536266336,0,0,1.2880805730819702,0,0,0.9172800183296204
1.537251508,0,0,1.4413094520568848,0,0,0.8408399820327759
1.53824966,0,0,1.2952631711959839,0,0,0.4586400091648102
1.5392432390000002,0,0,1.4389152526855469,0,0,0.8408399820327759
1.540281558,0,0,1.6376339197158813,0,0,1.5288000106811523
1.541241675,0,0,1.599326729774475,0,0,0.4586400091648102
1.542244124,0,0,1.3335703611373901,0,0,0.8408399820327759
1.543263739,0,0,1.6328455209732056,0,0,0.9937199950218201
1.5442373740000002,0,0,1.3694833517074585,0,0,0.9172800183296204
1.545223601,0,0,1.316810965538025,0,0,0.7644000053405762
1.546223532,0,0,1.316810965538025,0,0,0.9937199950218201
1.547224481,0,0,1.359906554222107,0,0,0.5350799560546875
1.548223911,0,0,1.4173674583435059,0,0,0.9172800183296204
1.549223638,0,0,1.414973258972168,0,0,0.9937199950218201
1.550223698,0,0,1.558625340461731,0,0,0.8408399820327759
1.551224277,0,0,1.5490485429763794,0,0,0
1.552223337,0,0,1.3742717504501343,0,0,0.8408399820327759
1.553223435,0,0,1.6663644313812256,0,0,0.9172800183296204
1.554223717,0,0,1.5610195398330688,0,0,0.9937199950218201
1.5552262030000001,0,0,1.3670891523361206,0,0,1.2994799613952637
1.556226541,0,0,1.3838485479354858,0,0,0.6879600286483765
1.557225935,0,0,1.3623007535934448,0,0,0.5350799560546875
1.558225865,0,0,1.4915876388549805,0,0,0.9172800183296204
1.559225907,0,0,1.41257905960083,0,0,0.7644000053405762
1.56042902,0,0,1.41257905960083,0,0,0.6879600286483765
1.561233324,0,0,1.5825673341751099,0,0,0.6879600286483765
1.562226347,0,0,1.3072341680526733,0,0,0.9937199950218201
1.5632264999999999,0,0,1.5155296325683594,0,0,1.070159912109375
1.56422606,0,0,1.5682021379470825,0,0,0.6879600286483765
1.565226102,0,0,1.256955862045288,0,0,1.1466000080108643
1.5662261069999999,0,0,1.3048399686813354,0,0,0.5350799560546875
1.567227685,0,0,1.213860273361206,0,0,0.8408399820327759
1.568225709,0,0,1.4317326545715332,0,0,0.9937199950218201
1.56922601,0,0,1.3958195447921753,0,0,0.611519992351532
1.570226199,0,0,1.4532804489135742,0,0,0.3822000026702881
1.5712280189999999,0,0,1.580173134803772,0,0,1.2994799613952637
1.572226135,0,0,1.4963760375976563,0,0,0.7644000053405762
1.5732259910000002,0,0,1.460463047027588,0,0,0.9937199950218201
1.574225829,0,0,1.6304513216018677,0,0,0.611519992351532
1.57522639,0,0,1.414973258972168,0,0,1.223039984703064
1.5762258569999998,0,0,1.4532804489135742,0,0,0.6879600286483765
1.577225954,0,0,1.2545616626739502,0,0,0.611519992351532
1.57822583,0,0,1.4676456451416016,0,0,0.8408399820327759
1.579226723,0,0,1.316810965538025,0,0,0.8408399820327759
1.5802268019999999,0,0,1.3838485479354858,0,0,1.1466000080108643
1.58122601,0,0,1.5658079385757446,0,0,1.2994799613952637
1.582225996,0,0,1.414973258972168,0,0,0.4586400091648102
1.5832262049999999,0,0,1.3215993642807007,0,0,0.7644000053405762
1.584225802,0,0,1.6136919260025024,0,0,0.6879600286483765
1.585236307,0,0,1.3958195447921753,0,0,1.1466000080108643
1.586226497,0,0,1.3239935636520386,0,0,0.9172800183296204
1.5872269270000001,0,0,1.3192051649093628,0,0,1.223039984703064
1.5882253020000001,0,0,1.434126853942871,0,0,0.611519992351532
1.589225659,0,0,1.3694833517074585,0,0,1.1466000080108643
1.590226089,0,0,1.3479355573654175,0,0,0.9172800183296204
1.591299056,0,0,1.5083470344543457,0,0,0.5350799560546875
1.5922273580000001,0,0,1.5538369417190552,0,0,0.152879998087883
1.593226029,0,0,1.3455413579940796,0,0,0.9172800183296204
1.5942256449999999,0,0,1.7118542194366455,0,0,0.9172800183296204
1.5952263169999998,0,0,1.45806884765625,0,0,0.9172800183296204
1.596225599,0,0,1.3646949529647827,0,0,0.5350799560546875
1.597225789,0,0,1.3335703611373901,0,0,0.7644000053405762
1.598225701,0,0,1.359906554222107,0,0,0.611519992351532
1.5992260759999999,0,0,1.4724340438842773,0,0,0.611519992351532
1.600225673,0,0,1.4245500564575195,0,0,0.8408399820327759
1.601225752,0,0,1.599326729774475,0,0,0.611519992351532
1.602225812,0,0,1.5873557329177856,0,0,0.7644000053405762
1.603226669,0,0,1.3718775510787964,0,0,1.070159912109375
1.604225692,0,0,1.6160861253738403,0,0,1.070159912109375
1.605225771,0,0,1.6065093278884888,0,0,0.6879600286483765
1.606225738,0,0,1.2641384601593018,0,0,0.8408399820327759
1.6072257429999999,0,0,1.3886369466781616,0,0,0.6879600286483765
1.608225303,0,0,1.2761094570159912,0,0,1.1466000080108643
1.6092379559999999,0,0,1.3934253454208374,0,0,1.070159912109375
1.610232702,0,0,1.3527239561080933,0,0,0.611519992351532
1.6112261879999998,0,0,1.4915876388549805,0,0,0.8408399820327759
1.6122245259999999,0,0,1.5969325304031372,0,0,0.9172800183296204
1.613223568,0,0,1.4460978507995605,0,0,0.9172800183296204
1.614223535,0,0,1.501164436340332,0,0,0.6879600286483765
1.615224688,0,0,1.7334020137786865,0,0,0.9172800183296204
1.616223637,0,0,1.3646949529647827,0,0,1.375920057296753
1.617223605,0,0,1.357512354850769,0,0,0.7644000053405762
1.618223572,0,0,1.316810965538025,0,0,0.9937199950218201
1.619223911,0,0,1.436521053314209,0,0,0.9937199950218201
1.620223804,0,0,1.3263877630233765,0,0,0.7644000053405762
1.621223587,0,0,1.4101848602294922,0,0,1.1466000080108643
1.622223554,0,0,1.6065093278884888,0,0,1.452359914779663
1.623223651,0,0,1.5394717454910278,0,0,0.2293200045824051
1.6242239710000002,0,0,1.3431471586227417,0,0,0.9937199950218201
1.625223439,0,0,1.778891921043396,0,0,0.8408399820327759
1.626224795,0,0,1.3670891523361206,0,0,1.1466000080108643
1.627225504,0,0,1.3335703611373901,0,0,0.611519992351532
1.6282261930000002,0,0,1.280897855758667,0,0,1.223039984703064
1.629229365,0,0,1.3646949529647827,0,0,0.7644000053405762
1.6302259989999999,0,0,1.434126853942871,0,0,0.7644000053405762
1.631226967,0,0,1.414973258972168,0,0,0.9172800183296204
1.63222549,0,0,1.6065093278884888,0,0,0.5350799560546875
1.633225735,0,0,1.5466543436050415,0,0,0.152879998087883
1.634225629,0,0,1.6400281190872192,0,0,0.8408399820327759
1.6354729080000001,0,0,1.6400281190872192,0,0,0.8408399820327759
1.636295026,0,0,1.5179238319396973,0,0,0.611519992351532
1.637262254,0,0,1.3096283674240112,0,0,0.611519992351532
1.638337998,0,0,1.3096283674240112,0,0,1.1466000080108643
1.639243597,0,0,1.3000515699386597,0,0,0.3822000026702881
1.6402283610000001,0,0,1.3982137441635132,0,0,0.9937199950218201
1.641227551,0,0,1.4173674583435059,0,0,0.9172800183296204
1.642226166,0,0,1.5083470344543457,0,0,0.611519992351532
1.643225875,0,0,1.556231141090393,0,0,0.305759996175766
1.6442257310000001,0,0,1.4532804489135742,0,0,1.223039984703064
1.6452258290000001,0,0,1.5658079385757446,0,0,1.070159912109375
1.646225574,0,0,1.5059528350830078,0,0,0.4586400091648102
1.647225838,0,0,1.259350061416626,0,0,0.9172800183296204
1.6482258239999998,0,0,1.3455413579940796,0,0,0.7644000053405762
1.649243866,0,0,1.316810965538025,0,0,0.7644000053405762
1.650226185,0,0,1.4221558570861816,0,0,0.8408399820327759
1.651233986,0,0,1.3766659498214722,0,0,0.8408399820327759
1.6522963229999998,0,0,1.5179238319396973,0,0,0.611519992351532
1.6532504399999999,0,0,1.6615760326385498,0,0,0.9937199950218201
1.6542268519999999,0,0,1.4891934394836426,0,0,0.9172800183296204
1.6552317269999999,0,0,1.5083470344543457,0,0,0.5350799560546875
1.6562254539999999,0,0,1.5897499322891235,0,0,0.6879600286483765
1.657224792,0,0,1.3311761617660522,0,0,1.452359914779663
1.658224945,0,0,1.3623007535934448,0,0,0.611519992351532
1.65922569,0,0,1.2234370708465576,0,0,1.375920057296753
1.660229232,0,0,1.414973258972168,0,0,0.8408399820327759
1.661224681,0,0,1.3215993642807007,0,0,0.6879600286483765
1.6622244080000002,0,0,1.3910311460494995,0,0,0.8408399820327759
1.663242635,0,0,1.53707754611969,0,0,1.2994799613952637
1.6642252690000001,0,0,1.4389152526855469,0,0,0.8408399820327759
1.665224496,0,0,1.316810965538025,0,0,0.7644000053405762
1.666224557,0,0,1.6519991159439087,0,0,0.8408399820327759
1.667277838,0,0,1.3646949529647827,0,0,1.2994799613952637
1.668228288,0,0,1.2856862545013428,0,0,0.7644000053405762
1.6692247930000002,0,0,1.3192051649093628,0,0,1.223039984703064
1.670224668,0,0,1.4173674583435059,0,0,0.9172800183296204
1.6712255059999999,0,0,1.359906554222107,0,0,0.9172800183296204
1.672223937,0,0,1.434126853942871,0,0,1.070159912109375
1.673224145,0,0,1.5131354331970215,0,0,0.9172800183296204
1.674224557,0,0,1.4939818382263184,0,0,0.152879998087883
1.6752255059999999,0,0,1.4221558570861816,0,0,0.6879600286483765
1.676223566,0,0,1.6543933153152466,0,0,0.9172800183296204
1.6772246640000001,0,0,1.455674648284912,0,0,0.9172800183296204
1.678224409,0,0,1.194706678390503,0,0,0.5350799560546875
1.679225414,0,0,1.316810965538025,0,0,0.9172800183296204
1.6802238809999999,0,0,1.292868971824646,0,0,0.6879600286483765
1.681224756,0,0,1.4484920501708984,0,0,0.7644000053405762
1.68222465,0,0,1.4748282432556152,0,0,0.6879600286483765
1.68322547,0,0,1.5322890281677246,0,0,0.6879600286483765
1.684223789,0,0,1.4867992401123047,0,0,0.305759996175766
1.6852243310000001,0,0,1.3646949529647827,0,0,0.8408399820327759
1.6862247799999999,0,0,1.5729905366897583,0,0,0.9937199950218201
1.687225396,0,0,1.6136919260025024,0,0,0.7644000053405762
1.688223919,0,0,1.2856862545013428,0,0,0.8408399820327759
1.689224627,0,0,1.3048399686813354,0,0,0.9172800183296204
1.690224539,0,0,1.3048399686813354,0,0,0.7644000053405762
1.6912248220000001,0,0,1.381454348564148,0,0,0.7644000053405762
1.6922247339999998,0,0,1.3407529592514038,0,0,0.5350799560546875
1.693224498,0,0,1.4077905416488647,0,0,0.6879600286483765
1.6942245580000002,0,0,1.534683346748352,0,0,1.070159912109375
1.6952255630000002,0,0,1.357512354850769,0,0,0.8408399820327759
1.696223697,0,0,1.4221558570861816,0,0,0.8408399820327759
1.697224591,0,0,1.577778935432434,0,0,0.9172800183296204
1.698224206,0,0,1.3024457693099976,0,0,1.2994799613952637
1.6992360629999999,0,0,1.3431471586227417,0,0,0.3822000026702881
1.700275067,0,0,1.3000515699386597,0,0,0.9937199950218201
1.701226091,0,0,1.4532804489135742,0,0,0.611519992351532
1.702224929,0,0,1.2713210582733154,0,0,0.305759996175766
1.703227322,0,0,1.316810965538025,0,0,0.9937199950218201
1.7042247719999999,0,0,1.50355863571167,0,0,1.1466000080108643
1.705224313,0,0,1.558625340461731,0,0,0.611519992351532
1.706224707,0,0,1.3862427473068237,0,0,0.8408399820327759
1.707225471,0,0,1.6160861253738403,0,0,0.7644000053405762
1.708223883,0,0,1.4676456451416016,0,0,1.2994799613952637
1.7092244989999998,0,0,1.3958195447921753,0,0,0.611519992351532
1.710224485,0,0,1.3335703611373901,0,0,1.223039984703064
1.7112248970000001,0,0,1.4221558570861816,0,0,0.9172800183296204
1.712224513,0,0,1.3694833517074585,0,0,0.6879600286483765
1.713240351,0,0,1.436521053314209,0,0,0.7644000053405762
1.71422517,0,0,1.5442601442337036,0,0,0.8408399820327759
1.715225619,0,0,1.5275006294250488,0,0,0.305759996175766
1.716223069,0,0,1.316810965538025,0,0,0.9937199950218201
1.717224962,0,0,1.5849615335464478,0,0,0.9937199950218201
1.718224485,0,0,1.5107412338256836,0,0,1.070159912109375
1.71922512,0,0,1.3263877630233765,0,0,0.4586400091648102
1.720223421,0,0,1.3072341680526733,0,0,1.223039984703064
1.721224573,0,0,1.3694833517074585,0,0,0.8408399820327759
1.722224819,0,0,1.359906554222107,0,0,1.1466000080108643
1.723225601,0,0,1.3766659498214722,0,0,0.6879600286483765
1.724224032,0,0,1.601720929145813,0,0,0.5350799560546875
1.725224518,0,0,1.6376339197158813,0,0,0.8408399820327759
1.726224412,0,0,1.381454348564148,0,0,1.070159912109375
1.727225231,0,0,1.556231141090393,0,0,0.7644000053405762
1.728223754,0,0,1.644816517829895,0,0,0.6879600286483765
1.7292244810000001,0,0,1.3000515699386597,0,0,0.8408399820327759
1.730224505,0,0,1.3503297567367554,0,0,0.8408399820327759
1.731225417,0,0,1.3407529592514038,0,0,0.611519992351532
1.7322239769999999,0,0,1.4987702369689941,0,0,1.070159912109375
1.733224482,0,0,1.414973258972168,0,0,0.5350799560546875
1.734224486,0,0,1.4413094520568848,0,0,0.6879600286483765
1.735225491,0,0,1.534683346748352,0,0,1.2994799613952637
1.73622407,0,0,1.4676456451416016,0,0,0.8408399820327759
1.737228722,0,0,1.359906554222107,0,0,0.7644000053405762
1.738225042,0,0,1.5107412338256836,0,0,0.611519992351532
1.739226028,0,0,1.2689268589019775,0,0,1.070159912109375
1.7402307179999998,0,0,1.3503297567367554,0,0,0.611519992351532
1.741224871,0,0,1.3000515699386597,0,0,1.070159912109375
1.742224487,0,0,1.4652514457702637,0,0,0.9172800183296204
1.743225547,0,0,1.4389152526855469,0,0,0.5350799560546875
1.744224977,0,0,1.4748282432556152,0,0,0.9172800183296204
1.7452244270000001,0,0,1.5897499322891235,0,0,1.5288000106811523
1.7462243389999998,0,0,1.5466543436050415,0,0,0.0764399990439415
1.747225214,0,0,1.3192051649093628,0,0,0.7644000053405762
1.748223941,0,0,1.7070658206939697,0,0,0.9172800183296204
1.749224334,0,0,1.400607943534851,0,0,0.8408399820327759
1.7502244500000002,0,0,1.3215993642807007,0,0,0.6879600286483765
1.751225177,0,0,1.292868971824646,0,0,1.070159912109375
1.752223793,0,0,1.3862427473068237,0,0,0.6879600286483765
1.7532242789999999,0,0,1.3120225667953491,0,0,0.5350799560546875
1.754224154,0,0,1.3766659498214722,0,0,0.9937199950218201
1.75522527,0,0,1.5394717454910278,0,0,1.1466000080108643
1.7562994029999999,0,0,1.5634137392044067,0,0,0.0764399990439415
1.75722989,0,0,1.436521053314209,0,0,0.6879600286483765
1.7582246540000002,0,0,1.6639702320098877,0,0,1.070159912109375
1.7592252510000002,0,0,1.5107412338256836,0,0,0.9937199950218201
1.760224682,0,0,1.3287819623947144,0,0,0.611519992351532
1.761224279,0,0,1.4245500564575195,0,0,0.8408399820327759
1.762225451,0,0,1.4437036514282227,0,0,0.4586400091648102
1.7632252149999998,0,0,1.3527239561080933,0,0,0.8408399820327759
1.764225312,0,0,1.41257905960083,0,0,0.9937199950218201
1.765224428,0,0,1.5442601442337036,0,0,0.305759996175766
1.766224562,0,0,1.556231141090393,0,0,0.305759996175766
1.767276677,0,0,1.434126853942871,0,0,0.8408399820327759
1.768228405,0,0,1.625662922859192,0,0,0.9172800183296204
1.769225169,0,0,1.6615760326385498,0,0,0.8408399820327759
1.7702249509999999,0,0,1.3048399686813354,0,0,0.8408399820327759
1.77122603,0,0,1.3838485479354858,0,0,0.9172800183296204
1.77222159,0,0,1.2856862545013428,0,0,0.9172800183296204
1.7732223729999999,0,0,1.3886369466781616,0,0,0.8408399820327759
1.774222248,0,0,1.3694833517074585,0,0,0.7644000053405762
1.775249882,0,0,1.4676456451416016,0,0,0.2293200045824051
1.776225738,0,0,1.6112977266311646,0,0,1.070159912109375
1.7772391870000002,0,0,1.501164436340332,0,0,0.9172800183296204
1.7782255070000001,0,0,1.4772224426269531,0,0,0.7644000053405762
1.779225938,0,0,1.659181833267212,0,0,0.8408399820327759
1.7802242019999999,0,0,1.3120225667953491,0,0,0.9937199950218201
1.781224484,0,0,1.3958195447921753,0,0,0.6879600286483765
1.782225341,0,0,1.3215993642807007,0,0,0.9937199950218201
1.783226697,0,0,1.4293384552001953,0,0,0.9937199950218201
1.784224517,0,0,1.414973258972168,0,0,0.5350799560546875
1.785224966,0,0,1.455674648284912,0,0,0.7644000053405762
1.7862246370000001,0,0,1.6208745241165161,0,0,1.375920057296753
1.787225568,0,0,1.460463047027588,0,0,0.611519992351532
1.788224295,0,0,1.3694833517074585,0,0,0.6879600286483765
1.789224744,0,0,1.6352397203445435,0,0,0.7644000053405762
1.790224749,0,0,1.436521053314209,0,0,1.070159912109375
1.791225753,0,0,1.3335703611373901,0,0,0.5350799560546875
1.792223943,0,0,1.2258312702178955,0,0,1.223039984703064
1.7932248,0,0,1.2761094570159912,0,0,0.8408399820327759
1.7942246929999999,0,0,1.2976573705673218,0,0,0.6879600286483765
1.7952256420000001,0,0,1.50355863571167,0,0,0.611519992351532
1.796224388,0,0,1.5155296325683594,0,0,0.4586400091648102
1.797224744,0,0,1.5729905366897583,0,0,0.0764399990439415
1.798224545,0,0,1.4077905416488647,0,0,0.9172800183296204
1.799225013,0,0,1.6879122257232666,0,0,0.6879600286483765
1.8002279620000001,0,0,1.5155296325683594,0,0,0.7644000053405762
1.8012252439999998,0,0,1.3072341680526733,0,0,0.4586400091648102
1.80222449,0,0,1.3934253454208374,0,0,1.375920057296753
1.80331803,0,0,1.3934253454208374,0,0,0.4586400091648102
1.804245369,0,0,1.434126853942871,0,0,0.9937199950218201
1.805228245,0,0,1.4173674583435059,0,0,0.6879600286483765
1.806226138,0,0,1.5179238319396973,0,0,0.6879600286483765
1.8072283649999998,0,0,1.5897499322891235,0,0,1.070159912109375
1.8082267029999999,0,0,1.479616641998291,0,0,0.8408399820327759
1.8092285970000002,0,0,1.601720929145813,0,0,0.9172800183296204
1.8102267680000002,0,0,1.5753847360610962,0,0,0.9172800183296204
1.811226495,0,0,1.2832920551300049,0,0,0.8408399820327759
1.81222624,0,0,1.3263877630233765,0,0,1.070159912109375
1.813226097,0,0,1.3048399686813354,0,0,0.8408399820327759
1.814226213,0,0,1.4077905416488647,0,0,0.7644000053405762
1.815226292,0,0,1.4221558570861816,0,0,0.9172800183296204
1.816226444,0,0,1.50355863571167,0,0,0.611519992351532
1.817226153,0,0,1.5945383310317993,0,0,1.223039984703064
1.818226009,0,0,1.534683346748352,0,0,0.7644000053405762
1.819226162,0,0,1.5466543436050415,0,0,0.4586400091648102
1.820226111,0,0,1.647210717201233,0,0,0.8408399820327759
1.821226171,0,0,1.3263877630233765,0,0,0.9937199950218201
1.822226121,0,0,1.3742717504501343,0,0,0.4586400091648102
1.82322631,0,0,1.3096283674240112,0,0,0.9937199950218201
1.8242261480000002,0,0,1.434126853942871,0,0,0.7644000053405762
1.8252262830000001,0,0,1.400607943534851,0,0,0.9172800183296204
1.8262261020000001,0,0,1.4293384552001953,0,0,0.8408399820327759
1.827227144,0,0,1.6543933153152466,0,0,1.5288000106811523
1.828224667,0,0,1.5322890281677246,0,0,0.305759996175766
1.8292260420000002,0,0,1.359906554222107,0,0,0.4586400091648102
1.830226103,0,0,1.6855180263519287,0,0,0.7644000053405762
1.831226829,0,0,1.41257905960083,0,0,1.1466000080108643
1.832225519,0,0,1.359906554222107,0,0,0.5350799560546875
1.833226172,0,0,1.3096283674240112,0,0,1.1466000080108643
1.834237917,0,0,1.3407529592514038,0,0,0.6879600286483765
1.8352279409999999,0,0,1.3958195447921753,0,0,0.7644000053405762
1.836226038,0,0,1.403002142906189,0,0,0.9172800183296204
1.837226469,0,0,1.4844050407409668,0,0,0.8408399820327759
1.838226214,0,0,1.4867992401123047,0,0,0
1.839226719,0,0,1.403002142906189,0,0,1.223039984703064
1.840223168,0,0,1.6711528301239014,0,0,1.1466000080108643
1.841228932,0,0,1.45806884765625,0,0,0.6879600286483765
1.842224085,0,0,1.3407529592514038,0,0,1.1466000080108643
1.8432880699999998,0,0,1.3192051649093628,0,0,0.9937199950218201
1.8442299640000002,0,0,1.4053963422775269,0,0,0.4586400091648102
1.8452266910000001,0,0,1.3335703611373901,0,0,0.7644000053405762
1.846226196,0,0,1.41257905960083,0,0,0.611519992351532
1.847226775,0,0,1.5610195398330688,0,0,0.6879600286483765
1.84822565,0,0,1.3694833517074585,0,0,0.0764399990439415
1.84922758,0,0,1.5275006294250488,0,0,0.8408399820327759
1.850226122,0,0,1.6280571222305298,0,0,0.9172800183296204
1.8512277560000001,0,0,1.335964560508728,0,0,0.8408399820327759
1.852226113,0,0,1.4700398445129395,0,0,0.9937199950218201
1.85322634,0,0,1.3239935636520386,0,0,0.5350799560546875
1.8542260480000001,0,0,1.4460978507995605,0,0,1.070159912109375
1.8552269049999999,0,0,1.3910311460494995,0,0,0.9937199950218201
1.8562230579999999,0,0,1.4676456451416016,0,0,0.611519992351532
1.8572236549999999,0,0,1.5729905366897583,0,0,0.5350799560546875
1.858223715,0,0,1.4676456451416016,0,0,1.5288000106811523
1.859225961,0,0,1.4293384552001953,0,0,1.070159912109375
1.86023165,0,0,1.699883222579956,0,0,0.7644000053405762
1.861226692,0,0,1.3048399686813354,0,0,0.7644000053405762
1.862226197,0,0,1.335964560508728,0,0,1.375920057296753
1.863227498,0,0,1.278503656387329,0,0,0.4586400091648102
1.86422741,0,0,1.434126853942871,0,0,0.9172800183296204
1.865252044,0,0,1.3551181554794312,0,0,0.8408399820327759
1.866227512,0,0,1.3862427473068237,0,0,0.6879600286483765
1.8672276650000001,0,0,1.5729905366897583,0,0,0.6879600286483765
1.868228873,0,0,1.5849615335464478,0,0,1.452359914779663
1.869249859,0,0,1.4077905416488647,0,0,0.305759996175766
1.870236975,0,0,1.843535304069519,0,0,0.8408399820327759
1.871226609,0,0,1.460463047027588,0,0,0.9172800183296204
1.872226633,0,0,1.2713210582733154,0,0,0.9937199950218201
1.873230841,0,0,1.3192051649093628,0,0,0.6879600286483765
1.874226623,0,0,1.4173674583435059,0,0,1.2994799613952637
1.875227221,0,0,1.414973258972168,0,0,0.5350799560546875
1.8762253549999999,0,0,1.2952631711959839,0,0,0.8408399820327759
1.8772261559999999,0,0,1.5634137392044067,0,0,0.9172800183296204
1.8782263270000001,0,0,1.5753847360610962,0,0,1.223039984703064
1.879226925,0,0,1.403002142906189,0,0,0.305759996175766
1.880225633,0,0,1.5753847360610962,0,0,0.9172800183296204
1.881226341,0,0,1.4987702369689941,0,0,0.9172800183296204
1.882226383,0,0,1.3623007535934448,0,0,1.070159912109375
1.883226777,0,0,1.3670891523361206,0,0,0.9172800183296204
1.884225448,0,0,1.2952631711959839,0,0,0.7644000053405762
1.8852259340000002,0,0,1.4269442558288574,0,0,0.611519992351532
1.886226087,0,0,1.3072341680526733,0,0,0.9172800183296204
1.887226832,0,0,1.5322890281677246,0,0,0.6879600286483765
1.8882254299999999,0,0,1.5729905366897583,0,0,0.6879600286483765
1.88922562,0,0,1.5083470344543457,0,0,0.0764399990439415
1.890226217,0,0,1.5203180313110352,0,0,0.9937199950218201
1.891226796,0,0,1.5442601442337036,0,0,1.070159912109375
1.8922252259999999,0,0,1.3335703611373901,0,0,0.5350799560546875
1.893225638,0,0,1.4508862495422363,0,0,0.9172800183296204
1.894226106,0,0,1.3766659498214722,0,0,0.9172800183296204
1.8952267219999999,0,0,1.4772224426269531,0,0,0.611519992351532
1.896225541,0,0,1.3886369466781616,0,0,0.6879600286483765
1.897226139,0,0,1.4700398445129395,0,0,0.611519992351532
1.898225736,0,0,1.5490485429763794,0,0,1.2994799613952637
1.899226759,0,0,1.4484920501708984,0,0,1.375920057296753
1.900225616,0,0,1.4437036514282227,0,0,0.5350799560546875
1.901225972,0,0,1.678335428237915,0,0,1.070159912109375
1.902234236,0,0,1.3670891523361206,0,0,0.611519992351532
1.903288351,0,0,1.4437036514282227,0,0,0.9172800183296204
1.904268245,0,0,1.316810965538025,0,0,0.611519992351532
1.9052454170000002,0,0,1.338358759880066,0,0,0.9937199950218201
1.906228033,0,0,1.2856862545013428,0,0,0.7644000053405762
1.907226889,0,0,1.403002142906189,0,0,0.4586400091648102
1.908226097,0,0,1.5538369417190552,0,0,0.9172800183296204
1.9092258979999999,0,0,1.479616641998291,0,0,1.375920057296753
1.910226236,0,0,1.314416766166687,0,0,0.152879998087883
1.911227593,0,0,1.6759412288665771,0,0,0.6879600286483765
1.912226153,0,0,1.403002142906189,0,0,0.6879600286483765
1.913226251,0,0,1.3096283674240112,0,0,1.452359914779663
1.914225533,0,0,1.357512354850769,0,0,0.4586400091648102
1.915226871,0,0,1.3287819623947144,0,0,0.9172800183296204
1.916225616,0,0,1.4101848602294922,0,0,0.6879600286483765
1.9172261210000001,0,0,1.4293384552001953,0,0,1.070159912109375
1.9182261999999999,0,0,1.6424223184585571,0,0,0.9172800183296204
1.919226686,0,0,1.4939818382263184,0,0,0.6879600286483765
1.920225431,0,0,1.3215993642807007,0,0,0.4586400091648102
1.9212259729999999,0,0,1.5466543436050415,0,0,0.9172800183296204
1.922226126,0,0,1.4700398445129395,0,0,1.070159912109375
1.923226686,0,0,1.2856862545013428,0,0,0.6879600286483765
1.9242255240000001,0,0,1.3742717504501343,0,0,0.7644000053405762
1.92522601,0,0,1.2832920551300049,0,0,1.1466000080108643
1.926241015,0,0,1.4389152526855469,0,0,0.611519992351532
1.927257575,0,0,1.357512354850769,0,0,0.8408399820327759
1.928227024,0,0,1.4053963422775269,0,0,0.6879600286483765
1.929226807,0,0,1.5729905366897583,0,0,0.611519992351532
1.930226238,0,0,1.4437036514282227,0,0,0.5350799560546875
1.931226964,0,0,1.5275006294250488,0,0,0.9172800183296204
1.932225228,0,0,1.6352397203445435,0,0,1.070159912109375
1.933226233,0,0,1.2737152576446533,0,0,0.611519992351532
1.93422583,0,0,1.2952631711959839,0,0,-37.68491744995117
1.9352261309999998,0,0,1.2521674633026123,0,0,0.9172800183296204
1.9362252290000002,0,0,1.4867992401123047,0,0,0.7644000053405762
1.9372260479999999,0,0,1.3958195447921753,0,0,0.9172800183296204
1.938226238,0,0,1.4460978507995605,0,0,0.611519992351532
1.939226706,0,0,1.5897499322891235,0,0,0.8408399820327759
1.940225673,0,0,1.4652514457702637,0,0,1.375920057296753
1.9412258260000002,0,0,1.4532804489135742,0,0,1.070159912109375
1.942225997,0,0,1.7621324062347412,0,0,0.8408399820327759
1.9432266870000001,0,0,1.3694833517074585,0,0,0.611519992351532
1.944225562,0,0,1.3503297567367554,0,0,1.2994799613952637
1.9452260300000002,0,0,1.2066776752471924,0,0,0.4586400091648102
1.946225998,0,0,1.4317326545715332,0,0,1.1466000080108643
1.94722678,0,0,1.4413094520568848,0,0,0.9937199950218201
1.9482255259999999,0,0,1.4413094520568848,0,0,0.8408399820327759
1.949226086,0,0,1.5298948287963867,0,0,0.8408399820327759
1.950226091,0,0,1.5538369417190552,0,0,1.5288000106811523
1.9512267250000002,0,0,1.4460978507995605,0,0,0.3822000026702881
1.9522256,0,0,1.7118542194366455,0,0,0.6879600286483765
1.953226012,0,0,1.4413094520568848,0,0,0.3822000026702881
1.954226072,0,0,1.3934253454208374,0,0,0.9172800183296204
1.955226744,0,0,1.3862427473068237,0,0,0.4586400091648102
1.9562253410000001,0,0,1.4077905416488647,0,0,1.070159912109375
1.957225623,0,0,1.3646949529647827,0,0,0.3822000026702881
1.9582263690000001,0,0,1.3670891523361206,0,0,0.7644000053405762
1.959226799,0,0,1.5610195398330688,0,0,0.8408399820327759
1.960240433,0,0,1.5729905366897583,0,0,1.070159912109375
1.961227716,0,0,1.455674648284912,0,0,0.305759996175766
1.962226276,0,0,1.6711528301239014,0,0,0.9172800183296204
1.9632273919999998,0,0,1.6136919260025024,0,0,0.8408399820327759
1.9642260820000002,0,0,1.3479355573654175,0,0,0.6879600286483765
1.965226013,0,0,1.3431471586227417,0,0,0.9172800183296204
1.966226091,0,0,1.3120225667953491,0,0,0.611519992351532
1.967228559,0,0,1.3910311460494995,0,0,0.6879600286483765
1.968226638,0,0,1.3958195447921753,0,0,0.6879600286483765
1.969242253,0,0,1.6160861253738403,0,0,0.7644000053405762
1.970226629,0,0,1.5921441316604614,0,0,0.152879998087883
1.9712272259999999,0,0,1.460463047027588,0,0,0.611519992351532
1.972225342,0,0,1.5083470344543457,0,0,0.9937199950218201
1.973225958,0,0,1.6328455209732056,0,0,0.9172800183296204
1.974226129,0,0,1.2665326595306396,0,0,0.611519992351532
1.9752264849999999,0,0,1.4053963422775269,0,0,0.9937199950218201
1.9762256379999998,0,0,1.3096283674240112,0,0,0.5350799560546875
1.9772260130000001,0,0,1.4508862495422363,0,0,0.8408399820327759
1.978226129,0,0,1.3982137441635132,0,0,0.9937199950218201
1.979226412,0,0,1.455674648284912,0,0,0.7644000053405762
1.980225694,0,0,1.6041151285171509,0,0,1.070159912109375
1.981226199,0,0,1.5418659448623657,0,0,1.452359914779663
1.982226,0,0,1.3718775510787964,0,0,0.9172800183296204
1.983226652,0,0,1.7190368175506592,0,0,0.8408399820327759
1.984225657,0,0,1.400607943534851,0,0,0.8408399820327759
1.9852259399999999,0,0,1.3623007535934448,0,0,1.452359914779663
1.98622613,0,0,1.314416766166687,0,0,0.6879600286483765
1.987226782,0,0,1.3958195447921753,0,0,1.223039984703064
1.9882254910000001,0,0,1.3862427473068237,0,0,1.070159912109375
1.989226218,0,0,1.460463047027588,0,0,0.7644000053405762
1.9902261110000001,0,0,1.5897499322891235,0,0,0.8408399820327759
1.9912267830000001,0,0,1.5753847360610962,0,0,0.8408399820327759
1.9922256950000001,0,0,1.4245500564575195,0,0,0.3822000026702881
1.993226125,0,0,1.6663644313812256,0,0,0.9937199950218201
1.9942262039999998,0,0,1.580173134803772,0,0,0.5350799560546875
1.9952267639999999,0,0,1.3862427473068237,0,0,0.8408399820327759
1.9962257129999998,0,0,1.3958195447921753,0,0,0.611519992351532
1.9972255140000001,0,0,1.335964560508728,0,0,1.1466000080108643
1.998226001,0,0,1.4508862495422363,0,0,0.3822000026702881
1.999226561,0,0,1.4173674583435059,0,0,0.9172800183296204
2.000224788,0,0,1.5418659448623657,0,0,0.8408399820327759
2.001225478,0,0,1.525106430053711,0,0,0.2293200045824051
2.002226223,0,0,1.4269442558288574,0,0,0.4586400091648102
2.003226746,0,0,1.5753847360610962,0,0,1.070159912109375
2.00422551,0,0,1.6615760326385498,0,0,1.223039984703064
2.005225885,0,0,1.3407529592514038,0,0,0.6879600286483765
2.006226001,0,0,1.3551181554794312,0,0,0.8408399820327759
2.007226543,0,0,1.2641384601593018,0,0,0.9937199950218201
2.008223103,0,0,1.4413094520568848,0,0,0.8408399820327759
2.009223441,0,0,1.3838485479354858,0,0,1.070159912109375
2.010226372,0,0,1.4317326545715332,0,0,0.9172800183296204
2.011225987,0,0,1.6543933153152466,0,0,0.9172800183296204
2.012226362,0,0,1.501164436340332,0,0,1.375920057296753
2.013225645,0,0,1.4484920501708984,0,0,0.8408399820327759
2.014225557,0,0,1.6759412288665771,0,0,0.8408399820327759
2.015225506,0,0,1.3646949529647827,0,0,0.7644000053405762
2.016225696,0,0,1.3766659498214722,0,0,1.1466000080108643
2.017225256,0,0,1.2425906658172607,0,0,0.6879600286483765
2.018225502,0,0,1.357512354850769,0,0,0.9937199950218201
2.019225691,0,0,1.338358759880066,0,0,0.7644000053405762
2.020225511,0,0,1.403002142906189,0,0,0.8408399820327759
2.021225386,0,0,1.6184803247451782,0,0,0.7644000053405762
2.022224965,0,0,1.623268723487854,0,0,1.6816799640655518
2.02322571,0,0,1.3766659498214722,0,0,0.6879600286483765
2.024225808,0,0,1.7405846118927002,0,0,0.5350799560546875
2.025225516,0,0,1.4389152526855469,0,0,0.4586400091648102
2.026225465,0,0,1.400607943534851,0,0,0.9937199950218201
2.027226377,0,0,1.4077905416488647,0,0,0.9172800183296204
2.028224678,0,0,1.3862427473068237,0,0,0.9172800183296204
2.029225349,0,0,1.460463047027588,0,0,0.8408399820327759
2.030225799,0,0,1.2952631711959839,0,0,0.611519992351532
2.031226266,0,0,1.5490485429763794,0,0,0.7644000053405762
2.032225234,0,0,1.4963760375976563,0,0,1.2994799613952637
2.033234553,0,0,1.2641384601593018,0,0,0.305759996175766
2.034226225,0,0,1.6639702320098877,0,0,0.611519992351532
2.035226285,0,0,1.558625340461731,0,0,0.9172800183296204
2.03622503,0,0,1.3838485479354858,0,0,1.1466000080108643
2.037225757,0,0,1.3455413579940796,0,0,0.611519992351532
2.038225651,0,0,1.2665326595306396,0,0,0.9937199950218201
2.039226119,0,0,1.3934253454208374,0,0,0.611519992351532
2.04023629,0,0,1.4293384552001953,0,0,0.6879600286483765
2.041226498,0,0,1.558625340461731,0,0,0.9172800183296204
2.042225855,0,0,1.599326729774475,0,0,0.8408399820327759
2.043226452,0,0,1.3503297567367554,0,0,0.152879998087883
2.044224216,0,0,1.5203180313110352,0,0,0.8408399820327759
2.045225721,0,0,1.5538369417190552,0,0,1.452359914779663
2.046225411,0,0,1.235408067703247,0,0,0.6879600286483765
2.047226508,0,0,1.4532804489135742,0,0,0.611519992351532
2.048225068,0,0,1.3215993642807007,0,0,0.9937199950218201
2.049340534,0,0,1.3958195447921753,0,0,0.7644000053405762
2.050228855,0,0,1.357512354850769,0,0,1.1466000080108643
2.051226693,0,0,1.482010841369629,0,0,0.8408399820327759
2.052225346,0,0,1.5418659448623657,0,0,0.5350799560546875
2.053225425,0,0,1.4628572463989258,0,0,0.5350799560546875
2.054225985,0,0,1.4389152526855469,0,0,0.9172800183296204
2.055226379,0,0,1.6927006244659424,0,0,0.8408399820327759
2.05622518,0,0,1.400607943534851,0,0,0.6879600286483765
2.057225407,0,0,1.4053963422775269,0,0,0.9937199950218201
2.058225411,0,0,1.2832920551300049,0,0,0.9172800183296204
2.059226212,0,0,1.37906014919281,0,0,1.070159912109375
2.060225106,0,0,1.3886369466781616,0,0,0.9172800183296204
2.061225425,0,0,1.4269442558288574,0,0,0.6879600286483765
2.062225578,0,0,1.6184803247451782,0,0,0.611519992351532
2.06322599,0,0,1.558625340461731,0,0,1.605239987373352
2.064224699,0,0,1.3455413579940796,0,0,0.6879600286483765
2.065225166,0,0,1.7477672100067139,0,0,0.9172800183296204
2.066238597,0,0,1.4724340438842773,0,0,0.7644000053405762
2.067229694,0,0,1.3000515699386597,0,0,1.223039984703064
2.068226643,0,0,1.290474772453308,0,0,0.5350799560546875
2.069385627,0,0,1.3910311460494995,0,0,1.070159912109375
2.070271115,0,0,1.4413094520568848,0,0,0.6879600286483765
