Time,AccelX1,AccelY1,AccelZ1,AccelX2,AccelY2,AccelZ2
0.000176184,0,0,1.6855180263519287,0,0,0.611519992351532
0.001068452,0,0,1.6855180263519287,0,0,1.070159912109375
0.002036572,0,0,1.6855180263519287,0,0,0.8408399820327759
0.003034155,0,0,1.6855180263519287,0,0,0.9937199950218201
0.004033885,0,0,1.623268723487854,0,0,1.2994799613952637
0.005051653,0,0,1.623268723487854,0,0,0.8408399820327759
0.006059346,0,0,1.623268723487854,0,0,0.7644000053405762
0.007058836,0,0,1.623268723487854,0,0,0.9937199950218201
0.00804766,0,0,1.623268723487854,0,0,0.7644000053405762
0.009038057,0,0,1.623268723487854,0,0,0.8408399820327759
0.010036806,0,0,1.623268723487854,0,0,0.8408399820327759
0.011033759,0,0,1.5203180313110352,0,0,1.070159912109375
0.012033805,0,0,1.5203180313110352,0,0,1.223039984703064
0.013033683,0,0,1.5203180313110352,0,0,0.6879600286483765
0.014034359,0,0,1.5203180313110352,0,0,0.7644000053405762
0.01503383,0,0,1.5203180313110352,0,0,1.070159912109375
0.016033616,0,0,1.5203180313110352,0,0,0.7644000053405762
0.017035051,0,0,1.5203180313110352,0,0,0.9172800183296204
0.0180378,0,0,1.5203180313110352,0,0,0.7644000053405762
0.019034123,0,0,1.4772224426269531,0,0,0.7644000053405762
0.020033761,0,0,1.4772224426269531,0,0,0.9937199950218201
0.021033621,0,0,1.4772224426269531,0,0,0.7644000053405762
0.022034167,0,0,1.4772224426269531,0,0,0.7644000053405762
0.02303362,0,0,1.4772224426269531,0,0,0.9172800183296204
0.024033702,0,0,1.4772224426269531,0,0,0.7644000053405762
0.025033655,0,0,1.4772224426269531,0,0,0.6879600286483765
0.026034682,0,0,1.3958195447921753,0,0,0.9937199950218201
0.027033801,0,0,1.3958195447921753,0,0,0.8408399820327759
0.028033643,0,0,1.3958195447921753,0,0,0.8408399820327759
0.029033855,0,0,1.3958195447921753,0,0,0.8408399820327759
0.030033919,0,0,1.3958195447921753,0,0,0.5350799560546875
0.031037705,0,0,1.3958195447921753,0,0,0.8408399820327759
0.032033973,0,0,1.3958195447921753,0,0,0.3822000026702881
0.033049444,0,0,1.3048399686813354,0,0,0.611519992351532
0.034037249,0,0,1.3048399686813354,0,0,0.8408399820327759
0.035035424,0,0,1.3048399686813354,0,0,0.8408399820327759
0.036035359,0,0,1.3048399686813354,0,0,1.1466000080108643
0.03703533,0,0,1.3048399686813354,0,0,1.223039984703064
0.038035246,0,0,1.3048399686813354,0,0,0.9937199950218201
0.03903518,0,0,1.3048399686813354,0,0,0.8408399820327759
0.040035022,0,0,1.3000515699386597,0,0,0.6879600286483765
0.041035067,0,0,1.3000515699386597,0,0,0.5350799560546875
0.04203515,0,0,1.3000515699386597,0,0,1.070159912109375
0.04303501,0,0,1.3000515699386597,0,0,0.5350799560546875
0.044035,0,0,1.3000515699386597,0,0,1.1466000080108643
0.045034879,0,0,1.3000515699386597,0,0,1.070159912109375
0.046035147,0,0,1.3000515699386597,0,0,0.8408399820327759
0.04703484,0,0,1.3048399686813354,0,0,0.611519992351532
0.048035089,0,0,1.3048399686813354,0,0,0.8408399820327759
0.049034802,0,0,1.3048399686813354,0,0,0.8408399820327759
0.05003518,0,0,1.3048399686813354,0,0,0.6879600286483765
0.051035967,0,0,1.3048399686813354,0,0,0.9172800183296204
0.052035253,0,0,1.3048399686813354,0,0,0.611519992351532
0.053035132,0,0,1.3048399686813354,0,0,0.9937199950218201
0.054035399,0,0,1.3718775510787964,0,0,0.9172800183296204
0.055035297,0,0,1.3718775510787964,0,0,0.8408399820327759
0.056035212,0,0,1.3718775510787964,0,0,0.7644000053405762
0.057038961,0,0,1.3718775510787964,0,0,0.7644000053405762
0.058035285,0,0,1.3718775510787964,0,0,1.070159912109375
0.059035275,0,0,1.3718775510787964,0,0,0.9172800183296204
0.060035005,0,0,1.3718775510787964,0,0,0.7644000053405762
0.061035236,0,0,1.4484920501708984,0,0,0.9937199950218201
0.062038374,0,0,1.4484920501708984,0,0,0.7644000053405762
0.06303516,0,0,1.4484920501708984,0,0,0.611519992351532
0.064035132,0,0,1.4484920501708984,0,0,0.9172800183296204
0.065047936,0,0,1.4484920501708984,0,0,0.9172800183296204
0.066036704,0,0,1.4484920501708984,0,0,0.9937199950218201
0.067035249,0,0,1.4484920501708984,0,0,0.7644000053405762
0.06803511,0,0,1.5466543436050415,0,0,0.7644000053405762
0.069034933,0,0,1.5466543436050415,0,0,0.9172800183296204
0.070035015,0,0,1.5466543436050415,0,0,0.9172800183296204
0.071035061,0,0,1.5466543436050415,0,0,0.4586400091648102
0.072034921,0,0,1.5466543436050415,0,0,0.8408399820327759
0.073034819,0,0,1.5466543436050415,0,0,0.6879600286483765
0.074035031,0,0,1.5466543436050415,0,0,0.9172800183296204
0.075050206,0,0,1.5466543436050415,0,0,0.611519992351532
0.076036881,0,0,1.659181833267212,0,0,0.8408399820327759
0.077070593,0,0,1.659181833267212,0,0,0.7644000053405762
0.078083305,0,0,1.659181833267212,0,0,0.8408399820327759
0.079091498,0,0,1.659181833267212,0,0,0.6879600286483765
0.080091507,0,0,1.659181833267212,0,0,0.305759996175766
0.081073404,0,0,1.659181833267212,0,0,0.6879600286483765
0.082060801,0,0,1.659181833267212,0,0,0.7644000053405762
0.083048495,0,0,1.5538369417190552,0,0,0.8408399820327759
0.084035337,0,0,1.5538369417190552,0,0,0.611519992351532
0.085034179,0,0,1.5538369417190552,0,0,0.7644000053405762
0.086035465,0,0,1.5538369417190552,0,0,0.2293200045824051
0.08703414,0,0,1.5538369417190552,0,0,0.8408399820327759
0.088034074,0,0,1.5538369417190552,0,0,0.611519992351532
0.089034379,0,0,1.5538369417190552,0,0,0.8408399820327759
0.090035628,0,0,1.6543933153152466,0,0,0.9172800183296204
0.091034063,0,0,1.6543933153152466,0,0,1.070159912109375
0.092034034,0,0,1.6543933153152466,0,0,0.5350799560546875
0.093038857,0,0,1.6543933153152466,0,0,0.8408399820327759
0.09403794,0,0,1.6543933153152466,0,0,0.6879600286483765
0.095035596,0,0,1.6543933153152466,0,0,0.5350799560546875
0.096035346,0,0,1.6543933153152466,0,0,1.1466000080108643
0.097035539,0,0,1.6543933153152466,0,0,0.611519992351532
0.098035436,0,0,1.4484920501708984,0,0,0.9172800183296204
0.099035704,0,0,1.4484920501708984,0,0,0.8408399820327759
0.10003549,0,0,1.4484920501708984,0,0,0.9172800183296204
0.101035517,0,0,1.4484920501708984,0,0,1.375920057296753
0.102035544,0,0,1.4484920501708984,0,0,0.7644000053405762
0.103035516,0,0,1.4484920501708984,0,0,0.611519992351532
0.104035635,0,0,1.4484920501708984,0,0,0.6879600286483765
0.105035329,0,0,1.4077905416488647,0,0,0.7644000053405762
0.106035337,0,0,1.4077905416488647,0,0,0.611519992351532
0.107035475,0,0,1.4077905416488647,0,0,1.1466000080108643
0.108035447,0,0,1.4077905416488647,0,0,0.7644000053405762
0.109035288,0,0,1.4077905416488647,0,0,0.8408399820327759
0.110035482,0,0,1.4077905416488647,0,0,0.8408399820327759
0.111035509,0,0,1.4077905416488647,0,0,0.8408399820327759
0.112037554,0,0,1.3766659498214722,0,0,0.9172800183296204
0.113035415,0,0,1.3766659498214722,0,0,0.8408399820327759
0.114035331,0,0,1.3766659498214722,0,0,0.611519992351532
0.115036302,0,0,1.3766659498214722,0,0,0.9172800183296204
0.116035514,0,0,1.3766659498214722,0,0,0.7644000053405762
0.1170353,0,0,1.3766659498214722,0,0,0.5350799560546875
0.11803529,0,0,1.3766659498214722,0,0,0.9172800183296204
0.119035595,0,0,1.2832920551300049,0,0,0.611519992351532
0.120035418,0,0,1.2832920551300049,0,0,0.7644000053405762
0.121035686,0,0,1.2832920551300049,0,0,0.8408399820327759
0.122035416,0,0,1.2832920551300049,0,0,0.9172800183296204
0.123035369,0,0,1.2832920551300049,0,0,0.9172800183296204
0.124038137,0,0,1.2832920551300049,0,0,0.9937199950218201
0.125035627,0,0,1.2832920551300049,0,0,0.611519992351532
0.12603558,0,0,1.2832920551300049,0,0,0.6879600286483765
0.12703531,0,0,1.403002142906189,0,0,0.5350799560546875
0.12803543,0,0,1.403002142906189,0,0,0.9172800183296204
0.129054512,0,0,1.403002142906189,0,0,0.611519992351532
0.130037743,0,0,1.403002142906189,0,0,0.7644000053405762
0.131035437,0,0,1.403002142906189,0,0,0.8408399820327759
0.132035334,0,0,1.403002142906189,0,0,0.9172800183296204
0.133035268,0,0,1.403002142906189,0,0,0.8408399820327759
0.134035443,0,0,1.4987702369689941,0,0,0.7644000053405762
0.135035193,0,0,1.4987702369689941,0,0,0.5350799560546875
0.136035497,0,0,1.4987702369689941,0,0,0.6879600286483765
0.137038802,0,0,1.4987702369689941,0,0,0.6879600286483765
0.138035903,0,0,1.4987702369689941,0,0,0.9172800183296204
0.139035319,0,0,1.4987702369689941,0,0,0.8408399820327759
0.140035383,0,0,1.4987702369689941,0,0,0.5350799560546875
0.141035391,0,0,1.5298948287963867,0,0,0.9172800183296204
0.142035363,0,0,1.5298948287963867,0,0,1.070159912109375
0.14303539,0,0,1.5298948287963867,0,0,0.8408399820327759
0.144035324,0,0,1.5298948287963867,0,0,0.7644000053405762
0.145035351,0,0,1.5298948287963867,0,0,0.7644000053405762
0.146035507,0,0,1.5298948287963867,0,0,0.4586400091648102
0.147035757,0,0,1.5298948287963867,0,0,0.9937199950218201
0.148035376,0,0,1.5298948287963867,0,0,0.9937199950218201
0.149035273,0,0,1.7046716213226318,0,0,0.6879600286483765
0.150035374,0,0,1.7046716213226318,0,0,1.070159912109375
0.151035235,0,0,1.7046716213226318,0,0,0.3822000026702881
0.152035262,0,0,1.7046716213226318,0,0,0.9172800183296204
0.153035233,0,0,1.7046716213226318,0,0,0.8408399820327759
0.154035612,0,0,1.7046716213226318,0,0,0.5350799560546875
0.155038046,0,0,1.7046716213226318,0,0,1.070159912109375
0.156035832,0,0,1.6065093278884888,0,0,0.6879600286483765
0.157035341,0,0,1.6065093278884888,0,0,0.4586400091648102
0.158035331,0,0,1.6065093278884888,0,0,0.6879600286483765
0.159035376,0,0,1.6065093278884888,0,0,0.6879600286483765
0.160035329,0,0,1.6065093278884888,0,0,0.4586400091648102
0.161035412,0,0,1.6065093278884888,0,0,1.070159912109375
0.16203542,0,0,1.6065093278884888,0,0,0.5350799560546875
0.163035373,0,0,1.4844050407409668,0,0,0.9172800183296204
0.164035548,0,0,1.4844050407409668,0,0,0.6879600286483765
0.165035316,0,0,1.4844050407409668,0,0,0.9172800183296204
0.16603612,0,0,1.4844050407409668,0,0,0.8408399820327759
0.167035425,0,0,1.4844050407409668,0,0,0.611519992351532
0.168035322,0,0,1.4844050407409668,0,0,0.8408399820327759
0.169035331,0,0,1.4844050407409668,0,0,0.7644000053405762
0.170035358,0,0,1.4844050407409668,0,0,1.070159912109375
0.171035274,0,0,1.5705963373184204,0,0,0.6879600286483765
0.172035301,0,0,1.5705963373184204,0,0,0.7644000053405762
0.173035531,0,0,1.5705963373184204,0,0,0.7644000053405762
0.174035391,0,0,1.5705963373184204,0,0,1.070159912109375
0.175035252,0,0,1.5705963373184204,0,0,0.6879600286483765
0.176035445,0,0,1.5705963373184204,0,0,0.9937199950218201
0.177035639,0,0,1.5705963373184204,0,0,0.8408399820327759
0.17803537,0,0,1.455674648284912,0,0,0.9172800183296204
0.179035767,0,0,1.455674648284912,0,0,0.9172800183296204
0.180035386,0,0,1.455674648284912,0,0,0.4586400091648102
0.181035358,0,0,1.455674648284912,0,0,0.9172800183296204
0.182035329,0,0,1.455674648284912,0,0,0.9172800183296204
0.183035467,0,0,1.455674648284912,0,0,0.5350799560546875
0.184035216,0,0,1.455674648284912,0,0,0.9937199950218201
0.185035317,0,0,1.3646949529647827,0,0,0.6879600286483765
0.186037696,0,0,1.3646949529647827,0,0,0.9172800183296204
0.187035557,0,0,1.3646949529647827,0,0,0.7644000053405762
0.188035361,0,0,1.3646949529647827,0,0,0.9937199950218201
0.189035388,0,0,1.3646949529647827,0,0,0.9172800183296204
0.19003523,0,0,1.3646949529647827,0,0,0.8408399820327759
0.191035183,0,0,1.3646949529647827,0,0,0.611519992351532
0.192035469,0,0,1.3646949529647827,0,0,0.5350799560546875
0.1930352,0,0,1.403002142906189,0,0,0.6879600286483765
0.194035319,0,0,1.403002142906189,0,0,0.6879600286483765
0.195035698,0,0,1.403002142906189,0,0,0.9172800183296204
0.196036447,0,0,1.403002142906189,0,0,0.9937199950218201
0.197035363,0,0,1.403002142906189,0,0,0.8408399820327759
0.19803552,0,0,1.403002142906189,0,0,1.070159912109375
0.199035324,0,0,1.403002142906189,0,0,0.8408399820327759
0.200035407,0,0,1.2856862545013428,0,0,0.8408399820327759
0.201035452,0,0,1.2856862545013428,0,0,0.8408399820327759
0.202035368,0,0,1.2856862545013428,0,0,0.6879600286483765
0.203035469,0,0,1.2856862545013428,0,0,0.5350799560546875
0.204035459,0,0,1.2856862545013428,0,0,0.9172800183296204
0.205035319,0,0,1.2856862545013428,0,0,0.7644000053405762
0.206035531,0,0,1.2856862545013428,0,0,0.8408399820327759
0.207035447,0,0,1.3551181554794312,0,0,1.070159912109375
0.208035289,0,0,1.3551181554794312,0,0,0.7644000053405762
0.209035316,0,0,1.3551181554794312,0,0,0.9172800183296204
0.210035491,0,0,1.3551181554794312,0,0,0.6879600286483765
0.211042666,0,0,1.3551181554794312,0,0,0.611519992351532
0.2120366,0,0,1.3551181554794312,0,0,0.7644000053405762
0.21303535,0,0,1.3551181554794312,0,0,0.9937199950218201
0.21403521,0,0,1.3551181554794312,0,0,0.7644000053405762
0.215035255,0,0,1.3862427473068237,0,0,1.070159912109375
0.216035319,0,0,1.3862427473068237,0,0,0.6879600286483765
0.217037698,0,0,1.3862427473068237,0,0,0.9937199950218201
0.218035614,0,0,1.3862427473068237,0,0,0.7644000053405762
0.219035437,0,0,1.3862427473068237,0,0,0.611519992351532
0.220035279,0,0,1.3862427473068237,0,0,0.8408399820327759
0.221035195,0,0,1.3862427473068237,0,0,1.1466000080108643
0.222035277,0,0,1.4724340438842773,0,0,0.611519992351532
0.223035397,0,0,1.4724340438842773,0,0,0.9172800183296204
0.224035405,0,0,1.4724340438842773,0,0,0.5350799560546875
0.225035303,0,0,1.4724340438842773,0,0,0.9172800183296204
0.226035311,0,0,1.4724340438842773,0,0,0.5350799560546875
0.227035375,0,0,1.4724340438842773,0,0,0.6879600286483765
0.228035383,0,0,1.4724340438842773,0,0,0.7644000053405762
0.229035521,0,0,1.601720929145813,0,0,0.9172800183296204
0.230035363,0,0,1.601720929145813,0,0,0.8408399820327759
0.231035353,0,0,1.601720929145813,0,0,0.7644000053405762
0.232035417,0,0,1.601720929145813,0,0,0.9172800183296204
0.233035203,0,0,1.601720929145813,0,0,0.8408399820327759
0.234035304,0,0,1.601720929145813,0,0,0.8408399820327759
0.235035387,0,0,1.601720929145813,0,0,0.611519992351532
0.236035469,0,0,1.5682021379470825,0,0,0.9172800183296204
0.237040533,0,0,1.5682021379470825,0,0,0.5350799560546875
0.238056023,0,0,1.5682021379470825,0,0,1.070159912109375
0.239060031,0,0,1.5682021379470825,0,0,1.1466000080108643
0.240039133,0,0,1.5682021379470825,0,0,0.9937199950218201
0.24103566,0,0,1.5682021379470825,0,0,0.7644000053405762
0.242035353,0,0,1.5682021379470825,0,0,0.7644000053405762
0.243036306,0,0,1.501164436340332,0,0,0.8408399820327759
0.24403537,0,0,1.501164436340332,0,0,0.8408399820327759
0.245035267,0,0,1.501164436340332,0,0,0.611519992351532
0.24603535,0,0,1.501164436340332,0,0,0.6879600286483765
0.247035673,0,0,1.501164436340332,0,0,1.1466000080108643
0.248041126,0,0,1.501164436340332,0,0,0.4586400091648102
0.249035801,0,0,1.501164436340332,0,0,0.7644000053405762
0.250035458,0,0,1.501164436340332,0,0,1.1466000080108643
0.251035318,0,0,1.4460978507995605,0,0,0.9937199950218201
0.252035456,0,0,1.4460978507995605,0,0,0.9172800183296204
0.253035242,0,0,1.4460978507995605,0,0,0.611519992351532
0.254036306,0,0,1.4460978507995605,0,0,0.6879600286483765
0.255035574,0,0,1.4460978507995605,0,0,0.7644000053405762
0.25603549,0,0,1.4460978507995605,0,0,0.4586400091648102
0.257064701,0,0,1.4460978507995605,0,0,0.8408399820327759
0.25803858,0,0,1.3982137441635132,0,0,0.9172800183296204
0.259035589,0,0,1.3982137441635132,0,0,0.611519992351532
0.26003519,0,0,1.3982137441635132,0,0,0.8408399820327759
0.261035476,0,0,1.3982137441635132,0,0,0.9172800183296204
0.262035355,0,0,1.3982137441635132,0,0,0.6879600286483765
0.263035289,0,0,1.3982137441635132,0,0,0.8408399820327759
0.26403515,0,0,1.3982137441635132,0,0,0.611519992351532
0.265035214,0,0,1.3934253454208374,0,0,0.7644000053405762
0.2660355,0,0,1.3934253454208374,0,0,0.9172800183296204
0.26703523,0,0,1.3934253454208374,0,0,0.611519992351532
0.268035294,0,0,1.3934253454208374,0,0,0.8408399820327759
0.269035173,0,0,1.3934253454208374,0,0,0.3822000026702881
0.270035182,0,0,1.3934253454208374,0,0,0.9172800183296204
0.271035394,0,0,1.3934253454208374,0,0,1.070159912109375
0.272035254,0,0,1.4197616577148438,0,0,0.8408399820327759
0.273035244,0,0,1.4197616577148438,0,0,0.9172800183296204
0.274035067,0,0,1.4197616577148438,0,0,0.611519992351532
0.27503565,0,0,1.4197616577148438,0,0,0.6879600286483765
0.27603538,0,0,1.4197616577148438,0,0,0.9937199950218201
0.277035129,0,0,1.4197616577148438,0,0,0.8408399820327759
0.278035305,0,0,1.4197616577148438,0,0,0.6879600286483765
0.279037517,0,0,1.4197616577148438,0,0,0.9937199950218201
0.280035618,0,0,1.3503297567367554,0,0,0.4586400091648102
0.281035422,0,0,1.3503297567367554,0,0,0.9937199950218201
0.282035264,0,0,1.3503297567367554,0,0,0.7644000053405762
0.283035254,0,0,1.3503297567367554,0,0,0.9172800183296204
0.284035299,0,0,1.3503297567367554,0,0,0.8408399820327759
0.285035141,0,0,1.3503297567367554,0,0,0.7644000053405762
0.286035835,0,0,1.3503297567367554,0,0,0.7644000053405762
0.287035065,0,0,1.381454348564148,0,0,0.9172800183296204
0.288035333,0,0,1.381454348564148,0,0,0.5350799560546875
0.289035138,0,0,1.381454348564148,0,0,0.5350799560546875
0.29003522,0,0,1.381454348564148,0,0,1.1466000080108643
0.291035414,0,0,1.381454348564148,0,0,0.305759996175766
0.292034997,0,0,1.381454348564148,0,0,0.9937199950218201
0.293035227,0,0,1.381454348564148,0,0,0.7644000053405762
0.294035365,0,0,1.4915876388549805,0,0,0.8408399820327759
0.29503517,0,0,1.4915876388549805,0,0,0.9937199950218201
0.296035197,0,0,1.4915876388549805,0,0,0.7644000053405762
0.297035131,0,0,1.4915876388549805,0,0,0.611519992351532
0.298035251,0,0,1.4915876388549805,0,0,0.7644000053405762
0.299035315,0,0,1.4915876388549805,0,0,0.7644000053405762
0.300035212,0,0,1.4915876388549805,0,0,0.6879600286483765
0.301035183,0,0,1.525106430053711,0,0,1.2994799613952637
0.302035192,0,0,1.525106430053711,0,0,0.4586400091648102
0.303035348,0,0,1.525106430053711,0,0,1.1466000080108643
0.304035227,0,0,1.525106430053711,0,0,0.9172800183296204
0.305035328,0,0,1.525106430053711,0,0,0.7644000053405762
0.306035244,0,0,1.525106430053711,0,0,0.9172800183296204
0.30703553,0,0,1.525106430053711,0,0,0.8408399820327759
0.308035279,0,0,1.5849615335464478,0,0,0.5350799560546875
0.309035269,0,0,1.5849615335464478,0,0,0.9172800183296204
0.310037611,0,0,1.5849615335464478,0,0,0.6879600286483765
0.311035527,0,0,1.5849615335464478,0,0,0.5350799560546875
0.312038276,0,0,1.5849615335464478,0,0,1.070159912109375
0.313035507,0,0,1.5849615335464478,0,0,0.8408399820327759
0.314035441,0,0,1.5849615335464478,0,0,0.8408399820327759
0.315035264,0,0,1.5849615335464478,0,0,0.8408399820327759
0.316035347,0,0,1.5538369417190552,0,0,0.7644000053405762
0.317035263,0,0,1.5538369417190552,0,0,0.9172800183296204
0.31803529,0,0,1.5538369417190552,0,0,0.9937199950218201
0.319035242,0,0,1.5538369417190552,0,0,0.611519992351532
0.320035325,0,0,1.5538369417190552,0,0,0.9172800183296204
0.321035167,0,0,1.5538369417190552,0,0,0.7644000053405762
0.322035286,0,0,1.5538369417190552,0,0,0.9937199950218201
0.323035221,0,0,1.6041151285171509,0,0,0.6879600286483765
0.324035229,0,0,1.6041151285171509,0,0,0.9172800183296204
0.32503496,0,0,1.6041151285171509,0,0,1.070159912109375
0.326035394,0,0,1.6041151285171509,0,0,0.9172800183296204
0.327035106,0,0,1.6041151285171509,0,0,0.7644000053405762
0.328035263,0,0,1.6041151285171509,0,0,0.7644000053405762
0.329035141,0,0,1.6041151285171509,0,0,0.5350799560546875
0.330035261,0,0,1.53707754611969,0,0,0.7644000053405762
0.331035158,0,0,1.53707754611969,0,0,0.7644000053405762
0.332035482,0,0,1.53707754611969,0,0,0.611519992351532
0.333035249,0,0,1.53707754611969,0,0,0.9172800183296204
0.334035258,0,0,1.53707754611969,0,0,0.305759996175766
0.335035099,0,0,1.53707754611969,0,0,0.7644000053405762
0.336035404,0,0,1.53707754611969,0,0,0.7644000053405762
0.337035394,0,0,1.381454348564148,0,0,0.9172800183296204
0.338035199,0,0,1.381454348564148,0,0,0.8408399820327759
0.339035855,0,0,1.381454348564148,0,0,1.223039984703064
0.340035197,0,0,1.381454348564148,0,0,0.6879600286483765
0.341038002,0,0,1.381454348564148,0,0,0.9937199950218201
0.342035732,0,0,1.381454348564148,0,0,0.611519992351532
0.343035315,0,0,1.381454348564148,0,0,0.9172800183296204
0.344035175,0,0,1.381454348564148,0,0,1.1466000080108643
0.345035202,0,0,1.4293384552001953,0,0,0.611519992351532
0.34603534,0,0,1.4293384552001953,0,0,0.6879600286483765
0.347035182,0,0,1.4293384552001953,0,0,0.7644000053405762
0.348035505,0,0,1.4293384552001953,0,0,0.9937199950218201
0.349035273,0,0,1.4293384552001953,0,0,0.6879600286483765
0.350035152,0,0,1.4293384552001953,0,0,1.223039984703064
0.351034771,0,0,1.4293384552001953,0,0,0.6879600286483765
0.352035057,0,0,1.400607943534851,0,0,0.6879600286483765
0.353034547,0,0,1.400607943534851,0,0,0.611519992351532
0.354038519,0,0,1.400607943534851,0,0,0.611519992351532
0.355035323,0,0,1.400607943534851,0,0,1.070159912109375
0.356035091,0,0,1.400607943534851,0,0,0.5350799560546875
0.357038859,0,0,1.400607943534851,0,0,0.9172800183296204
0.35803533,0,0,1.400607943534851,0,0,0.9172800183296204
0.359035042,0,0,1.316810965538025,0,0,0.6879600286483765
0.36003494,0,0,1.316810965538025,0,0,0.9172800183296204
0.361035059,0,0,1.316810965538025,0,0,1.070159912109375
0.362034994,0,0,1.316810965538025,0,0,0.6879600286483765
0.363035058,0,0,1.316810965538025,0,0,1.1466000080108643
0.364034936,0,0,1.316810965538025,0,0,0.7644000053405762
0.365035,0,0,1.316810965538025,0,0,0.611519992351532
0.366035194,0,0,1.4676456451416016,0,0,0.9172800183296204
0.367035128,0,0,1.4676456451416016,0,0,1.1466000080108643
0.368034933,0,0,1.4676456451416016,0,0,0.9937199950218201
0.369035015,0,0,1.4676456451416016,0,0,0.9937199950218201
0.370035209,0,0,1.4676456451416016,0,0,0.611519992351532
0.371042162,0,0,1.4676456451416016,0,0,0.8408399820327759
0.372039874,0,0,1.4676456451416016,0,0,0.8408399820327759
0.373035308,0,0,1.4676456451416016,0,0,0.8408399820327759
0.374035206,0,0,1.460463047027588,0,0,0.9172800183296204
0.375034918,0,0,1.460463047027588,0,0,0.6879600286483765
0.376035111,0,0,1.460463047027588,0,0,0.9172800183296204
0.377035009,0,0,1.460463047027588,0,0,0.611519992351532
0.378034999,0,0,1.460463047027588,0,0,1.070159912109375
0.379035044,0,0,1.460463047027588,0,0,0.611519992351532
0.380035053,0,0,1.460463047027588,0,0,0.9172800183296204
0.381034931,0,0,1.5682021379470825,0,0,0.8408399820327759
0.382035069,0,0,1.5682021379470825,0,0,0.7644000053405762
0.383034985,0,0,1.5682021379470825,0,0,0.7644000053405762
0.384035068,0,0,1.5682021379470825,0,0,0.7644000053405762
0.385034891,0,0,1.5682021379470825,0,0,0.3822000026702881
0.386034899,0,0,1.5682021379470825,0,0,0.5350799560546875
0.387035,0,0,1.5682021379470825,0,0,0.611519992351532
0.388035009,0,0,1.5179238319396973,0,0,0.305759996175766
0.389034832,0,0,1.5179238319396973,0,0,0.9172800183296204
0.3900351,0,0,1.5179238319396973,0,0,0.8408399820327759
0.391035034,0,0,1.5179238319396973,0,0,0.9172800183296204
0.39203508,0,0,1.5179238319396973,0,0,0.9172800183296204
0.393034995,0,0,1.5179238319396973,0,0,0.611519992351532
0.394035207,0,0,1.5179238319396973,0,0,0.9172800183296204
0.395035012,0,0,1.4053963422775269,0,0,0.7644000053405762
0.396035076,0,0,1.4053963422775269,0,0,0.5350799560546875
0.397035011,0,0,1.4053963422775269,0,0,0.611519992351532
0.398035037,0,0,1.4053963422775269,0,0,0.9172800183296204
0.399035027,0,0,1.4053963422775269,0,0,0.4586400091648102
0.400035221,0,0,1.4053963422775269,0,0,0.8408399820327759
0.401035063,0,0,1.4053963422775269,0,0,0.8408399820327759
0.402034979,0,0,1.4748282432556152,0,0,0.9172800183296204
0.403037617,0,0,1.4748282432556152,0,0,0.9937199950218201
0.404035273,0,0,1.4748282432556152,0,0,0.9937199950218201
0.405034911,0,0,1.4748282432556152,0,0,0.6879600286483765
0.406035086,0,0,1.4748282432556152,0,0,0.7644000053405762
0.407035243,0,0,1.4748282432556152,0,0,0.611519992351532
0.408034881,0,0,1.4748282432556152,0,0,0.7644000053405762
0.409035038,0,0,1.3479355573654175,0,0,0.8408399820327759
0.410035046,0,0,1.3479355573654175,0,0,0.8408399820327759
0.411035054,0,0,1.3479355573654175,0,0,0.8408399820327759
0.412035192,0,0,1.3479355573654175,0,0,0.9937199950218201
0.413035071,0,0,1.3479355573654175,0,0,0.611519992351532
0.41403508,0,0,1.3479355573654175,0,0,0.6879600286483765
0.415035347,0,0,1.3479355573654175,0,0,0.6879600286483765
0.416035078,0,0,1.3048399686813354,0,0,0.611519992351532
0.417035123,0,0,1.3048399686813354,0,0,0.611519992351532
0.418035039,0,0,1.3048399686813354,0,0,0.9172800183296204
0.419034974,0,0,1.3048399686813354,0,0,1.070159912109375
0.420035112,0,0,1.3048399686813354,0,0,0.5350799560546875
0.42103512,0,0,1.3048399686813354,0,0,1.070159912109375
0.422035091,0,0,1.3048399686813354,0,0,1.070159912109375
0.423035137,0,0,1.3766659498214722,0,0,0.8408399820327759
0.424034942,0,0,1.3766659498214722,0,0,0.9172800183296204
0.425035135,0,0,1.3766659498214722,0,0,0.8408399820327759
0.426034847,0,0,1.3766659498214722,0,0,0.9172800183296204
0.42703493,0,0,1.3766659498214722,0,0,0.8408399820327759
0.428035031,0,0,1.3766659498214722,0,0,0.6879600286483765
0.429034928,0,0,1.3766659498214722,0,0,0.4586400091648102
0.430034955,0,0,1.3766659498214722,0,0,0.6879600286483765
0.431034945,0,0,1.3646949529647827,0,0,0
0.432034991,0,0,1.3646949529647827,0,0,0.8408399820327759
0.433035017,0,0,1.3646949529647827,0,0,1.070159912109375
0.434037674,0,0,1.3646949529647827,0,0,0.8408399820327759
0.435042719,0,0,1.3646949529647827,0,0,0.8408399820327759
0.436035598,0,0,1.3646949529647827,0,0,0.9937199950218201
0.437037903,0,0,1.3646949529647827,0,0,0.611519992351532
0.438035393,0,0,1.2545616626739502,0,0,0.9937199950218201
0.439034957,0,0,1.2545616626739502,0,0,0.6879600286483765
0.440035169,0,0,1.2545616626739502,0,0,0.7644000053405762
0.441034937,0,0,1.2545616626739502,0,0,1.452359914779663
0.44203513,0,0,1.2545616626739502,0,0,0.4586400091648102
0.443035083,0,0,1.2545616626739502,0,0,0.6879600286483765
0.44403498,0,0,1.2545616626739502,0,0,0.6879600286483765
0.445035081,0,0,1.4628572463989258,0,0,0.7644000053405762
0.446035016,0,0,1.4628572463989258,0,0,0.6879600286483765
0.447035284,0,0,1.4628572463989258,0,0,0.9172800183296204
0.448035033,0,0,1.4628572463989258,0,0,0.7644000053405762
0.449035041,0,0,1.4628572463989258,0,0,0.9172800183296204
0.450035013,0,0,1.4628572463989258,0,0,0.611519992351532
0.451034928,0,0,1.4628572463989258,0,0,0.7644000053405762
0.452035085,0,0,1.558625340461731,0,0,1.1466000080108643
0.453035001,0,0,1.558625340461731,0,0,0.9937199950218201
0.454034935,0,0,1.558625340461731,0,0,0.9172800183296204
0.455034925,0,0,1.558625340461731,0,0,0.6879600286483765
0.456035045,0,0,1.558625340461731,0,0,0.9172800183296204
0.457035053,0,0,1.558625340461731,0,0,0.8408399820327759
0.458035061,0,0,1.558625340461731,0,0,0.8408399820327759
0.459034977,0,0,1.558625340461731,0,0,0.9172800183296204
0.460035189,0,0,1.5873557329177856,0,0,0.7644000053405762
0.461035253,0,0,1.5873557329177856,0,0,0.9172800183296204
0.462035206,0,0,1.5873557329177856,0,0,0.5350799560546875
0.463035029,0,0,1.5873557329177856,0,0,0.6879600286483765
0.464035112,0,0,1.5873557329177856,0,0,0.9937199950218201
0.46503812,0,0,1.5873557329177856,0,0,1.1466000080108643
0.466035129,0,0,1.5873557329177856,0,0,0.6879600286483765
0.467035656,0,0,1.6328455209732056,0,0,0.8408399820327759
0.468035257,0,0,1.6328455209732056,0,0,1.070159912109375
0.469035061,0,0,1.6328455209732056,0,0,0.7644000053405762
0.470035107,0,0,1.6328455209732056,0,0,0.7644000053405762
0.471035023,0,0,1.6328455209732056,0,0,0.611519992351532
0.472035105,0,0,1.6328455209732056,0,0,0.611519992351532
0.473035169,0,0,1.6328455209732056,0,0,0.8408399820327759
0.474044215,0,0,1.5466543436050415,0,0,0.4586400091648102
0.475036649,0,0,1.5466543436050415,0,0,0.9937199950218201
0.476035157,0,0,1.5466543436050415,0,0,0.7644000053405762
0.477035314,0,0,1.5466543436050415,0,0,0.8408399820327759
0.478035082,0,0,1.5466543436050415,0,0,0.7644000053405762
0.479035312,0,0,1.5466543436050415,0,0,0.9937199950218201
0.480035099,0,0,1.5466543436050415,0,0,0.8408399820327759
0.481035051,0,0,1.5849615335464478,0,0,0.9937199950218201
0.482035449,0,0,1.5849615335464478,0,0,0.5350799560546875
0.483035179,0,0,1.5849615335464478,0,0,0.8408399820327759
0.484035225,0,0,1.5849615335464478,0,0,0.7644000053405762
0.485035289,0,0,1.5849615335464478,0,0,0.305759996175766
0.486035297,0,0,1.5849615335464478,0,0,0.9172800183296204
0.487035157,0,0,1.5849615335464478,0,0,1.070159912109375
0.488039295,0,0,1.5849615335464478,0,0,0.8408399820327759
0.489062341,0,0,1.3934253454208374,0,0,0.7644000053405762
0.490057738,0,0,1.3934253454208374,0,0,0.8408399820327759
0.49105095,0,0,1.3934253454208374,0,0,0.7644000053405762
0.492036255,0,0,1.3934253454208374,0,0,0.9937199950218201
0.493035134,0,0,1.3934253454208374,0,0,0.6879600286483765
0.494035216,0,0,1.3934253454208374,0,0,0.7644000053405762
0.495035058,0,0,1.3934253454208374,0,0,0.7644000053405762
0.496039844,0,0,1.3742717504501343,0,0,0.611519992351532
0.49703539,0,0,1.3742717504501343,0,0,0.9172800183296204
0.49803588,0,0,1.3742717504501343,0,0,0.8408399820327759
0.499051407,0,0,1.3742717504501343,0,0,0.9172800183296204
0.500035878,0,0,1.3742717504501343,0,0,1.1466000080108643
0.501035127,0,0,1.3742717504501343,0,0,0.9172800183296204
0.502035154,0,0,1.3742717504501343,0,0,0.9172800183296204
0.503035144,0,0,1.45806884765625,0,0,0.611519992351532
0.504034912,0,0,1.45806884765625,0,0,0.6879600286483765
0.505034976,0,0,1.45806884765625,0,0,0.6879600286483765
0.506035095,0,0,1.45806884765625,0,0,0.9172800183296204
0.507035011,0,0,1.45806884765625,0,0,0.9172800183296204
0.50803502,0,0,1.45806884765625,0,0,1.070159912109375
0.509034917,0,0,1.45806884765625,0,0,0.9937199950218201
0.510035073,0,0,1.280897855758667,0,0,1.1466000080108643
0.511035026,0,0,1.280897855758667,0,0,1.223039984703064
0.51203485,0,0,1.280897855758667,0,0,0.7644000053405762
0.513064413,0,0,1.280897855758667,0,0,0.5350799560546875
0.51403644,0,0,1.280897855758667,0,0,0.8408399820327759
0.515035264,0,0,1.280897855758667,0,0,0.9172800183296204
0.516035254,0,0,1.280897855758667,0,0,0.7644000053405762
0.517035095,0,0,1.280897855758667,0,0,0.611519992351532
0.51803503,0,0,1.434126853942871,0,0,1.070159912109375
0.519034834,0,0,1.434126853942871,0,0,1.070159912109375
0.520034824,0,0,1.434126853942871,0,0,0.8408399820327759
0.521034851,0,0,1.434126853942871,0,0,0.7644000053405762
0.522034915,0,0,1.434126853942871,0,0,0.9172800183296204
0.523039164,0,0,1.434126853942871,0,0,1.070159912109375
0.524035543,0,0,1.434126853942871,0,0,0.611519992351532
0.525034941,0,0,1.50355863571167,0,0,0.7644000053405762
0.526035153,0,0,1.50355863571167,0,0,0.7644000053405762
0.527039161,0,0,1.50355863571167,0,0,0.7644000053405762
0.528035132,0,0,1.50355863571167,0,0,0.4586400091648102
0.52903503,0,0,1.50355863571167,0,0,1.070159912109375
0.53003502,0,0,1.50355863571167,0,0,0.8408399820327759
0.531035806,0,0,1.50355863571167,0,0,0.8408399820327759
0.532034851,0,0,1.580173134803772,0,0,0.9172800183296204
0.533035008,0,0,1.580173134803772,0,0,0.9937199950218201
0.534034887,0,0,1.580173134803772,0,0,0.7644000053405762
0.535035062,0,0,1.580173134803772,0,0,0.9937199950218201
0.536035181,0,0,1.580173134803772,0,0,1.070159912109375
0.537035005,0,0,1.580173134803772,0,0,0.8408399820327759
0.538034994,0,0,1.580173134803772,0,0,1.375920057296753
0.539034984,0,0,1.6160861253738403,0,0,0.3822000026702881
0.540035289,0,0,1.6160861253738403,0,0,0.6879600286483765
0.541034983,0,0,1.6160861253738403,0,0,0.8408399820327759
0.542035139,0,0,1.6160861253738403,0,0,0.9172800183296204
0.543035092,0,0,1.6160861253738403,0,0,0.9937199950218201
0.544035008,0,0,1.6160861253738403,0,0,0.5350799560546875
0.545034813,0,0,1.6160861253738403,0,0,0.9172800183296204
0.546034914,0,0,1.6184803247451782,0,0,0.9172800183296204
0.547052459,0,0,1.6184803247451782,0,0,0.9172800183296204
0.548036097,0,0,1.6184803247451782,0,0,0.5350799560546875
0.549035254,0,0,1.6184803247451782,0,0,1.452359914779663
0.55003491,0,0,1.6184803247451782,0,0,0.611519992351532
0.551034789,0,0,1.6184803247451782,0,0,0.8408399820327759
0.552035094,0,0,1.6184803247451782,0,0,0.6879600286483765
0.553035028,0,0,1.5155296325683594,0,0,1.223039984703064
0.554034926,0,0,1.5155296325683594,0,0,0.9172800183296204
0.555035008,0,0,1.5155296325683594,0,0,0.611519992351532
0.55603522,0,0,1.5155296325683594,0,0,0.4586400091648102
0.557035173,0,0,1.5155296325683594,0,0,0.8408399820327759
0.55803907,0,0,1.5155296325683594,0,0,0.9172800183296204
0.559035523,0,0,1.5155296325683594,0,0,0.6879600286483765
0.560034995,0,0,1.5921441316604614,0,0,0.611519992351532
0.56103491,0,0,1.5921441316604614,0,0,0.7644000053405762
0.562036567,0,0,1.5921441316604614,0,0,0.611519992351532
0.563035575,0,0,1.5921441316604614,0,0,0.7644000053405762
0.564035121,0,0,1.5921441316604614,0,0,0.7644000053405762
0.565035148,0,0,1.5921441316604614,0,0,1.070159912109375
0.566035119,0,0,1.5921441316604614,0,0,0.8408399820327759
0.567034998,0,0,1.3934253454208374,0,0,0.9937199950218201
0.568035155,0,0,1.3934253454208374,0,0,0.8408399820327759
0.569035033,0,0,1.3934253454208374,0,0,0.6879600286483765
0.570034857,0,0,1.3934253454208374,0,0,0.9937199950218201
0.571035013,0,0,1.3934253454208374,0,0,0.152879998087883
0.572035022,0,0,1.3934253454208374,0,0,1.1466000080108643
0.573034882,0,0,1.3934253454208374,0,0,0.9172800183296204
0.574035168,0,0,1.290474772453308,0,0,0.9172800183296204
0.575034843,0,0,1.290474772453308,0,0,0.9937199950218201
0.576035352,0,0,1.290474772453308,0,0,0.9172800183296204
0.577034953,0,0,1.290474772453308,0,0,0.9937199950218201
0.578035072,0,0,1.290474772453308,0,0,0.8408399820327759
0.579035043,0,0,1.290474772453308,0,0,0.9172800183296204
0.580034978,0,0,1.290474772453308,0,0,0.8408399820327759
0.581034968,0,0,1.2832920551300049,0,0,0.9937199950218201
0.582034939,0,0,1.2832920551300049,0,0,0.2293200045824051
0.583035003,0,0,1.2832920551300049,0,0,1.070159912109375
0.584035123,0,0,1.2832920551300049,0,0,0.9937199950218201
0.585035001,0,0,1.2832920551300049,0,0,1.070159912109375
0.586034954,0,0,1.2832920551300049,0,0,0.7644000053405762
0.587035074,0,0,1.2832920551300049,0,0,0.9172800183296204
0.588034842,0,0,1.2761094570159912,0,0,0.8408399820327759
0.589037202,0,0,1.2761094570159912,0,0,0.9172800183296204
0.590035784,0,0,1.2761094570159912,0,0,0.4586400091648102
0.591035033,0,0,1.2761094570159912,0,0,0.9937199950218201
0.592035042,0,0,1.2761094570159912,0,0,1.070159912109375
0.593035013,0,0,1.2761094570159912,0,0,0.4586400091648102
0.594035059,0,0,1.2761094570159912,0,0,0.6879600286483765
0.595035678,0,0,1.3718775510787964,0,0,0.8408399820327759
0.596035076,0,0,1.3718775510787964,0,0,0.8408399820327759
0.597034936,0,0,1.3718775510787964,0,0,1.070159912109375
0.598034963,0,0,1.3718775510787964,0,0,1.070159912109375
0.599034934,0,0,1.3718775510787964,0,0,0.7644000053405762
0.600035109,0,0,1.3718775510787964,0,0,0.6879600286483765
0.601034932,0,0,1.3718775510787964,0,0,0.8408399820327759
0.602035015,0,0,1.4437036514282227,0,0,0.611519992351532
0.603035264,0,0,1.4437036514282227,0,0,0.8408399820327759
0.604034976,0,0,1.4437036514282227,0,0,0.9172800183296204
0.605034985,0,0,1.4437036514282227,0,0,0.9937199950218201
0.606035123,0,0,1.4437036514282227,0,0,0.6879600286483765
0.607035094,0,0,1.4437036514282227,0,0,0.7644000053405762
0.608035158,0,0,1.4437036514282227,0,0,1.223039984703064
0.609035055,0,0,1.5514427423477173,0,0,1.070159912109375
0.61003486,0,0,1.5514427423477173,0,0,0.5350799560546875
0.611034961,0,0,1.5514427423477173,0,0,0.5350799560546875
0.612035007,0,0,1.5514427423477173,0,0,0.611519992351532
0.613034959,0,0,1.5514427423477173,0,0,0.7644000053405762
0.614035079,0,0,1.5514427423477173,0,0,0.6879600286483765
0.615035124,0,0,1.5514427423477173,0,0,0.9937199950218201
0.616034966,0,0,1.5514427423477173,0,0,0.9172800183296204
0.617034882,0,0,1.6831238269805908,0,0,0.9937199950218201
0.61803502,0,0,1.6831238269805908,0,0,0.7644000053405762
0.619034936,0,0,1.6831238269805908,0,0,1.223039984703064
0.620037426,0,0,1.6831238269805908,0,0,0.6879600286483765
0.621035249,0,0,1.6831238269805908,0,0,0.8408399820327759
0.622034998,0,0,1.6831238269805908,0,0,0.6879600286483765
0.623035321,0,0,1.6831238269805908,0,0,0.5350799560546875
0.624035015,0,0,1.6208745241165161,0,0,0.6879600286483765
0.625034986,0,0,1.6208745241165161,0,0,0.305759996175766
0.626036347,0,0,1.6208745241165161,0,0,1.070159912109375
0.627035466,0,0,1.6208745241165161,0,0,0.9937199950218201
0.62804616,0,0,1.6208745241165161,0,0,0.8408399820327759
0.629035576,0,0,1.6208745241165161,0,0,0.9172800183296204
0.630034955,0,0,1.6208745241165161,0,0,1.1466000080108643
0.631035056,0,0,1.6280571222305298,0,0,0.8408399820327759
0.632034823,0,0,1.6280571222305298,0,0,0.6879600286483765
0.63303498,0,0,1.6280571222305298,0,0,0.6879600286483765
0.634035118,0,0,1.6280571222305298,0,0,0.3822000026702881
0.635035108,0,0,1.6280571222305298,0,0,0.9937199950218201
0.636035079,0,0,1.6280571222305298,0,0,0.611519992351532
0.637035069,0,0,1.6280571222305298,0,0,0.8408399820327759
0.638034929,0,0,1.5682021379470825,0,0,1.070159912109375
0.639034956,0,0,1.5682021379470825,0,0,0.9172800183296204
0.640035002,0,0,1.5682021379470825,0,0,0.8408399820327759
0.641035029,0,0,1.5682021379470825,0,0,0.9172800183296204
0.642035204,0,0,1.5682021379470825,0,0,0.7644000053405762
0.643046527,0,0,1.5682021379470825,0,0,0.6879600286483765
0.644037332,0,0,1.5682021379470825,0,0,0.611519992351532
0.645035173,0,0,1.5682021379470825,0,0,0.5350799560546875
0.646034978,0,0,1.37906014919281,0,0,0.8408399820327759
0.647035135,0,0,1.37906014919281,0,0,0.4586400091648102
0.648034958,0,0,1.37906014919281,0,0,0.7644000053405762
0.649035096,0,0,1.37906014919281,0,0,0.7644000053405762
0.650034938,0,0,1.37906014919281,0,0,0.6879600286483765
0.651039446,0,0,1.37906014919281,0,0,0.9937199950218201
0.652035566,0,0,1.37906014919281,0,0,0.9937199950218201
0.653035,0,0,1.436521053314209,0,0,0.8408399820327759
0.654038564,0,0,1.436521053314209,0,0,0.8408399820327759
0.655035147,0,0,1.436521053314209,0,0,0.7644000053405762
0.656035081,0,0,1.436521053314209,0,0,0.8408399820327759
0.657037441,0,0,1.436521053314209,0,0,0.8408399820327759
0.658035042,0,0,1.436521053314209,0,0,1.070159912109375
0.659036291,0,0,1.436521053314209,0,0,0.9172800183296204
0.660035355,0,0,1.4460978507995605,0,0,0.9937199950218201
0.66103503,0,0,1.4460978507995605,0,0,0.9937199950218201
0.662035687,0,0,1.4460978507995605,0,0,0.8408399820327759
0.66303501,0,0,1.4460978507995605,0,0,0.6879600286483765
0.664034926,0,0,1.4460978507995605,0,0,0.7644000053405762
0.665035064,0,0,1.4460978507995605,0,0,0.8408399820327759
0.666035073,0,0,1.4460978507995605,0,0,0.7644000053405762
0.667035081,0,0,1.3479355573654175,0,0,0.9937199950218201
0.668035015,0,0,1.3479355573654175,0,0,0.3822000026702881
0.669034894,0,0,1.3479355573654175,0,0,0.7644000053405762
0.670035088,0,0,1.3479355573654175,0,0,0.9937199950218201
0.671034929,0,0,1.3479355573654175,0,0,0.8408399820327759
0.672034956,0,0,1.3479355573654175,0,0,0.6879600286483765
0.673035206,0,0,1.3479355573654175,0,0,0.9937199950218201
0.67403527,0,0,1.3479355573654175,0,0,0.9172800183296204
0.675035037,0,0,1.3718775510787964,0,0,0.5350799560546875
0.676034953,0,0,1.3718775510787964,0,0,0.9937199950218201
0.677035406,0,0,1.3718775510787964,0,0,0.611519992351532
0.67803497,0,0,1.3718775510787964,0,0,1.1466000080108643
0.679035108,0,0,1.3718775510787964,0,0,0.4586400091648102
0.680035005,0,0,1.3718775510787964,0,0,0.6879600286483765
0.681035162,0,0,1.3718775510787964,0,0,0.9172800183296204
0.682038911,0,0,1.4437036514282227,0,0,0.7644000053405762
0.683035456,0,0,1.4437036514282227,0,0,0.9937199950218201
0.684035169,0,0,1.4437036514282227,0,0,0.7644000053405762
0.685035196,0,0,1.4437036514282227,0,0,0.9172800183296204
0.686035056,0,0,1.4437036514282227,0,0,0.9937199950218201
0.687034972,0,0,1.4437036514282227,0,0,0.9172800183296204
0.688034999,0,0,1.4437036514282227,0,0,0.6879600286483765
0.689034988,0,0,1.5514427423477173,0,0,1.070159912109375
0.690034997,0,0,1.5514427423477173,0,0,0.7644000053405762
0.691035579,0,0,1.5514427423477173,0,0,0.9172800183296204
0.692035069,0,0,1.5514427423477173,0,0,0.6879600286483765
0.693035078,0,0,1.5514427423477173,0,0,0.9172800183296204
0.694035068,0,0,1.5514427423477173,0,0,1.1466000080108643
0.695034928,0,0,1.5514427423477173,0,0,0.8408399820327759
0.696034955,0,0,1.6352397203445435,0,0,0.611519992351532
0.69703513,0,0,1.6352397203445435,0,0,0.9172800183296204
0.698035083,0,0,1.6352397203445435,0,0,0.8408399820327759
0.69903498,0,0,1.6352397203445435,0,0,0.7644000053405762
0.700035081,0,0,1.6352397203445435,0,0,0.9172800183296204
0.701034849,0,0,1.6352397203445435,0,0,0.6879600286483765
0.702035154,0,0,1.6352397203445435,0,0,0.7644000053405762
0.703035069,0,0,1.6352397203445435,0,0,0.7644000053405762
0.704034948,0,0,1.5059528350830078,0,0,0.6879600286483765
0.705035845,0,0,1.5059528350830078,0,0,0.8408399820327759
0.706035706,0,0,1.5059528350830078,0,0,0.7644000053405762
0.707035122,0,0,1.5059528350830078,0,0,0.611519992351532
0.708035167,0,0,1.5059528350830078,0,0,1.1466000080108643
0.709035083,0,0,1.5059528350830078,0,0,0.9172800183296204
0.710034906,0,0,1.5059528350830078,0,0,0.9937199950218201
0.711034618,0,0,1.656787633895874,0,0,0.611519992351532
0.712037164,0,0,1.656787633895874,0,0,0.9937199950218201
0.713047505,0,0,1.656787633895874,0,0,0.9937199950218201
0.714037125,0,0,1.656787633895874,0,0,0.7644000053405762
0.715035763,0,0,1.656787633895874,0,0,0.611519992351532
0.716035475,0,0,1.656787633895874,0,0,1.2994799613952637
0.717035243,0,0,1.656787633895874,0,0,0.7644000053405762
0.718035307,0,0,1.436521053314209,0,0,0.7644000053405762
0.719035389,0,0,1.436521053314209,0,0,0.6879600286483765
0.720035342,0,0,1.436521053314209,0,0,0.5350799560546875
0.721035258,0,0,1.436521053314209,0,0,0.7644000053405762
0.722035415,0,0,1.436521053314209,0,0,0.4586400091648102
0.723036127,0,0,1.436521053314209,0,0,0.9937199950218201
0.724035394,0,0,1.436521053314209,0,0,1.1466000080108643
0.725035218,0,0,1.3982137441635132,0,0,0.5350799560546875
0.726035282,0,0,1.3982137441635132,0,0,0.9172800183296204
0.727035364,0,0,1.3982137441635132,0,0,0.9172800183296204
0.728035243,0,0,1.3982137441635132,0,0,0.8408399820327759
0.729035344,0,0,1.3982137441635132,0,0,0.6879600286483765
0.730035149,0,0,1.3982137441635132,0,0,0.9172800183296204
0.731035305,0,0,1.3982137441635132,0,0,0.6879600286483765
0.732035425,0,0,1.3982137441635132,0,0,1.070159912109375
0.733035341,0,0,1.4101848602294922,0,0,0.305759996175766
0.734035497,0,0,1.4101848602294922,0,0,0.6879600286483765
0.735035265,0,0,1.4101848602294922,0,0,1.070159912109375
0.736035292,0,0,1.4101848602294922,0,0,0.9937199950218201
0.737037615,0,0,1.4101848602294922,0,0,0.6879600286483765
0.738035364,0,0,1.4101848602294922,0,0,0.8408399820327759
0.739035354,0,0,1.4101848602294922,0,0,0.8408399820327759
0.740055288,0,0,1.2856862545013428,0,0,0.4586400091648102
0.741057704,0,0,1.2856862545013428,0,0,0.8408399820327759
0.742046731,0,0,1.2856862545013428,0,0,0.5350799560546875
0.743036128,0,0,1.2856862545013428,0,0,1.2994799613952637
0.744040674,0,0,1.2856862545013428,0,0,0.3822000026702881
0.74503546,0,0,1.2856862545013428,0,0,0.9172800183296204
0.746035283,0,0,1.2856862545013428,0,0,0.9937199950218201
0.747035366,0,0,1.235408067703247,0,0,0.5350799560546875
0.748035226,0,0,1.235408067703247,0,0,0.5350799560546875
0.74903542,0,0,1.235408067703247,0,0,0.9172800183296204
0.750035299,0,0,1.235408067703247,0,0,0.611519992351532
0.751035288,0,0,1.235408067703247,0,0,0.6879600286483765
0.752035408,0,0,1.235408067703247,0,0,0.8408399820327759
0.753035268,0,0,1.235408067703247,0,0,0.9172800183296204
0.754052647,0,0,1.3742717504501343,0,0,0.7644000053405762
0.75503697,0,0,1.3742717504501343,0,0,0.7644000053405762
0.756035164,0,0,1.3742717504501343,0,0,0.8408399820327759
0.757035395,0,0,1.3742717504501343,0,0,1.070159912109375
0.758035459,0,0,1.3742717504501343,0,0,0.9172800183296204
0.759035226,0,0,1.3742717504501343,0,0,0.5350799560546875
0.760035364,0,0,1.3742717504501343,0,0,0.7644000053405762
0.761035132,0,0,1.3742717504501343,0,0,0.611519992351532
0.762035214,0,0,1.5298948287963867,0,0,0.6879600286483765
0.763035334,0,0,1.5298948287963867,0,0,0.3822000026702881
0.764035379,0,0,1.5298948287963867,0,0,0.6879600286483765
0.765035184,0,0,1.5298948287963867,0,0,0.611519992351532
0.766035285,0,0,1.5298948287963867,0,0,0.8408399820327759
0.76704459,0,0,1.5298948287963867,0,0,0.9937199950218201
0.768036209,0,0,1.5298948287963867,0,0,0.6879600286483765
0.769035329,0,0,1.5418659448623657,0,0,0.6879600286483765
0.770047004,0,0,1.5418659448623657,0,0,0.7644000053405762
0.771041957,0,0,1.5418659448623657,0,0,0.7644000053405762
0.772036169,0,0,1.5418659448623657,0,0,0.9172800183296204
0.773035233,0,0,1.5418659448623657,0,0,0.9172800183296204
0.774035445,0,0,1.5418659448623657,0,0,0.4586400091648102
0.775039435,0,0,1.5418659448623657,0,0,1.070159912109375
0.776035721,0,0,1.577778935432434,0,0,0.4586400091648102
0.777035396,0,0,1.577778935432434,0,0,0.9172800183296204
0.778035331,0,0,1.577778935432434,0,0,0.9172800183296204
0.779035135,0,0,1.577778935432434,0,0,0.8408399820327759
0.780035385,0,0,1.577778935432434,0,0,0.8408399820327759
0.781035245,0,0,1.577778935432434,0,0,0.8408399820327759
0.782035179,0,0,1.577778935432434,0,0,0.9172800183296204
0.783035262,0,0,1.4389152526855469,0,0,0.9937199950218201
0.784035289,0,0,1.4389152526855469,0,0,0.611519992351532
0.78503539,0,0,1.4389152526855469,0,0,0.9937199950218201
0.786035361,0,0,1.4389152526855469,0,0,0.9937199950218201
0.787035869,0,0,1.4389152526855469,0,0,0.6879600286483765
0.788035378,0,0,1.4389152526855469,0,0,0.7644000053405762
0.78903522,0,0,1.4389152526855469,0,0,0.6879600286483765
0.790035265,0,0,1.556231141090393,0,0,0.9937199950218201
0.791035329,0,0,1.556231141090393,0,0,0.9172800183296204
0.792035338,0,0,1.556231141090393,0,0,0.8408399820327759
0.793035272,0,0,1.556231141090393,0,0,0.9172800183296204
0.794035577,0,0,1.556231141090393,0,0,0.8408399820327759
0.795035529,0,0,1.556231141090393,0,0,0.5350799560546875
0.79603526,0,0,1.556231141090393,0,0,0.5350799560546875
0.797035194,0,0,1.556231141090393,0,0,0.8408399820327759
0.798035221,0,0,1.3934253454208374,0,0,1.070159912109375
0.799035396,0,0,1.3934253454208374,0,0,0.8408399820327759
0.800035405,0,0,1.3934253454208374,0,0,0.7644000053405762
0.801035376,0,0,1.3934253454208374,0,0,0.8408399820327759
0.802035477,0,0,1.3934253454208374,0,0,0.9937199950218201
0.803039004,0,0,1.3934253454208374,0,0,0.9172800183296204
0.804035716,0,0,1.3934253454208374,0,0,0.9172800183296204
0.80503554,0,0,1.2713210582733154,0,0,0.8408399820327759
0.806038678,0,0,1.2713210582733154,0,0,0.611519992351532
0.807035519,0,0,1.2713210582733154,0,0,0.8408399820327759
0.80803525,0,0,1.2713210582733154,0,0,0.9172800183296204
0.809035277,0,0,1.2713210582733154,0,0,0.6879600286483765
0.810036008,0,0,1.2713210582733154,0,0,0.9937199950218201
0.811035405,0,0,1.2713210582733154,0,0,0.8408399820327759
0.812035413,0,0,1.3646949529647827,0,0,0.611519992351532
0.813035348,0,0,1.3646949529647827,0,0,0.9172800183296204
0.814041708,0,0,1.3646949529647827,0,0,0.9172800183296204
0.815036846,0,0,1.3646949529647827,0,0,0.611519992351532
0.816035614,0,0,1.3646949529647827,0,0,0.7644000053405762
0.817035363,0,0,1.3646949529647827,0,0,0.6879600286483765
0.818041149,0,0,1.3646949529647827,0,0,0.8408399820327759
0.819036769,0,0,1.256955862045288,0,0,0.152879998087883
0.820035351,0,0,1.256955862045288,0,0,0.7644000053405762
0.821035137,0,0,1.256955862045288,0,0,0.9172800183296204
0.822035164,0,0,1.256955862045288,0,0,0.9937199950218201
0.823035376,0,0,1.256955862045288,0,0,0.7644000053405762
0.824035403,0,0,1.256955862045288,0,0,0.7644000053405762
0.82503543,0,0,1.256955862045288,0,0,0.611519992351532
0.826035161,0,0,1.256955862045288,0,0,0.611519992351532
0.827035373,0,0,1.381454348564148,0,0,0.611519992351532
0.828035381,0,0,1.381454348564148,0,0,0.5350799560546875
0.829035316,0,0,1.381454348564148,0,0,0.9937199950218201
0.83003525,0,0,1.381454348564148,0,0,0.305759996175766
0.831035351,0,0,1.381454348564148,0,0,0.611519992351532
0.83203523,0,0,1.381454348564148,0,0,1.1466000080108643
0.833035387,0,0,1.381454348564148,0,0,0.8408399820327759
0.834035247,0,0,1.4437036514282227,0,0,0.7644000053405762
0.835035255,0,0,1.4437036514282227,0,0,0.7644000053405762
0.836035208,0,0,1.4437036514282227,0,0,0.6879600286483765
0.837037531,0,0,1.4437036514282227,0,0,0.7644000053405762
0.838035595,0,0,1.4437036514282227,0,0,0.8408399820327759
0.839035289,0,0,1.4437036514282227,0,0,0.611519992351532
0.84003526,0,0,1.4437036514282227,0,0,0.7644000053405762
0.841035343,0,0,1.400607943534851,0,0,1.070159912109375
0.842035981,0,0,1.400607943534851,0,0,0.5350799560546875
0.843035471,0,0,1.400607943534851,0,0,0.7644000053405762
0.844035405,0,0,1.400607943534851,0,0,0.9172800183296204
0.845035265,0,0,1.400607943534851,0,0,1.223039984703064
0.846035237,0,0,1.400607943534851,0,0,0.8408399820327759
0.847035393,0,0,1.400607943534851,0,0,0.8408399820327759
0.848035217,0,0,1.400607943534851,0,0,1.070159912109375
0.849035318,0,0,1.5418659448623657,0,0,0.5350799560546875
0.850035419,0,0,1.5418659448623657,0,0,0.5350799560546875
0.851036001,0,0,1.5418659448623657,0,0,0.6879600286483765
0.852035306,0,0,1.5418659448623657,0,0,0.4586400091648102
0.853035444,0,0,1.5418659448623657,0,0,0.9937199950218201
0.854035786,0,0,1.5418659448623657,0,0,0.6879600286483765
0.855035479,0,0,1.5418659448623657,0,0,0.7644000053405762
0.856035358,0,0,1.5131354331970215,0,0,0.9172800183296204
0.857035255,0,0,1.5131354331970215,0,0,0.6879600286483765
0.858035579,0,0,1.5131354331970215,0,0,0.7644000053405762
0.859035661,0,0,1.5131354331970215,0,0,0.611519992351532
0.860035484,0,0,1.5131354331970215,0,0,0.7644000053405762
0.861035233,0,0,1.5131354331970215,0,0,0.9937199950218201
0.862035409,0,0,1.5131354331970215,0,0,0.611519992351532
0.863034065,0,0,1.5155296325683594,0,0,0.9172800183296204
0.864033851,0,0,1.5155296325683594,0,0,0.8408399820327759
0.865033952,0,0,1.5155296325683594,0,0,0.6879600286483765
0.866038609,0,0,1.5155296325683594,0,0,0.6879600286483765
0.86703558,0,0,1.5155296325683594,0,0,0.9172800183296204
0.868037904,0,0,1.5155296325683594,0,0,0.9172800183296204
0.869035505,0,0,1.5155296325683594,0,0,0.611519992351532
0.870035198,0,0,1.6328455209732056,0,0,0.8408399820327759
0.87103541,0,0,1.6328455209732056,0,0,0.5350799560546875
0.872035234,0,0,1.6328455209732056,0,0,0.9172800183296204
0.873035279,0,0,1.6328455209732056,0,0,0.305759996175766
0.874035121,0,0,1.6328455209732056,0,0,0.7644000053405762
0.875035314,0,0,1.6328455209732056,0,0,0.8408399820327759
0.876035378,0,0,1.6328455209732056,0,0,1.070159912109375
0.877035331,0,0,1.6328455209732056,0,0,0.8408399820327759
0.878035266,0,0,1.3766659498214722,0,0,0.7644000053405762
0.879035255,0,0,1.3766659498214722,0,0,0.9172800183296204
0.880035264,0,0,1.3766659498214722,0,0,0.6879600286483765
0.881035272,0,0,1.3766659498214722,0,0,0.8408399820327759
0.882042244,0,0,1.3766659498214722,0,0,0.305759996175766
0.883035882,0,0,1.3766659498214722,0,0,0.9937199950218201
0.884035372,0,0,1.3766659498214722,0,0,0.4586400091648102
0.885035232,0,0,1.3287819623947144,0,0,0.8408399820327759
0.886035111,0,0,1.3287819623947144,0,0,0.611519992351532
0.887035082,0,0,1.3287819623947144,0,0,0.9172800183296204
0.88803522,0,0,1.3287819623947144,0,0,0.9172800183296204
0.889035247,0,0,1.3287819623947144,0,0,0.9172800183296204
0.890035256,0,0,1.3287819623947144,0,0,0.8408399820327759
0.89103519,0,0,1.3287819623947144,0,0,0.9172800183296204
0.89203518,0,0,1.436521053314209,0,0,0.7644000053405762
0.893035225,0,0,1.436521053314209,0,0,0.7644000053405762
0.89403516,0,0,1.436521053314209,0,0,1.1466000080108643
0.895035261,0,0,1.436521053314209,0,0,0.9937199950218201
0.896035139,0,0,1.436521053314209,0,0,0.8408399820327759
0.897035148,0,0,1.436521053314209,0,0,0.7644000053405762
0.898035119,0,0,1.436521053314209,0,0,0.8408399820327759
0.899037331,0,0,1.436521053314209,0,0,0.7644000053405762
0.900035321,0,0,1.400607943534851,0,0,0.7644000053405762
0.901035237,0,0,1.400607943534851,0,0,0.6879600286483765
0.902035208,0,0,1.400607943534851,0,0,0.6879600286483765
0.903035161,0,0,1.400607943534851,0,0,0.5350799560546875
0.904035096,0,0,1.400607943534851,0,0,0.6879600286483765
0.905035104,0,0,1.400607943534851,0,0,0.611519992351532
0.906035131,0,0,1.400607943534851,0,0,0.8408399820327759
0.907035325,0,0,1.4053963422775269,0,0,1.070159912109375
0.908035277,0,0,1.4053963422775269,0,0,0.9937199950218201
0.909035156,0,0,1.4053963422775269,0,0,0.4586400091648102
0.910035257,0,0,1.4053963422775269,0,0,0.9937199950218201
0.911035358,0,0,1.4053963422775269,0,0,0.8408399820327759
0.912035663,0,0,1.4053963422775269,0,0,0.3822000026702881
0.913035171,0,0,1.4053963422775269,0,0,0.6879600286483765
0.914035161,0,0,1.3407529592514038,0,0,0.6879600286483765
0.91503567,0,0,1.3407529592514038,0,0,0.6879600286483765
0.916035215,0,0,1.3407529592514038,0,0,0.9172800183296204
0.917035001,0,0,1.3407529592514038,0,0,1.070159912109375
0.918035232,0,0,1.3407529592514038,0,0,1.223039984703064
0.919035129,0,0,1.3407529592514038,0,0,0.9937199950218201
0.92003523,0,0,1.3407529592514038,0,0,0.7644000053405762
0.921035109,0,0,1.5275006294250488,0,0,0.9172800183296204
0.922035266,0,0,1.5275006294250488,0,0,0.7644000053405762
0.923035089,0,0,1.5275006294250488,0,0,0.611519992351532
0.924035005,0,0,1.5275006294250488,0,0,0.7644000053405762
0.92503518,0,0,1.5275006294250488,0,0,0.7644000053405762
0.926035133,0,0,1.5275006294250488,0,0,0.8408399820327759
0.927035326,0,0,1.5275006294250488,0,0,0.0764399990439415
0.928035113,0,0,1.5275006294250488,0,0,0.8408399820327759
0.929035269,0,0,1.680729627609253,0,0,0.9172800183296204
0.930037704,0,0,1.680729627609253,0,0,1.1466000080108643
0.931035601,0,0,1.680729627609253,0,0,0.9937199950218201
0.932035369,0,0,1.680729627609253,0,0,0.611519992351532
0.933035321,0,0,1.680729627609253,0,0,0.9172800183296204
0.934035163,0,0,1.680729627609253,0,0,0.8408399820327759
0.935035357,0,0,1.680729627609253,0,0,0.611519992351532
0.93603518,0,0,1.5873557329177856,0,0,0.8408399820327759
0.937035337,0,0,1.5873557329177856,0,0,0.9172800183296204
0.938035215,0,0,1.5873557329177856,0,0,0.611519992351532
0.939035076,0,0,1.5873557329177856,0,0,0.7644000053405762
0.940035232,0,0,1.5873557329177856,0,0,0.9937199950218201
0.941035167,0,0,1.5873557329177856,0,0,0.611519992351532
0.942035082,0,0,1.5873557329177856,0,0,1.070159912109375
0.943035257,0,0,1.556231141090393,0,0,0.9172800183296204
0.944035099,0,0,1.556231141090393,0,0,0.5350799560546875
0.9450352,0,0,1.556231141090393,0,0,0.611519992351532
0.946041375,0,0,1.556231141090393,0,0,0.7644000053405762
0.947035884,0,0,1.556231141090393,0,0,0.611519992351532
0.948035022,0,0,1.556231141090393,0,0,0.9172800183296204
0.949035215,0,0,1.556231141090393,0,0,0.9937199950218201
0.950034965,0,0,1.4891934394836426,0,0,0.8408399820327759
0.95103501,0,0,1.4891934394836426,0,0,0.9172800183296204
0.952035167,0,0,1.4891934394836426,0,0,0.9937199950218201
0.953035194,0,0,1.4891934394836426,0,0,0.9937199950218201
0.954035295,0,0,1.4891934394836426,0,0,0.611519992351532
0.955035303,0,0,1.4891934394836426,0,0,0.6879600286483765
0.956035145,0,0,1.4891934394836426,0,0,0.9937199950218201
0.957038005,0,0,1.4891934394836426,0,0,0.6879600286483765
0.958035439,0,0,1.3670891523361206,0,0,0.8408399820327759
0.959033911,0,0,1.3670891523361206,0,0,0.9937199950218201
0.960033715,0,0,1.3670891523361206,0,0,0.8408399820327759
0.961037057,0,0,1.3670891523361206,0,0,1.070159912109375
0.962040454,0,0,1.3670891523361206,0,0,0.6879600286483765
0.963036463,0,0,1.3670891523361206,0,0,0.7644000053405762
0.964035157,0,0,1.3670891523361206,0,0,0.8408399820327759
0.965035165,0,0,1.3934253454208374,0,0,0.9937199950218201
0.966034933,0,0,1.3934253454208374,0,0,0.9172800183296204
0.967035015,0,0,1.3934253454208374,0,0,0.611519992351532
0.968034968,0,0,1.3934253454208374,0,0,0.4586400091648102
0.969034773,0,0,1.3934253454208374,0,0,0.9172800183296204
0.970034892,0,0,1.3934253454208374,0,0,0.3822000026702881
0.971034938,0,0,1.3934253454208374,0,0,0.7644000053405762
0.972034891,0,0,1.290474772453308,0,0,0.9172800183296204
0.973034843,0,0,1.290474772453308,0,0,0.9172800183296204
0.974034963,0,0,1.290474772453308,0,0,0.9172800183296204
0.975035064,0,0,1.290474772453308,0,0,0.8408399820327759
0.976034813,0,0,1.290474772453308,0,0,0.6879600286483765
0.97703484,0,0,1.290474772453308,0,0,0.9172800183296204
0.978034812,0,0,1.290474772453308,0,0,0.6879600286483765
0.979035413,0,0,1.1803414821624756,0,0,0.6879600286483765
0.980034921,0,0,1.1803414821624756,0,0,0.8408399820327759
0.981034985,0,0,1.1803414821624756,0,0,0.5350799560546875
0.982034845,0,0,1.1803414821624756,0,0,1.1466000080108643
0.983035094,0,0,1.1803414821624756,0,0,0.9172800183296204
0.984035103,0,0,1.1803414821624756,0,0,0.9172800183296204
0.985034741,0,0,1.1803414821624756,0,0,0.9937199950218201
0.986034916,0,0,1.359906554222107,0,0,0.9172800183296204
0.98703511,0,0,1.359906554222107,0,0,0.6879600286483765
0.988035044,0,0,1.359906554222107,0,0,0.8408399820327759
0.989035071,0,0,1.359906554222107,0,0,0.6879600286483765
0.99004532,0,0,1.359906554222107,0,0,0.4586400091648102
0.99105681,0,0,1.359906554222107,0,0,1.223039984703064
0.992055985,0,0,1.359906554222107,0,0,0.611519992351532
0.993036456,0,0,1.359906554222107,0,0,1.1466000080108643
0.99403502,0,0,1.4389152526855469,0,0,0.8408399820327759
0.995034936,0,0,1.4389152526855469,0,0,0.7644000053405762
0.996034834,0,0,1.4389152526855469,0,0,1.1466000080108643
0.997034768,0,0,1.4389152526855469,0,0,0.8408399820327759
0.998035869,0,0,1.4389152526855469,0,0,0.4586400091648102
0.999035062,0,0,1.4389152526855469,0,0,0.9937199950218201
1.000035108,0,0,1.4389152526855469,0,0,0.6879600286483765
1.001034765,0,0,1.5059528350830078,0,0,0.611519992351532
1.002034977,0,0,1.5059528350830078,0,0,0.8408399820327759
1.003035152,0,0,1.5059528350830078,0,0,0.8408399820327759
1.004034808,0,0,1.5059528350830078,0,0,0.8408399820327759
1.005035298,0,0,1.5059528350830078,0,0,0.611519992351532
1.00603501,0,0,1.5059528350830078,0,0,0.611519992351532
1.007034741,0,0,1.5059528350830078,0,0,1.1466000080108643
1.008046601,0,0,1.5921441316604614,0,0,0.9172800183296204
1.009043406,0,0,1.5921441316604614,0,0,0.5350799560546875
1.010044692,0,0,1.5921441316604614,0,0,0.611519992351532
1.011037312,0,0,1.5921441316604614,0,0,0.6879600286483765
1.012035042,0,0,1.5921441316604614,0,0,0.6879600286483765
1.013034921,0,0,1.5921441316604614,0,0,0.7644000053405762
1.014035022,0,0,1.5921441316604614,0,0,0.9937199950218201
1.015034679,0,0,1.5921441316604614,0,0,0.9172800183296204
1.016034891,0,0,1.6089035272598267,0,0,0.9172800183296204
1.017035029,0,0,1.6089035272598267,0,0,0.9937199950218201
1.018034963,0,0,1.6089035272598267,0,0,0.9937199950218201
1.019034916,0,0,1.6089035272598267,0,0,0.9172800183296204
1.020034795,0,0,1.6089035272598267,0,0,0.611519992351532
1.021034803,0,0,1.6089035272598267,0,0,0.8408399820327759
1.022035015,0,0,1.6089035272598267,0,0,0.8408399820327759
1.02303882,0,0,1.6041151285171509,0,0,0.9172800183296204
1.024035884,0,0,1.6041151285171509,0,0,0.152879998087883
1.025135447,0,0,1.6041151285171509,0,0,0.6879600286483765
1.026040494,0,0,1.6041151285171509,0,0,0.7644000053405762
1.027035243,0,0,1.6041151285171509,0,0,0.7644000053405762
1.02803501,0,0,1.6041151285171509,0,0,0.7644000053405762
1.029034982,0,0,1.6041151285171509,0,0,0.7644000053405762
1.030034898,0,0,1.5442601442337036,0,0,0.6879600286483765
1.03103498,0,0,1.5442601442337036,0,0,0.8408399820327759
1.032034915,0,0,1.5442601442337036,0,0,0.611519992351532
1.033035034,0,0,1.5442601442337036,0,0,0.4586400091648102
1.034034987,0,0,1.5442601442337036,0,0,1.223039984703064
1.035034884,0,0,1.5442601442337036,0,0,0.8408399820327759
1.03603493,0,0,1.5442601442337036,0,0,0.9172800183296204
1.037038383,0,0,1.3623007535934448,0,0,0.611519992351532
1.038035447,0,0,1.3623007535934448,0,0,0.9937199950218201
1.039035103,0,0,1.3623007535934448,0,0,1.070159912109375
1.040034741,0,0,1.3623007535934448,0,0,1.070159912109375
1.041034953,0,0,1.3623007535934448,0,0,0.5350799560546875
1.042034851,0,0,1.3623007535934448,0,0,0.8408399820327759
1.043035452,0,0,1.3623007535934448,0,0,0.9172800183296204
1.044034849,0,0,1.3910311460494995,0,0,0.7644000053405762
1.045035061,0,0,1.3910311460494995,0,0,0.8408399820327759
1.04603494,0,0,1.3910311460494995,0,0,0.7644000053405762
1.047034837,0,0,1.3910311460494995,0,0,0.9937199950218201
1.048035327,0,0,1.3910311460494995,0,0,0.9172800183296204
1.049035113,0,0,1.3910311460494995,0,0,0.611519992351532
1.050034807,0,0,1.3910311460494995,0,0,0.9172800183296204
1.051034982,0,0,1.3910311460494995,0,0,0.7644000053405762
1.052034879,0,0,1.3215993642807007,0,0,0.611519992351532
1.053034999,0,0,1.3215993642807007,0,0,0.6879600286483765
1.054040266,0,0,1.3215993642807007,0,0,0.6879600286483765
1.055035442,0,0,1.3215993642807007,0,0,0.8408399820327759
1.056035024,0,0,1.3215993642807007,0,0,0.9937199950218201
1.057034829,0,0,1.3215993642807007,0,0,0.9172800183296204
1.058034967,0,0,1.3215993642807007,0,0,0.8408399820327759
1.059035012,0,0,1.2306196689605713,0,0,0.7644000053405762
1.06003491,0,0,1.2306196689605713,0,0,0.7644000053405762
1.061034825,0,0,1.2306196689605713,0,0,0.7644000053405762
1.062034982,0,0,1.2306196689605713,0,0,0.7644000053405762
1.063034713,0,0,1.2306196689605713,0,0,0.6879600286483765
1.064035054,0,0,1.2306196689605713,0,0,0.9937199950218201
1.065034952,0,0,1.2306196689605713,0,0,0.6879600286483765
1.06603533,0,0,1.316810965538025,0,0,0.8408399820327759
1.067034894,0,0,1.316810965538025,0,0,0
1.068034958,0,0,1.316810965538025,0,0,0.7644000053405762
1.069034819,0,0,1.316810965538025,0,0,0.9172800183296204
1.07003466,0,0,1.316810965538025,0,0,0.9937199950218201
1.071034947,0,0,1.316810965538025,0,0,0.611519992351532
1.072035011,0,0,1.316810965538025,0,0,0.8408399820327759
1.073034926,0,0,1.3862427473068237,0,0,0.8408399820327759
1.074034787,0,0,1.3862427473068237,0,0,0.8408399820327759
1.07503524,0,0,1.3862427473068237,0,0,0.611519992351532
1.07603497,0,0,1.3862427473068237,0,0,0.6879600286483765
1.077034849,0,0,1.3862427473068237,0,0,1.1466000080108643
1.078037913,0,0,1.3862427473068237,0,0,0.2293200045824051
1.079075347,0,0,1.3862427473068237,0,0,0.8408399820327759
1.080092929,0,0,1.3862427473068237,0,0,0.9937199950218201
1.08107216,0,0,1.5873557329177856,0,0,0.8408399820327759
1.082051521,0,0,1.5873557329177856,0,0,1.223039984703064
1.083080473,0,0,1.5873557329177856,0,0,0.9937199950218201
1.084071426,0,0,1.5873557329177856,0,0,0.6879600286483765
1.08504499,0,0,1.5873557329177856,0,0,0.6879600286483765
1.086036369,0,0,1.5873557329177856,0,0,0.8408399820327759
1.087035285,0,0,1.5873557329177856,0,0,0.6879600286483765
1.088035108,0,0,1.7070658206939697,0,0,1.070159912109375
1.08903508,0,0,1.7070658206939697,0,0,0.3822000026702881
1.090034847,0,0,1.7070658206939697,0,0,0.8408399820327759
1.091035004,0,0,1.7070658206939697,0,0,0.9172800183296204
1.092034938,0,0,1.7070658206939697,0,0,0.8408399820327759
1.093034928,0,0,1.7070658206939697,0,0,1.223039984703064
1.094034992,0,0,1.7070658206939697,0,0,0.9937199950218201
1.0950349639999999,0,0,1.4963760375976563,0,0,0.7644000053405762
1.096034842,0,0,1.4963760375976563,0,0,0.9937199950218201
1.097034814,0,0,1.4963760375976563,0,0,0.9172800183296204
1.098034915,0,0,1.4963760375976563,0,0,0.8408399820327759
1.099034757,0,0,1.4963760375976563,0,0,0.8408399820327759
1.100034895,0,0,1.4963760375976563,0,0,0.5350799560546875
1.101034848,0,0,1.4963760375976563,0,0,0.8408399820327759
1.102034911,0,0,1.5897499322891235,0,0,0.7644000053405762
1.103034827,0,0,1.5897499322891235,0,0,0.7644000053405762
1.104034836,0,0,1.5897499322891235,0,0,0.9937199950218201
1.105034789,0,0,1.5897499322891235,0,0,0.8408399820327759
1.106034797,0,0,1.5897499322891235,0,0,0.7644000053405762
1.10703588,0,0,1.5897499322891235,0,0,0.7644000053405762
1.10803511,0,0,1.5897499322891235,0,0,0.7644000053405762
1.109035007,0,0,1.5897499322891235,0,0,0.6879600286483765
1.110034831,0,0,1.4987702369689941,0,0,1.070159912109375
1.111035043,0,0,1.4987702369689941,0,0,0.9172800183296204
1.112034903,0,0,1.4987702369689941,0,0,0.9172800183296204
1.113037263,0,0,1.4987702369689941,0,0,0.9172800183296204
1.114035198,0,0,1.4987702369689941,0,0,0.8408399820327759
1.115035095,0,0,1.4987702369689941,0,0,0.6879600286483765
1.116037807,0,0,1.4987702369689941,0,0,0.6879600286483765
1.117035297,0,0,1.359906554222107,0,0,0.5350799560546875
1.118035028,0,0,1.359906554222107,0,0,0.7644000053405762
1.119034888,0,0,1.359906554222107,0,0,0.611519992351532
1.120034859,0,0,1.359906554222107,0,0,0.8408399820327759
1.121034775,0,0,1.359906554222107,0,0,0.4586400091648102
1.122034895,0,0,1.359906554222107,0,0,0.7644000053405762
1.123034811,0,0,1.359906554222107,0,0,0.8408399820327759
1.124034838,0,0,1.4077905416488647,0,0,0.8408399820327759
1.125034735,0,0,1.4077905416488647,0,0,0.9172800183296204
1.12603491,0,0,1.4077905416488647,0,0,0.9172800183296204
1.127035029,0,0,1.4077905416488647,0,0,0.9172800183296204
1.128034668,0,0,1.4077905416488647,0,0,0.611519992351532
1.129034713,0,0,1.4077905416488647,0,0,0.611519992351532
1.130034999,0,0,1.4077905416488647,0,0,0.7644000053405762
1.131034767,0,0,1.278503656387329,0,0,1.070159912109375
1.132034849,0,0,1.278503656387329,0,0,0.152879998087883
1.133034876,0,0,1.278503656387329,0,0,0.7644000053405762
1.1340349220000001,0,0,1.278503656387329,0,0,0.9937199950218201
1.135034967,0,0,1.278503656387329,0,0,0.5350799560546875
1.136034772,0,0,1.278503656387329,0,0,0.9937199950218201
1.137034984,0,0,1.278503656387329,0,0,0.611519992351532
1.138035196,0,0,1.278503656387329,0,0,0.9937199950218201
1.139035631,0,0,1.278503656387329,0,0,0.8408399820327759
1.140034843,0,0,1.278503656387329,0,0,0.611519992351532
1.141034962,0,0,1.278503656387329,0,0,0.7644000053405762
1.142035026,0,0,1.278503656387329,0,0,0.7644000053405762
1.143034831,0,0,1.278503656387329,0,0,0.7644000053405762
1.144034913,0,0,1.278503656387329,0,0,0.9937199950218201
1.145034885,0,0,1.278503656387329,0,0,1.070159912109375
1.146034967,0,0,1.4389152526855469,0,0,0.8408399820327759
1.147037124,0,0,1.4389152526855469,0,0,0.8408399820327759
1.148035077,0,0,1.4389152526855469,0,0,0.7644000053405762
1.1490349,0,0,1.4389152526855469,0,0,1.070159912109375
1.15003489,0,0,1.4389152526855469,0,0,0.6879600286483765
1.151034806,0,0,1.4389152526855469,0,0,0.611519992351532
1.152034925,0,0,1.4389152526855469,0,0,0.5350799560546875
1.153034878,0,0,1.4891934394836426,0,0,1.1466000080108643
1.15403509,0,0,1.4891934394836426,0,0,1.070159912109375
1.155043136,0,0,1.4891934394836426,0,0,1.1466000080108643
1.156036144,0,0,1.4891934394836426,0,0,0.8408399820327759
1.157034782,0,0,1.4891934394836426,0,0,0.6879600286483765
1.158034809,0,0,1.4891934394836426,0,0,0.7644000053405762
1.159034873,0,0,1.4891934394836426,0,0,0.9172800183296204
1.160034863,0,0,1.5538369417190552,0,0,0.6879600286483765
1.161034908,0,0,1.5538369417190552,0,0,0.7644000053405762
1.162035028,0,0,1.5538369417190552,0,0,0.611519992351532
1.163034944,0,0,1.5538369417190552,0,0,0.9172800183296204
1.164034823,0,0,1.5538369417190552,0,0,0.6879600286483765
1.165034738,0,0,1.5538369417190552,0,0,0.8408399820327759
1.166039765,0,0,1.5538369417190552,0,0,0.9172800183296204
1.167048922,0,0,1.5538369417190552,0,0,0.6879600286483765
1.16803719,0,0,1.5729905366897583,0,0,0.7644000053405762
1.169035198,0,0,1.5729905366897583,0,0,0.611519992351532
1.170035281,0,0,1.5729905366897583,0,0,0.5350799560546875
1.1710354,0,0,1.5729905366897583,0,0,0.9937199950218201
1.172035075,0,0,1.5729905366897583,0,0,0.6879600286483765
1.173034898,0,0,1.5729905366897583,0,0,0.7644000053405762
1.1740348329999999,0,0,1.5729905366897583,0,0,0.9937199950218201
1.175034989,0,0,1.359906554222107,0,0,0.3822000026702881
1.176034905,0,0,1.359906554222107,0,0,0.9937199950218201
1.177034821,0,0,1.359906554222107,0,0,0.9172800183296204
1.178037403,0,0,1.359906554222107,0,0,1.070159912109375
1.179035301,0,0,1.359906554222107,0,0,1.070159912109375
1.1800349940000001,0,0,1.359906554222107,0,0,0.8408399820327759
1.1810349470000001,0,0,1.359906554222107,0,0,0.6879600286483765
1.182035178,0,0,1.534683346748352,0,0,0.5350799560546875
1.183034816,0,0,1.534683346748352,0,0,0.7644000053405762
1.18403488,0,0,1.534683346748352,0,0,0.5350799560546875
1.185034833,0,0,1.534683346748352,0,0,0.9937199950218201
1.186034934,0,0,1.534683346748352,0,0,0.7644000053405762
1.187034905,0,0,1.534683346748352,0,0,0.8408399820327759
1.188034969,0,0,1.534683346748352,0,0,0.9937199950218201
1.1890349040000001,0,0,1.3694833517074585,0,0,0.8408399820327759
1.190034893,0,0,1.3694833517074585,0,0,1.1466000080108643
1.191034883,0,0,1.3694833517074585,0,0,0.9172800183296204
1.192034818,0,0,1.3694833517074585,0,0,0.6879600286483765
1.193035011,0,0,1.3694833517074585,0,0,0.9937199950218201
1.194034835,0,0,1.3694833517074585,0,0,0.611519992351532
1.195034806,0,0,1.3694833517074585,0,0,0.5350799560546875
1.196038962,0,0,1.3694833517074585,0,0,0.9937199950218201
1.197062841,0,0,1.3694833517074585,0,0,0.6879600286483765
1.198054387,0,0,1.3694833517074585,0,0,0.8408399820327759
1.199061117,0,0,1.3694833517074585,0,0,0.6879600286483765
1.200067829,0,0,1.3694833517074585,0,0,0.8408399820327759
1.201082004,0,0,1.3694833517074585,0,0,1.1466000080108643
1.202076235,0,0,1.3694833517074585,0,0,0.8408399820327759
1.203078354,0,0,1.3694833517074585,0,0,0.6879600286483765
1.204064937,0,0,1.4101848602294922,0,0,0.7644000053405762
1.20505226,0,0,1.4101848602294922,0,0,0.611519992351532
1.206066028,0,0,1.4101848602294922,0,0,0.7644000053405762
1.2070673140000001,0,0,1.4101848602294922,0,0,0.6879600286483765
1.208063767,0,0,1.4101848602294922,0,0,0.8408399820327759
1.209077442,0,0,1.4101848602294922,0,0,0.8408399820327759
1.210061932,0,0,1.4101848602294922,0,0,0.7644000053405762
1.211056996,0,0,1.3263877630233765,0,0,0.6879600286483765
1.212081967,0,0,1.3263877630233765,0,0,1.070159912109375
1.213062531,0,0,1.3263877630233765,0,0,0.9172800183296204
1.214073391,0,0,1.3263877630233765,0,0,0.6879600286483765
1.215049548,0,0,1.3263877630233765,0,0,0.9172800183296204
1.216045816,0,0,1.3263877630233765,0,0,0.8408399820327759
1.217044584,0,0,1.3263877630233765,0,0,0.8408399820327759
1.2180466110000001,0,0,1.3742717504501343,0,0,0.152879998087883
1.219048378,0,0,1.3742717504501343,0,0,0.9172800183296204
1.220045368,0,0,1.3742717504501343,0,0,1.070159912109375
1.221045414,0,0,1.3742717504501343,0,0,0.9937199950218201
1.222045941,0,0,1.3742717504501343,0,0,0.8408399820327759
1.223062449,0,0,1.3742717504501343,0,0,0.9172800183296204
1.22405092,0,0,1.3742717504501343,0,0,0.7644000053405762
1.225049114,0,0,1.4413094520568848,0,0,0.8408399820327759
1.226050234,0,0,1.4413094520568848,0,0,0.611519992351532
1.227060371,0,0,1.4413094520568848,0,0,0.5350799560546875
1.228051528,0,0,1.4413094520568848,0,0,1.2994799613952637
1.229047888,0,0,1.4413094520568848,0,0,0.305759996175766
1.230081508,0,0,1.4413094520568848,0,0,1.070159912109375
1.231062146,0,0,1.4413094520568848,0,0,0.8408399820327759
1.232052266,0,0,1.4413094520568848,0,0,0.611519992351532
1.23306494,0,0,1.4891934394836426,0,0,0.8408399820327759
1.234064079,0,0,1.4891934394836426,0,0,1.070159912109375
1.235060365,0,0,1.4891934394836426,0,0,0.7644000053405762
1.236064836,0,0,1.4891934394836426,0,0,0.6879600286483765
1.2370945660000001,0,0,1.4891934394836426,0,0,0.4586400091648102
1.238092908,0,0,1.4891934394836426,0,0,0.6879600286483765
1.239100398,0,0,1.4891934394836426,0,0,0.9937199950218201
1.240091314,0,0,1.6136919260025024,0,0,0.611519992351532
1.241087619,0,0,1.6136919260025024,0,0,0.9172800183296204
1.2420959599999999,0,0,1.6136919260025024,0,0,0.611519992351532
1.243093654,0,0,1.6136919260025024,0,0,0.8408399820327759
1.244057181,0,0,1.6136919260025024,0,0,0.9937199950218201
1.245052394,0,0,1.6136919260025024,0,0,0.6879600286483765
1.246055513,0,0,1.6136919260025024,0,0,0.611519992351532
1.247070781,0,0,1.522712230682373,0,0,0.611519992351532
1.248067733,0,0,1.522712230682373,0,0,0.611519992351532
1.249055261,0,0,1.522712230682373,0,0,0.7644000053405762
1.250053621,0,0,1.522712230682373,0,0,0.9172800183296204
1.251066537,0,0,1.522712230682373,0,0,0.8408399820327759
1.252068619,0,0,1.522712230682373,0,0,0.8408399820327759
1.2530546089999999,0,0,1.522712230682373,0,0,0.7644000053405762
1.254064877,0,0,1.6065093278884888,0,0,0.8408399820327759
1.2550662369999999,0,0,1.6065093278884888,0,0,0.8408399820327759
1.256065801,0,0,1.6065093278884888,0,0,0.8408399820327759
1.257064624,0,0,1.6065093278884888,0,0,0.9172800183296204
1.2580578359999999,0,0,1.6065093278884888,0,0,0.8408399820327759
1.259063456,0,0,1.6065093278884888,0,0,0.611519992351532
1.260069983,0,0,1.6065093278884888,0,0,0.8408399820327759
1.261055288,0,0,1.6065093278884888,0,0,0.5350799560546875
1.262045,0,0,1.5849615335464478,0,0,0.9172800183296204
1.263034916,0,0,1.5849615335464478,0,0,1.375920057296753
1.264033961,0,0,1.5849615335464478,0,0,0.7644000053405762
1.265034155,0,0,1.5849615335464478,0,0,0.6879600286483765
1.266035552,0,0,1.5849615335464478,0,0,0.9172800183296204
1.267034357,0,0,1.5849615335464478,0,0,0.7644000053405762
1.268034087,0,0,1.5849615335464478,0,0,0.7644000053405762
1.269033763,0,0,1.2832920551300049,0,0,0.6879600286483765
1.270034512,0,0,1.2832920551300049,0,0,0.5350799560546875
1.271039427,0,0,1.2832920551300049,0,0,1.223039984703064
1.272034288,0,0,1.2832920551300049,0,0,0.4586400091648102
1.273033574,0,0,1.2832920551300049,0,0,0.8408399820327759
1.274035675,0,0,1.2832920551300049,0,0,0.9172800183296204
1.275033832,0,0,1.2832920551300049,0,0,1.1466000080108643
1.27603371,0,0,1.3718775510787964,0,0,0.7644000053405762
1.277033608,0,0,1.3718775510787964,0,0,0.7644000053405762
1.27803432,0,0,1.3718775510787964,0,0,0.8408399820327759
1.279033921,0,0,1.3718775510787964,0,0,0.8408399820327759
1.280033744,0,0,1.3718775510787964,0,0,0.611519992351532
1.281033604,0,0,1.3718775510787964,0,0,0.5350799560546875
1.282035372,0,0,1.3718775510787964,0,0,1.070159912109375
1.2830338430000001,0,0,1.3335703611373901,0,0,0.6879600286483765
1.284033685,0,0,1.3335703611373901,0,0,1.070159912109375
1.28503362,0,0,1.3335703611373901,0,0,0.9172800183296204
1.2860338869999999,0,0,1.3335703611373901,0,0,0.8408399820327759
1.287033822,0,0,1.3335703611373901,0,0,0.8408399820327759
1.288033515,0,0,1.3335703611373901,0,0,0.9172800183296204
1.289033709,0,0,1.3335703611373901,0,0,0.8408399820327759
1.290034588,0,0,1.3335703611373901,0,0,0.611519992351532
1.291033763,0,0,1.278503656387329,0,0,0.8408399820327759
1.292033641,0,0,1.278503656387329,0,0,0.7644000053405762
1.293033613,0,0,1.278503656387329,0,0,1.070159912109375
1.294036677,0,0,1.278503656387329,0,0,0.7644000053405762
1.295035389,0,0,1.278503656387329,0,0,0.9937199950218201
1.296035453,0,0,1.278503656387329,0,0,0.7644000053405762
1.297035517,0,0,1.278503656387329,0,0,0.9937199950218201
1.298036433,0,0,1.4724340438842773,0,0,0.9172800183296204
1.2990357000000001,0,0,1.4724340438842773,0,0,0.8408399820327759
1.3000353009999999,0,0,1.4724340438842773,0,0,0.7644000053405762
1.301035328,0,0,1.4724340438842773,0,0,0.8408399820327759
1.3020388,0,0,1.4724340438842773,0,0,0.7644000053405762
1.3030354929999999,0,0,1.4724340438842773,0,0,1.1466000080108643
1.304035335,0,0,1.4724340438842773,0,0,0.305759996175766
1.305035288,0,0,1.460463047027588,0,0,0.8408399820327759
1.306035185,0,0,1.460463047027588,0,0,0.8408399820327759
1.307035231,0,0,1.460463047027588,0,0,0.8408399820327759
1.308035332,0,0,1.460463047027588,0,0,0.7644000053405762
1.309035192,0,0,1.460463047027588,0,0,1.070159912109375
1.310035145,0,0,1.460463047027588,0,0,0.611519992351532
1.311035024,0,0,1.460463047027588,0,0,0.611519992351532
1.312035106,0,0,1.4987702369689941,0,0,0.9172800183296204
1.3130371699999999,0,0,1.4987702369689941,0,0,0.611519992351532
1.314036086,0,0,1.4987702369689941,0,0,1.223039984703064
1.315034965,0,0,1.4987702369689941,0,0,0.0764399990439415
1.316035195,0,0,1.4987702369689941,0,0,0.7644000053405762
1.317035278,0,0,1.4987702369689941,0,0,1.070159912109375
1.318035212,0,0,1.4987702369689941,0,0,0.9937199950218201
1.319034998,0,0,1.4987702369689941,0,0,1.070159912109375
1.320035155,0,0,1.577778935432434,0,0,0.7644000053405762
1.321035126,0,0,1.577778935432434,0,0,0.8408399820327759
1.322035079,0,0,1.577778935432434,0,0,0.9172800183296204
1.323035199,0,0,1.577778935432434,0,0,0.7644000053405762
1.324035189,0,0,1.577778935432434,0,0,0.8408399820327759
1.325043012,0,0,1.577778935432434,0,0,1.1466000080108643
1.3260369459999999,0,0,1.577778935432434,0,0,0.7644000053405762
1.327035214,0,0,1.53707754611969,0,0,0.6879600286483765
1.3280353520000001,0,0,1.53707754611969,0,0,0.9172800183296204
1.3290353050000001,0,0,1.53707754611969,0,0,0.7644000053405762
1.330035184,0,0,1.53707754611969,0,0,0.9172800183296204
1.33103584,0,0,1.53707754611969,0,0,0.6879600286483765
1.332035256,0,0,1.53707754611969,0,0,0.7644000053405762
1.33303819,0,0,1.53707754611969,0,0,0.9172800183296204
1.334035329,0,0,1.6352397203445435,0,0,0.6879600286483765
1.335035615,0,0,1.6352397203445435,0,0,0.611519992351532
1.33603579,0,0,1.6352397203445435,0,0,0.8408399820327759
1.3370396869999999,0,0,1.6352397203445435,0,0,0.4586400091648102
1.3380351400000001,0,0,1.6352397203445435,0,0,0.8408399820327759
1.339035667,0,0,1.6352397203445435,0,0,0.5350799560546875
1.3400360089999999,0,0,1.6352397203445435,0,0,0.9937199950218201
1.341035276,0,0,1.5298948287963867,0,0,0.6879600286483765
1.342035192,0,0,1.5298948287963867,0,0,0.8408399820327759
1.343035108,0,0,1.5298948287963867,0,0,0.7644000053405762
1.344035079,0,0,1.5298948287963867,0,0,0.611519992351532
1.345035236,0,0,1.5298948287963867,0,0,0.611519992351532
1.3460363929999999,0,0,1.5298948287963867,0,0,0.611519992351532
1.347035216,0,0,1.5298948287963867,0,0,0.9172800183296204
1.348035224,0,0,1.3407529592514038,0,0,0.9172800183296204
1.349035307,0,0,1.3407529592514038,0,0,0.611519992351532
1.350035148,0,0,1.3407529592514038,0,0,0.9172800183296204
1.3510353419999999,0,0,1.3407529592514038,0,0,0.9172800183296204
1.352035017,0,0,1.3407529592514038,0,0,0.9172800183296204
1.353035303,0,0,1.3407529592514038,0,0,1.223039984703064
1.354035164,0,0,1.3407529592514038,0,0,0.9172800183296204
1.355035228,0,0,1.3407529592514038,0,0,0.7644000053405762
1.3560351800000001,0,0,1.357512354850769,0,0,0.611519992351532
1.3570351889999999,0,0,1.357512354850769,0,0,1.1466000080108643
1.358084326,0,0,1.357512354850769,0,0,0.152879998087883
1.359087076,0,0,1.357512354850769,0,0,0.6879600286483765
1.360087325,0,0,1.357512354850769,0,0,0.8408399820327759
1.361087852,0,0,1.357512354850769,0,0,0.9172800183296204
1.362087175,0,0,1.357512354850769,0,0,0.5350799560546875
1.36308822,0,0,1.3838485479354858,0,0,1.1466000080108643
1.364093821,0,0,1.3838485479354858,0,0,0.9172800183296204
1.36508833,0,0,1.3838485479354858,0,0,0.6879600286483765
1.366086912,0,0,1.3838485479354858,0,0,0.6879600286483765
1.367087754,0,0,1.3838485479354858,0,0,0.3822000026702881
1.368087374,0,0,1.3838485479354858,0,0,1.070159912109375
1.369087252,0,0,1.3838485479354858,0,0,0.305759996175766
1.370087039,0,0,1.3718775510787964,0,0,0.7644000053405762
1.371087158,0,0,1.3718775510787964,0,0,1.1466000080108643
1.372087222,0,0,1.3718775510787964,0,0,0.9937199950218201
1.373087194,0,0,1.3718775510787964,0,0,0.7644000053405762
1.3740872020000001,0,0,1.3718775510787964,0,0,-8.867039680480957
1.3750840069999999,0,0,1.3718775510787964,0,0,0.4586400091648102
1.3760839040000001,0,0,1.3718775510787964,0,0,0.8408399820327759
1.377083986,0,0,1.434126853942871,0,0,0.611519992351532
1.378092439,0,0,1.434126853942871,0,0,0.6879600286483765
1.379087707,0,0,1.434126853942871,0,0,0.9937199950218201
1.380086919,0,0,1.434126853942871,0,0,0.8408399820327759
1.381086965,0,0,1.434126853942871,0,0,0.7644000053405762
1.382087029,0,0,1.434126853942871,0,0,0.6879600286483765
1.383086593,0,0,1.434126853942871,0,0,1.070159912109375
1.384087157,0,0,1.434126853942871,0,0,0.7644000053405762
1.385086832,0,0,1.436521053314209,0,0,0.8408399820327759
1.386087062,0,0,1.436521053314209,0,0,0.6879600286483765
1.387086663,0,0,1.436521053314209,0,0,0.7644000053405762
1.388086875,0,0,1.436521053314209,0,0,0.6879600286483765
1.38908681,0,0,1.436521053314209,0,0,0.7644000053405762
1.3900868370000001,0,0,1.436521053314209,0,0,0.9172800183296204
1.391086882,0,0,1.436521053314209,0,0,0.9172800183296204
1.392086854,0,0,1.601720929145813,0,0,0.9937199950218201
1.393087177,0,0,1.601720929145813,0,0,0.8408399820327759
1.394087722,0,0,1.601720929145813,0,0,0.4586400091648102
1.395093934,0,0,1.601720929145813,0,0,1.1466000080108643
1.39608798,0,0,1.601720929145813,0,0,0.611519992351532
1.397086636,0,0,1.601720929145813,0,0,0.9172800183296204
1.3980872,0,0,1.601720929145813,0,0,0.5350799560546875
1.399087135,0,0,1.5969325304031372,0,0,0.7644000053405762
1.400086958,0,0,1.5969325304031372,0,0,0.7644000053405762
1.4010871329999999,0,0,1.5969325304031372,0,0,0.3822000026702881
1.402086919,0,0,1.5969325304031372,0,0,0.9937199950218201
1.403087354,0,0,1.5969325304031372,0,0,0.9172800183296204
1.4040869360000001,0,0,1.5969325304031372,0,0,0.9172800183296204
1.405086833,0,0,1.5969325304031372,0,0,0.8408399820327759
1.40608649,0,0,1.5969325304031372,0,0,1.070159912109375
1.407086591,0,0,1.5203180313110352,0,0,0.8408399820327759
1.408087099,0,0,1.5203180313110352,0,0,0.7644000053405762
1.4090881259999999,0,0,1.5203180313110352,0,0,0.611519992351532
1.41008845,0,0,1.5203180313110352,0,0,0.611519992351532
1.411087254,0,0,1.5203180313110352,0,0,1.070159912109375
1.412086763,0,0,1.5203180313110352,0,0,0.152879998087883
1.4130865670000001,0,0,1.5203180313110352,0,0,0.9172800183296204
1.414087446,0,0,1.5466543436050415,0,0,0.9937199950218201
1.415087381,0,0,1.5466543436050415,0,0,0.8408399820327759
1.416087204,0,0,1.5466543436050415,0,0,0.9172800183296204
1.417087231,0,0,1.5466543436050415,0,0,0.9172800183296204
1.418087998,0,0,1.5466543436050415,0,0,0.5350799560546875
1.419088599,0,0,1.5466543436050415,0,0,0.6879600286483765
1.42010083,0,0,1.5466543436050415,0,0,0.5350799560546875
1.421088061,0,0,1.4772224426269531,0,0,0.5350799560546875
1.42208681,0,0,1.4772224426269531,0,0,0.9172800183296204
1.423087004,0,0,1.4772224426269531,0,0,0.6879600286483765
1.424087493,0,0,1.4772224426269531,0,0,0.8408399820327759
1.425087539,0,0,1.4772224426269531,0,0,0.7644000053405762
1.4260945839999999,0,0,1.4772224426269531,0,0,0.8408399820327759
1.427088704,0,0,1.4772224426269531,0,0,0.9937199950218201
1.428087157,0,0,1.3239935636520386,0,0,0.9172800183296204
1.4291567760000001,0,0,1.3239935636520386,0,0,0.8408399820327759
1.430134303,0,0,1.3239935636520386,0,0,0.9172800183296204
1.431115089,0,0,1.3239935636520386,0,0,0.6879600286483765
1.432092635,0,0,1.3239935636520386,0,0,0.8408399820327759
1.433108569,0,0,1.3239935636520386,0,0,0.7644000053405762
1.434128836,0,0,1.3239935636520386,0,0,0.9172800183296204
1.435120141,0,0,1.3527239561080933,0,0,0.6879600286483765
1.436091317,0,0,1.3527239561080933,0,0,0.9172800183296204
1.437085196,0,0,1.3527239561080933,0,0,0.8408399820327759
1.438087834,0,0,1.3527239561080933,0,0,1.070159912109375
1.439084879,0,0,1.3527239561080933,0,0,0.6879600286483765
1.440084128,0,0,1.3527239561080933,0,0,0.6879600286483765
1.441084118,0,0,1.3527239561080933,0,0,0.8408399820327759
1.442084997,0,0,1.3527239561080933,0,0,0.6879600286483765
1.443083894,0,0,1.359906554222107,0,0,0.9937199950218201
1.44408344,0,0,1.359906554222107,0,0,0.5350799560546875
1.445083281,0,0,1.359906554222107,0,0,1.070159912109375
1.446085938,0,0,1.359906554222107,0,0,0.9172800183296204
1.4470840759999999,0,0,1.359906554222107,0,0,0.611519992351532
1.448083566,0,0,1.359906554222107,0,0,0.9937199950218201
1.449083519,0,0,1.359906554222107,0,0,1.223039984703064
1.450083916,0,0,1.314416766166687,0,0,0.8408399820327759
1.451083573,0,0,1.314416766166687,0,0,0.8408399820327759
1.45208347,0,0,1.314416766166687,0,0,0.9172800183296204
1.453083127,0,0,1.314416766166687,0,0,0.611519992351532
1.454089987,0,0,1.314416766166687,0,0,1.223039984703064
1.455087495,0,0,1.314416766166687,0,0,0.152879998087883
1.456087337,0,0,1.314416766166687,0,0,0.7644000053405762
1.457095679,0,0,1.3766659498214722,0,0,0.9172800183296204
1.458112539,0,0,1.3766659498214722,0,0,0.9172800183296204
1.459087751,0,0,1.3766659498214722,0,0,1.223039984703064
1.460077741,0,0,1.3766659498214722,0,0,1.1466000080108643
1.461076713,0,0,1.3766659498214722,0,0,0.7644000053405762
1.46207698,0,0,1.3766659498214722,0,0,0.6879600286483765
1.4630775630000001,0,0,1.3766659498214722,0,0,0.8408399820327759
1.46407646,0,0,1.436521053314209,0,0,0.611519992351532
1.4650767089999999,0,0,1.436521053314209,0,0,1.452359914779663
1.466076699,0,0,1.436521053314209,0,0,0.2293200045824051
1.46707693,0,0,1.436521053314209,0,0,0.611519992351532
1.468076827,0,0,1.436521053314209,0,0,1.070159912109375
1.4690766499999999,0,0,1.436521053314209,0,0,0.9937199950218201
1.4700769550000001,0,0,1.436521053314209,0,0,0.7644000053405762
1.471076815,0,0,1.436521053314209,0,0,0.611519992351532
1.4720767129999999,0,0,1.5897499322891235,0,0,0.7644000053405762
1.473076721,0,0,1.5897499322891235,0,0,0.6879600286483765
1.474080303,0,0,1.5897499322891235,0,0,0.8408399820327759
1.475085516,0,0,1.5897499322891235,0,0,0.4586400091648102
1.476078191,0,0,1.5897499322891235,0,0,1.5288000106811523
1.477076681,0,0,1.5897499322891235,0,0,0.9937199950218201
1.478076726,0,0,1.5897499322891235,0,0,0.7644000053405762
1.479077457,0,0,1.6735470294952393,0,0,0.9937199950218201
1.480076613,0,0,1.6735470294952393,0,0,0.9937199950218201
1.481076881,0,0,1.6735470294952393,0,0,0.9937199950218201
1.482076834,0,0,1.6735470294952393,0,0,0.9172800183296204
1.4830769529999999,0,0,1.6735470294952393,0,0,0.6879600286483765
1.484076721,0,0,1.6735470294952393,0,0,0.9172800183296204
1.485077044,0,0,1.6735470294952393,0,0,0.9937199950218201
1.4860770159999999,0,0,1.6280571222305298,0,0,0.611519992351532
1.487077209,0,0,1.6280571222305298,0,0,0.7644000053405762
1.4880844579999999,0,0,1.6280571222305298,0,0,0.9937199950218201
1.4890772079999999,0,0,1.6280571222305298,0,0,1.070159912109375
1.490077957,0,0,1.6280571222305298,0,0,0.6879600286483765
1.491076947,0,0,1.6280571222305298,0,0,0.9172800183296204
1.492082177,0,0,1.6280571222305298,0,0,1.223039984703064
1.493112334,0,0,1.6160861253738403,0,0,0.9172800183296204
1.494124194,0,0,1.6160861253738403,0,0,0.7644000053405762
1.495120554,0,0,1.6160861253738403,0,0,0.9172800183296204
1.496136581,0,0,1.6160861253738403,0,0,0.611519992351532
1.497084312,0,0,1.6160861253738403,0,0,1.070159912109375
1.4980794130000001,0,0,1.6160861253738403,0,0,0
1.499077773,0,0,1.6160861253738403,0,0,0.8408399820327759
1.5000771149999998,0,0,1.6160861253738403,0,0,0.9172800183296204
1.501077161,0,0,1.4867992401123047,0,0,1.070159912109375
1.502077243,0,0,1.4867992401123047,0,0,0.6879600286483765
1.503077048,0,0,1.4867992401123047,0,0,0.8408399820327759
1.5040771670000002,0,0,1.4867992401123047,0,0,0.8408399820327759
1.505076972,0,0,1.4867992401123047,0,0,0.6879600286483765
1.5060773140000001,0,0,1.4867992401123047,0,0,0.5350799560546875
1.507077193,0,0,1.4867992401123047,0,0,0.611519992351532
1.508076942,0,0,1.4077905416488647,0,0,1.375920057296753
1.509076895,0,0,1.4077905416488647,0,0,0.611519992351532
1.5100772180000002,0,0,1.4077905416488647,0,0,0.6879600286483765
1.511077115,0,0,1.4077905416488647,0,0,0.9937199950218201
1.51207742,0,0,1.4077905416488647,0,0,0.8408399820327759
1.513079225,0,0,1.4077905416488647,0,0,0.5350799560546875
1.514076955,0,0,1.4077905416488647,0,0,0.9937199950218201
1.515077204,0,0,1.400607943534851,0,0,0.7644000053405762
1.516077065,0,0,1.400607943534851,0,0,0.7644000053405762
1.517077221,0,0,1.400607943534851,0,0,0.7644000053405762
1.5180767849999999,0,0,1.400607943534851,0,0,0.611519992351532
1.519084627,0,0,1.400607943534851,0,0,1.223039984703064
1.520077635,0,0,1.400607943534851,0,0,0.6879600286483765
1.5210769769999999,0,0,1.400607943534851,0,0,0.8408399820327759
1.522091041,0,0,1.3263877630233765,0,0,0.6879600286483765
1.5230779380000001,0,0,1.3263877630233765,0,0,0.9172800183296204
1.524101632,0,0,1.3263877630233765,0,0,0.9172800183296204
1.525096455,0,0,1.3263877630233765,0,0,0.6879600286483765
1.5260820750000001,0,0,1.3263877630233765,0,0,0.9172800183296204
1.527080009,0,0,1.3263877630233765,0,0,0.8408399820327759
1.528077795,0,0,1.3263877630233765,0,0,0.5350799560546875
1.52907797,0,0,1.3742717504501343,0,0,0.5350799560546875
1.530077812,0,0,1.3742717504501343,0,0,0.5350799560546875
1.531077635,0,0,1.3742717504501343,0,0,0.9937199950218201
1.532077033,0,0,1.3742717504501343,0,0,1.070159912109375
1.533077486,0,0,1.3742717504501343,0,0,0.611519992351532
1.534077716,0,0,1.3742717504501343,0,0,0.8408399820327759
1.535074225,0,0,1.3742717504501343,0,0,0.9937199950218201
1.536074326,0,0,1.3742717504501343,0,0,0.7644000053405762
1.537074149,0,0,1.4053963422775269,0,0,0.611519992351532
1.538083768,0,0,1.4053963422775269,0,0,0.7644000053405762
1.53907824,0,0,1.4053963422775269,0,0,0.8408399820327759
1.540077656,0,0,1.4053963422775269,0,0,0.9937199950218201
1.5410771269999999,0,0,1.4053963422775269,0,0,0.152879998087883
1.542077358,0,0,1.4053963422775269,0,0,0.6879600286483765
1.543077255,0,0,1.4053963422775269,0,0,0.9172800183296204
1.544076689,0,0,1.4844050407409668,0,0,0.8408399820327759
1.545077013,0,0,1.4844050407409668,0,0,0.6879600286483765
1.546077317,0,0,1.4844050407409668,0,0,0.9172800183296204
1.5470781219999998,0,0,1.4844050407409668,0,0,1.1466000080108643
1.54807739,0,0,1.4844050407409668,0,0,0.5350799560546875
1.54907712,0,0,1.4844050407409668,0,0,0.7644000053405762
1.550085092,0,0,1.4844050407409668,0,0,0.6879600286483765
1.551077322,0,0,1.5897499322891235,0,0,1.223039984703064
1.552077127,0,0,1.5897499322891235,0,0,0.2293200045824051
1.553077136,0,0,1.5897499322891235,0,0,0.8408399820327759
1.5540776809999999,0,0,1.5897499322891235,0,0,0.7644000053405762
1.555076967,0,0,1.5897499322891235,0,0,0.9172800183296204
1.556077624,0,0,1.5897499322891235,0,0,0.7644000053405762
1.557080021,0,0,1.5897499322891235,0,0,0.9172800183296204
1.5580774,0,0,1.558625340461731,0,0,0.8408399820327759
1.559078427,0,0,1.558625340461731,0,0,0.611519992351532
1.560077157,0,0,1.558625340461731,0,0,0.6879600286483765
1.561077333,0,0,1.558625340461731,0,0,0.7644000053405762
1.5620770080000002,0,0,1.558625340461731,0,0,1.2994799613952637
1.563076998,0,0,1.558625340461731,0,0,0.6879600286483765
1.56407721,0,0,1.558625340461731,0,0,0.9937199950218201
1.565077348,0,0,1.558625340461731,0,0,0.8408399820327759
1.566077338,0,0,1.5155296325683594,0,0,0.8408399820327759
1.567074753,0,0,1.5155296325683594,0,0,0.8408399820327759
1.568073929,0,0,1.5155296325683594,0,0,0.7644000053405762
1.569073918,0,0,1.5155296325683594,0,0,0.5350799560546875
1.5700822049999998,0,0,1.5155296325683594,0,0,0.7644000053405762
1.571078454,0,0,1.5155296325683594,0,0,0.6879600286483765
1.5720774990000002,0,0,1.5155296325683594,0,0,0.5350799560546875
1.573077415,0,0,1.599326729774475,0,0,0.6879600286483765
1.574077553,0,0,1.599326729774475,0,0,0.8408399820327759
1.575077506,0,0,1.599326729774475,0,0,0.9172800183296204
1.576077718,0,0,1.599326729774475,0,0,0.8408399820327759
1.5770778559999998,0,0,1.599326729774475,0,0,0.9172800183296204
1.578077994,0,0,1.599326729774475,0,0,1.1466000080108643
1.579077114,0,0,1.599326729774475,0,0,0.8408399820327759
1.5800774,0,0,1.4772224426269531,0,0,0.611519992351532
1.58108389,0,0,1.4772224426269531,0,0,0.5350799560546875
1.582077472,0,0,1.4772224426269531,0,0,0.7644000053405762
1.583077499,0,0,1.4772224426269531,0,0,0.9937199950218201
1.584077452,0,0,1.4772224426269531,0,0,0.3822000026702881
1.585077349,0,0,1.4772224426269531,0,0,1.1466000080108643
1.586092173,0,0,1.4772224426269531,0,0,0.9172800183296204
1.58707857,0,0,1.316810965538025,0,0,0.6879600286483765
1.588077634,0,0,1.316810965538025,0,0,0.9172800183296204
1.5890774570000001,0,0,1.316810965538025,0,0,0.9172800183296204
1.590077336,0,0,1.316810965538025,0,0,0.9172800183296204
1.591078381,0,0,1.316810965538025,0,0,0.9172800183296204
1.5920769080000001,0,0,1.316810965538025,0,0,0.5350799560546875
1.5930770650000001,0,0,1.316810965538025,0,0,0.5350799560546875
1.594077055,0,0,1.316810965538025,0,0,1.223039984703064
1.5950769710000001,0,0,1.3910311460494995,0,0,0.305759996175766
1.5960769240000001,0,0,1.3910311460494995,0,0,0.4586400091648102
1.597076932,0,0,1.3910311460494995,0,0,0.9937199950218201
1.59807744,0,0,1.3910311460494995,0,0,0.611519992351532
1.599077264,0,0,1.3910311460494995,0,0,0.9172800183296204
1.600076772,0,0,1.3910311460494995,0,0,0.6879600286483765
1.6010773550000001,0,0,1.3910311460494995,0,0,0.9172800183296204
1.6020773259999999,0,0,1.3455413579940796,0,0,0.5350799560546875
1.603077446,0,0,1.3455413579940796,0,0,0.7644000053405762
1.604076972,0,0,1.3455413579940796,0,0,0.6879600286483765
1.605077425,0,0,1.3455413579940796,0,0,1.2994799613952637
1.606077212,0,0,1.3455413579940796,0,0,0.611519992351532
1.607077498,0,0,1.3455413579940796,0,0,0.8408399820327759
1.608077451,0,0,1.3455413579940796,0,0,1.070159912109375
1.609077311,0,0,1.4173674583435059,0,0,0.7644000053405762
1.6100776159999999,0,0,1.4173674583435059,0,0,0.9172800183296204
1.611077031,0,0,1.4173674583435059,0,0,0.8408399820327759
1.612082206,0,0,1.4173674583435059,0,0,0.7644000053405762
1.613077696,0,0,1.4173674583435059,0,0,0.9937199950218201
1.6140773899999998,0,0,1.4173674583435059,0,0,0.5350799560546875
1.615077195,0,0,1.4173674583435059,0,0,0.611519992351532
1.6160772030000001,0,0,1.5203180313110352,0,0,0.7644000053405762
1.617077397,0,0,1.5203180313110352,0,0,0.9172800183296204
1.6180769609999999,0,0,1.5203180313110352,0,0,1.070159912109375
1.619077303,0,0,1.5203180313110352,0,0,0.9172800183296204
1.6200773659999999,0,0,1.5203180313110352,0,0,0.9172800183296204
1.621077208,0,0,1.5203180313110352,0,0,0.8408399820327759
1.622077624,0,0,1.5203180313110352,0,0,0.9172800183296204
1.623077873,0,0,1.5203180313110352,0,0,0.611519992351532
1.624077234,0,0,1.5538369417190552,0,0,0.611519992351532
1.62507676,0,0,1.5538369417190552,0,0,0.6879600286483765
1.626077491,0,0,1.5538369417190552,0,0,1.1466000080108643
1.627077129,0,0,1.5538369417190552,0,0,0.4586400091648102
1.628076952,0,0,1.5538369417190552,0,0,0.7644000053405762
1.6290773870000002,0,0,1.5538369417190552,0,0,1.070159912109375
1.630077321,0,0,1.5538369417190552,0,0,1.070159912109375
1.6310768850000001,0,0,1.5897499322891235,0,0,0.8408399820327759
1.6320770420000001,0,0,1.5897499322891235,0,0,1.070159912109375
1.6330769200000002,0,0,1.5897499322891235,0,0,0.9172800183296204
1.6340767440000001,0,0,1.5897499322891235,0,0,0.9172800183296204
1.635077271,0,0,1.5897499322891235,0,0,0.611519992351532
1.636077298,0,0,1.5897499322891235,0,0,0.611519992351532
1.637078306,0,0,1.5897499322891235,0,0,1.1466000080108643
1.6380770550000001,0,0,1.6089035272598267,0,0,0.3822000026702881
1.639077138,0,0,1.6089035272598267,0,0,0.7644000053405762
1.640077035,0,0,1.6089035272598267,0,0,0.6879600286483765
1.641077321,0,0,1.6089035272598267,0,0,0.9937199950218201
1.642077478,0,0,1.6089035272598267,0,0,0.5350799560546875
1.643082727,0,0,1.6089035272598267,0,0,0.7644000053405762
1.644077587,0,0,1.6089035272598267,0,0,0.9172800183296204
1.6450772439999999,0,0,1.5298948287963867,0,0,0.8408399820327759
1.646076734,0,0,1.5298948287963867,0,0,0.7644000053405762
1.647077353,0,0,1.5298948287963867,0,0,-9.096360206604004
1.648077528,0,0,1.5298948287963867,0,0,1.070159912109375
1.6490773509999999,0,0,1.5298948287963867,0,0,0.8408399820327759
1.6500938600000001,0,0,1.5298948287963867,0,0,0.8408399820327759
1.6510785719999999,0,0,1.5298948287963867,0,0,0.8408399820327759
1.6520774139999999,0,0,1.479616641998291,0,0,0.8408399820327759
1.653077996,0,0,1.479616641998291,0,0,1.223039984703064
1.654077394,0,0,1.479616641998291,0,0,0.9172800183296204
1.655076958,0,0,1.479616641998291,0,0,0.8408399820327759
1.65607691,0,0,1.479616641998291,0,0,0.611519992351532
1.657076697,0,0,1.479616641998291,0,0,0.6879600286483765
1.658077205,0,0,1.479616641998291,0,0,-9.325679779052734
1.659077306,0,0,1.479616641998291,0,0,0.611519992351532
1.660077426,0,0,1.3479355573654175,0,0,0.9172800183296204
1.661077082,0,0,1.3479355573654175,0,0,0.611519992351532
1.66207685,0,0,1.3479355573654175,0,0,0.9937199950218201
1.663077025,0,0,1.3479355573654175,0,0,0.9172800183296204
1.664077478,0,0,1.3479355573654175,0,0,1.070159912109375
1.665080005,0,0,1.3479355573654175,0,0,0.7644000053405762
1.6660769389999999,0,0,1.3479355573654175,0,0,0.9172800183296204
1.667089318,0,0,1.3718775510787964,0,0,0.7644000053405762
1.668077993,0,0,1.3718775510787964,0,0,0.7644000053405762
1.669077094,0,0,1.3718775510787964,0,0,0.8408399820327759
1.670076825,0,0,1.3718775510787964,0,0,0.0764399990439415
1.671077296,0,0,1.3718775510787964,0,0,1.1466000080108643
1.672077249,0,0,1.3718775510787964,0,0,1.223039984703064
1.673077665,0,0,1.3718775510787964,0,0,0.8408399820327759
1.674083543,0,0,1.4077905416488647,0,0,0.6879600286483765
1.675077385,0,0,1.4077905416488647,0,0,1.070159912109375
1.676077468,0,0,1.4077905416488647,0,0,0.7644000053405762
1.677077347,0,0,1.4077905416488647,0,0,0.6879600286483765
1.6780767619999999,0,0,1.4077905416488647,0,0,0.7644000053405762
1.679076845,0,0,1.4077905416488647,0,0,0.5350799560546875
1.680077187,0,0,1.4077905416488647,0,0,1.070159912109375
1.681076843,0,0,1.2617442607879639,0,0,0.4586400091648102
1.6820773519999999,0,0,1.2617442607879639,0,0,0.6879600286483765
1.683077379,0,0,1.2617442607879639,0,0,0.9172800183296204
1.6840769610000001,0,0,1.2617442607879639,0,0,0.8408399820327759
1.685077247,0,0,1.2617442607879639,0,0,0.6879600286483765
1.686077052,0,0,1.2617442607879639,0,0,0.8408399820327759
1.687078394,0,0,1.2617442607879639,0,0,0.5350799560546875
1.6880775319999999,0,0,1.2617442607879639,0,0,0.6879600286483765
1.689077262,0,0,1.4413094520568848,0,0,0.7644000053405762
1.690077252,0,0,1.4413094520568848,0,0,0.611519992351532
1.6910769270000001,0,0,1.4413094520568848,0,0,0.9937199950218201
1.6920774170000001,0,0,1.4413094520568848,0,0,0.7644000053405762
1.693077389,0,0,1.4413094520568848,0,0,0.9937199950218201
1.69407723,0,0,1.4413094520568848,0,0,1.1466000080108643
1.695077331,0,0,1.4413094520568848,0,0,1.1466000080108643
1.696077136,0,0,1.5418659448623657,0,0,0.9172800183296204
1.6970769780000001,0,0,1.5418659448623657,0,0,0.8408399820327759
1.698077616,0,0,1.5418659448623657,0,0,0.9172800183296204
1.699073458,0,0,1.5418659448623657,0,0,0.8408399820327759
1.700074448,0,0,1.5418659448623657,0,0,0.7644000053405762
1.701073938,0,0,1.5418659448623657,0,0,0.611519992351532
1.7020802609999999,0,0,1.5418659448623657,0,0,0.6879600286483765
1.703077769,0,0,1.5394717454910278,0,0,1.070159912109375
1.704076815,0,0,1.5394717454910278,0,0,0.6879600286483765
1.705082082,0,0,1.5394717454910278,0,0,0.611519992351532
1.706077998,0,0,1.5394717454910278,0,0,0.8408399820327759
1.7070773209999999,0,0,1.5394717454910278,0,0,0.8408399820327759
1.708076904,0,0,1.5394717454910278,0,0,1.070159912109375
1.709077042,0,0,1.5394717454910278,0,0,0.9937199950218201
1.710076939,0,0,1.6424223184585571,0,0,0.8408399820327759
1.7110765589999999,0,0,1.6424223184585571,0,0,0.6879600286483765
1.7120762520000001,0,0,1.6424223184585571,0,0,0.9172800183296204
1.713093835,0,0,1.6424223184585571,0,0,0.6879600286483765
1.7141072689999999,0,0,1.6424223184585571,0,0,0.6879600286483765
1.715081815,0,0,1.6424223184585571,0,0,0.611519992351532
1.7160784709999999,0,0,1.6424223184585571,0,0,0.9937199950218201
1.717077239,0,0,1.5418659448623657,0,0,0.9937199950218201
1.718077007,0,0,1.5418659448623657,0,0,0.9172800183296204
1.719078089,0,0,1.5418659448623657,0,0,0.9172800183296204
1.720076894,0,0,1.5418659448623657,0,0,0.6879600286483765
1.7210774020000001,0,0,1.5418659448623657,0,0,0.7644000053405762
1.7220768,0,0,1.5418659448623657,0,0,0.9172800183296204
1.7230773080000001,0,0,1.5418659448623657,0,0,0.7644000053405762
1.724077076,0,0,1.6328455209732056,0,0,0.611519992351532
1.725077269,0,0,1.6328455209732056,0,0,0.8408399820327759
1.726077481,0,0,1.6328455209732056,0,0,0.9172800183296204
1.72707736,0,0,1.6328455209732056,0,0,0.7644000053405762
1.728077183,0,0,1.6328455209732056,0,0,0.9172800183296204
1.7290771729999999,0,0,1.6328455209732056,0,0,0.9937199950218201
1.730077015,0,0,1.6328455209732056,0,0,0.9172800183296204
1.7310771900000002,0,0,1.436521053314209,0,0,0.611519992351532
1.732076884,0,0,1.436521053314209,0,0,0.6879600286483765
1.733076911,0,0,1.436521053314209,0,0,0.5350799560546875
1.734077086,0,0,1.436521053314209,0,0,0.7644000053405762
1.735077279,0,0,1.436521053314209,0,0,0.5350799560546875
1.736083232,0,0,1.436521053314209,0,0,0.8408399820327759
1.737077426,0,0,1.436521053314209,0,0,0.7644000053405762
1.738077101,0,0,1.3239935636520386,0,0,0.9172800183296204
1.739076572,0,0,1.3239935636520386,0,0,0.9937199950218201
1.740077766,0,0,1.3239935636520386,0,0,0.6879600286483765
1.741077163,0,0,1.3239935636520386,0,0,0.8408399820327759
1.74207732,0,0,1.3239935636520386,0,0,0.8408399820327759
1.743082939,0,0,1.3239935636520386,0,0,0.611519992351532
1.74411841,0,0,1.3239935636520386,0,0,0.7644000053405762
1.745171381,0,0,1.3287819623947144,0,0,0.6879600286483765
1.746124835,0,0,1.3287819623947144,0,0,0.9172800183296204
1.7470973060000001,0,0,1.3287819623947144,0,0,1.1466000080108643
1.748082444,0,0,1.3287819623947144,0,0,0.6879600286483765
1.749078731,0,0,1.3287819623947144,0,0,1.070159912109375
1.7500785909999999,0,0,1.3287819623947144,0,0,0.8408399820327759
1.751077822,0,0,1.3287819623947144,0,0,1.1466000080108643
1.7520772,0,0,1.3287819623947144,0,0,0.611519992351532
1.753077376,0,0,1.3024457693099976,0,0,0.7644000053405762
1.754077273,0,0,1.3024457693099976,0,0,0.7644000053405762
1.7550770409999998,0,0,1.3024457693099976,0,0,0.9172800183296204
1.756077197,0,0,1.3024457693099976,0,0,0.9172800183296204
1.757077057,0,0,1.3024457693099976,0,0,0.9937199950218201
1.758076973,0,0,1.3024457693099976,0,0,0.9937199950218201
1.759077204,0,0,1.3024457693099976,0,0,0.611519992351532
1.760077101,0,0,1.2066776752471924,0,0,0.611519992351532
1.761076887,0,0,1.2066776752471924,0,0,0.9172800183296204
1.762076951,0,0,1.2066776752471924,0,0,0.7644000053405762
1.763077719,0,0,1.2066776752471924,0,0,0.7644000053405762
1.764077264,0,0,1.2066776752471924,0,0,0.4586400091648102
1.765077088,0,0,1.2066776752471924,0,0,0.611519992351532
1.766077078,0,0,1.2066776752471924,0,0,0.9937199950218201
1.767086123,0,0,1.37906014919281,0,0,0.5350799560546875
1.768077817,0,0,1.37906014919281,0,0,0.8408399820327759
1.769077381,0,0,1.37906014919281,0,0,0.9172800183296204
1.770077574,0,0,1.37906014919281,0,0,0.9937199950218201
1.771077509,0,0,1.37906014919281,0,0,0.9172800183296204
1.772077184,0,0,1.37906014919281,0,0,0.8408399820327759
1.773077174,0,0,1.37906014919281,0,0,0.7644000053405762
1.774076849,0,0,1.522712230682373,0,0,0.9172800183296204
1.7750769499999999,0,0,1.522712230682373,0,0,0.611519992351532
1.776076995,0,0,1.522712230682373,0,0,0.611519992351532
1.7770768179999998,0,0,1.522712230682373,0,0,1.1466000080108643
1.7780921410000001,0,0,1.522712230682373,0,0,0.3822000026702881
1.779079243,0,0,1.522712230682373,0,0,0.6879600286483765
1.780077344,0,0,1.522712230682373,0,0,0.611519992351532
1.781077574,0,0,1.577778935432434,0,0,0.8408399820327759
1.782076805,0,0,1.577778935432434,0,0,0.9172800183296204
1.78307748,0,0,1.577778935432434,0,0,0.9172800183296204
1.784077174,0,0,1.577778935432434,0,0,0.3822000026702881
1.785077201,0,0,1.577778935432434,0,0,0.7644000053405762
1.786077024,0,0,1.577778935432434,0,0,0.5350799560546875
1.7870777169999998,0,0,1.577778935432434,0,0,0.7644000053405762
1.78808067,0,0,1.577778935432434,0,0,0.9172800183296204
1.789077216,0,0,1.6400281190872192,0,0,0.6879600286483765
1.7900771500000001,0,0,1.6400281190872192,0,0,0.9937199950218201
1.791077584,0,0,1.6400281190872192,0,0,0.6879600286483765
1.792077778,0,0,1.6400281190872192,0,0,0.8408399820327759
1.7930775460000001,0,0,1.6400281190872192,0,0,0.9172800183296204
1.794077184,0,0,1.6400281190872192,0,0,0.9937199950218201
1.7950772480000001,0,0,1.6400281190872192,0,0,0.7644000053405762
1.796077015,0,0,1.5275006294250488,0,0,0.611519992351532
1.797077024,0,0,1.5275006294250488,0,0,0.6879600286483765
1.798083699,0,0,1.5275006294250488,0,0,0.611519992351532
1.799078059,0,0,1.5275006294250488,0,0,1.070159912109375
1.8000771599999998,0,0,1.5275006294250488,0,0,0.7644000053405762
1.801076965,0,0,1.5275006294250488,0,0,0.9172800183296204
1.8020769730000001,0,0,1.5275006294250488,0,0,0.6879600286483765
1.803077297,0,0,1.6328455209732056,0,0,0.611519992351532
1.80407712,0,0,1.6328455209732056,0,0,0.8408399820327759
1.805076962,0,0,1.6328455209732056,0,0,0.5350799560546875
1.806077229,0,0,1.6328455209732056,0,0,0.7644000053405762
1.807077256,0,0,1.6328455209732056,0,0,0.8408399820327759
1.808077172,0,0,1.6328455209732056,0,0,0.611519992351532
1.809076921,0,0,1.6328455209732056,0,0,0.611519992351532
1.810077856,0,0,1.482010841369629,0,0,0.611519992351532
1.811078568,0,0,1.482010841369629,0,0,-8.714159965515137
1.812077261,0,0,1.482010841369629,0,0,0.9937199950218201
1.813076992,0,0,1.482010841369629,0,0,1.1466000080108643
1.814076852,0,0,1.482010841369629,0,0,0.8408399820327759
1.815077009,0,0,1.482010841369629,0,0,0.8408399820327759
1.816077554,0,0,1.482010841369629,0,0,0.9172800183296204
1.817077248,0,0,1.482010841369629,0,0,1.070159912109375
1.818077516,0,0,1.381454348564148,0,0,0.7644000053405762
1.8190771909999999,0,0,1.381454348564148,0,0,0.5350799560546875
1.820076681,0,0,1.381454348564148,0,0,1.1466000080108643
1.821077282,0,0,1.381454348564148,0,0,0.5350799560546875
1.822076827,0,0,1.381454348564148,0,0,0.9937199950218201
1.823077335,0,0,1.381454348564148,0,0,0.8408399820327759
1.824077418,0,0,1.381454348564148,0,0,0.7644000053405762
1.8250777230000002,0,0,1.3934253454208374,0,0,1.070159912109375
1.826077027,0,0,1.3934253454208374,0,0,0.7644000053405762
1.827076851,0,0,1.3934253454208374,0,0,0.7644000053405762
1.828077118,0,0,1.3934253454208374,0,0,0.7644000053405762
1.829081608,0,0,1.3934253454208374,0,0,0.611519992351532
1.830077135,0,0,1.3934253454208374,0,0,0.6879600286483765
1.831077125,0,0,1.3934253454208374,0,0,1.223039984703064
1.832077559,0,0,1.381454348564148,0,0,0.611519992351532
1.83307716,0,0,1.381454348564148,0,0,0.611519992351532
1.8340774469999999,0,0,1.381454348564148,0,0,0.8408399820327759
1.835077233,0,0,1.381454348564148,0,0,0.611519992351532
1.836077612,0,0,1.381454348564148,0,0,0.9172800183296204
1.8370945829999998,0,0,1.381454348564148,0,0,0.7644000053405762
1.8380787029999999,0,0,1.381454348564148,0,0,0.7644000053405762
1.839078081,0,0,1.3742717504501343,0,0,0.9172800183296204
1.8400770340000001,0,0,1.3742717504501343,0,0,0.6879600286483765
1.8410771540000002,0,0,1.3742717504501343,0,0,0.7644000053405762
1.84208894,0,0,1.3742717504501343,0,0,0.8408399820327759
1.843079245,0,0,1.3742717504501343,0,0,0.4586400091648102
1.844077346,0,0,1.3742717504501343,0,0,0.611519992351532
1.8450771129999999,0,0,1.3742717504501343,0,0,0.9937199950218201
1.846077251,0,0,1.4676456451416016,0,0,0.9172800183296204
1.847076871,0,0,1.4676456451416016,0,0,0.7644000053405762
1.848077268,0,0,1.4676456451416016,0,0,1.223039984703064
1.8490770909999998,0,0,1.4676456451416016,0,0,0.7644000053405762
1.850077396,0,0,1.4676456451416016,0,0,0.7644000053405762
1.851077368,0,0,1.4676456451416016,0,0,0.5350799560546875
1.852077302,0,0,1.4676456451416016,0,0,0.9172800183296204
1.853076977,0,0,1.4676456451416016,0,0,0.611519992351532
1.8540771889999998,0,0,1.4628572463989258,0,0,0.9172800183296204
1.855077494,0,0,1.4628572463989258,0,0,0.9937199950218201
1.856077076,0,0,1.4628572463989258,0,0,0.9937199950218201
1.857080103,0,0,1.4628572463989258,0,0,0.9937199950218201
1.858078204,0,0,1.4628572463989258,0,0,0.8408399820327759
1.859077305,0,0,1.4628572463989258,0,0,0.8408399820327759
1.860082814,0,0,1.4628572463989258,0,0,0.9172800183296204
1.8610774700000001,0,0,1.5442601442337036,0,0,0.8408399820327759
1.86207696,0,0,1.5442601442337036,0,0,0.7644000053405762
1.863077061,0,0,1.5442601442337036,0,0,1.2994799613952637
1.8640770880000002,0,0,1.5442601442337036,0,0,0
1.865077523,0,0,1.5442601442337036,0,0,0.9172800183296204
1.866077735,0,0,1.5442601442337036,0,0,0.9937199950218201
1.867077076,0,0,1.5442601442337036,0,0,0.9937199950218201
1.8680773259999999,0,0,1.5514427423477173,0,0,0.7644000053405762
1.869077056,0,0,1.5514427423477173,0,0,1.070159912109375
1.870077287,0,0,1.5514427423477173,0,0,0.8408399820327759
1.871077036,0,0,1.5514427423477173,0,0,1.070159912109375
1.872077248,0,0,1.5514427423477173,0,0,0.5350799560546875
1.873076775,0,0,1.5514427423477173,0,0,0.611519992351532
1.874076784,0,0,1.5514427423477173,0,0,1.070159912109375
1.875078273,0,0,1.5298948287963867,0,0,0.611519992351532
1.876077486,0,0,1.5298948287963867,0,0,0.7644000053405762
1.877077087,0,0,1.5298948287963867,0,0,0.7644000053405762
1.878076947,0,0,1.5298948287963867,0,0,0.9937199950218201
1.879077196,0,0,1.5298948287963867,0,0,1.223039984703064
1.8800771859999998,0,0,1.5298948287963867,0,0,1.070159912109375
1.881077213,0,0,1.5298948287963867,0,0,0.7644000053405762
1.8820770919999998,0,0,1.5298948287963867,0,0,0.9937199950218201
1.8830773779999999,0,0,1.5873557329177856,0,0,0.8408399820327759
1.884076886,0,0,1.5873557329177856,0,0,0.6879600286483765
1.885076747,0,0,1.5873557329177856,0,0,0.9937199950218201
1.886077329,0,0,1.5873557329177856,0,0,0.4586400091648102
1.8870741519999998,0,0,1.5873557329177856,0,0,0.8408399820327759
1.888074161,0,0,1.5873557329177856,0,0,0.7644000053405762
1.8890741690000001,0,0,1.5873557329177856,0,0,0.6879600286483765
1.8900819370000002,0,0,1.3886369466781616,0,0,1.1466000080108643
1.891082816,0,0,1.3886369466781616,0,0,0.7644000053405762
1.89207762,0,0,1.3886369466781616,0,0,0.7644000053405762
1.893077018,0,0,1.3886369466781616,0,0,0.9937199950218201
1.894077156,0,0,1.3886369466781616,0,0,0.8408399820327759
1.8950766460000001,0,0,1.3886369466781616,0,0,0.8408399820327759
1.896077228,0,0,1.3886369466781616,0,0,0.8408399820327759
1.897076329,0,0,1.3120225667953491,0,0,1.070159912109375
1.8980760970000001,0,0,1.3120225667953491,0,0,0.7644000053405762
1.899076679,0,0,1.3120225667953491,0,0,0.9172800183296204
1.900076595,0,0,1.3120225667953491,0,0,0.9172800183296204
1.9010761779999998,0,0,1.3120225667953491,0,0,0.8408399820327759
1.902076408,0,0,1.3120225667953491,0,0,0.9172800183296204
1.90307662,0,0,1.3120225667953491,0,0,0.6879600286483765
1.90407674,0,0,1.3503297567367554,0,0,0.8408399820327759
1.9050763960000001,0,0,1.3503297567367554,0,0,0.6879600286483765
1.906104201,0,0,1.3503297567367554,0,0,0.9172800183296204
1.907078876,0,0,1.3503297567367554,0,0,0.3822000026702881
1.908076866,0,0,1.3503297567367554,0,0,0.8408399820327759
1.909077041,0,0,1.3503297567367554,0,0,0.9172800183296204
1.910076846,0,0,1.3503297567367554,0,0,0.5350799560546875
1.911076743,0,0,1.3239935636520386,0,0,0.9172800183296204
1.912076567,0,0,1.3239935636520386,0,0,0.8408399820327759
1.913078853,0,0,1.3239935636520386,0,0,0.7644000053405762
1.91407688,0,0,1.3239935636520386,0,0,0.8408399820327759
1.9150771469999999,0,0,1.3239935636520386,0,0,0.7644000053405762
1.916076859,0,0,1.3239935636520386,0,0,0.611519992351532
1.917076553,0,0,1.3239935636520386,0,0,0.9937199950218201
1.91807645,0,0,1.3239935636520386,0,0,0.305759996175766
1.919076477,0,0,1.381454348564148,0,0,0.9172800183296204
1.920076671,0,0,1.381454348564148,0,0,0.9937199950218201
1.921076679,0,0,1.381454348564148,0,0,1.070159912109375
1.9220826880000002,0,0,1.381454348564148,0,0,0.8408399820327759
1.9230774739999998,0,0,1.381454348564148,0,0,0.9937199950218201
1.92407639,0,0,1.381454348564148,0,0,0.8408399820327759
1.925076287,0,0,1.381454348564148,0,0,0.9172800183296204
1.926076296,0,0,1.4844050407409668,0,0,0.611519992351532
1.927105026,0,0,1.4844050407409668,0,0,0.8408399820327759
1.9280816459999999,0,0,1.4844050407409668,0,0,0.6879600286483765
1.929078247,0,0,1.4844050407409668,0,0,0.3822000026702881
1.930077588,0,0,1.4844050407409668,0,0,0.7644000053405762
1.931077486,0,0,1.4844050407409668,0,0,0.611519992351532
1.9320772910000001,0,0,1.4844050407409668,0,0,0.9937199950218201
1.933077114,0,0,1.5083470344543457,0,0,1.223039984703064
1.934077437,0,0,1.5083470344543457,0,0,0.9937199950218201
1.9350771679999998,0,0,1.5083470344543457,0,0,0.8408399820327759
1.936077287,0,0,1.5083470344543457,0,0,0.9172800183296204
1.937079444,0,0,1.5083470344543457,0,0,0.611519992351532
1.9380775080000001,0,0,1.5083470344543457,0,0,0.611519992351532
1.939078183,0,0,1.5083470344543457,0,0,0.9937199950218201
1.940077654,0,0,1.599326729774475,0,0,0.6879600286483765
1.9410771439999999,0,0,1.599326729774475,0,0,1.1466000080108643
1.942076634,0,0,1.599326729774475,0,0,0.611519992351532
1.943076902,0,0,1.599326729774475,0,0,0.4586400091648102
1.944076966,0,0,1.599326729774475,0,0,0.9937199950218201
1.945077122,0,0,1.599326729774475,0,0,0.9172800183296204
1.946076927,0,0,1.599326729774475,0,0,0.6879600286483765
1.947076732,0,0,1.599326729774475,0,0,0.6879600286483765
1.948077055,0,0,1.5442601442337036,0,0,0.6879600286483765
1.949076971,0,0,1.5442601442337036,0,0,0.9172800183296204
1.95007709,0,0,1.5442601442337036,0,0,0.5350799560546875
1.951077469,0,0,1.5442601442337036,0,0,0.611519992351532
1.9520770889999999,0,0,1.5442601442337036,0,0,1.070159912109375
1.9530845970000001,0,0,1.5442601442337036,0,0,0.9937199950218201
1.954077754,0,0,1.5442601442337036,0,0,0.7644000053405762
1.955074392,0,0,1.5442601442337036,0,0,0.8408399820327759
1.956073474,0,0,1.5442601442337036,0,0,0.611519992351532
1.957074038,0,0,1.5442601442337036,0,0,0.9172800183296204
1.9581041940000001,0,0,1.5442601442337036,0,0,0.5350799560546875
1.959082666,0,0,1.5442601442337036,0,0,0.7644000053405762
1.960077934,0,0,1.5442601442337036,0,0,0.9172800183296204
1.961078127,0,0,1.5442601442337036,0,0,0
1.962084395,0,0,1.53707754611969,0,0,0.9172800183296204
1.963079866,0,0,1.53707754611969,0,0,0.6879600286483765
1.964077616,0,0,1.53707754611969,0,0,0.8408399820327759
1.965076976,0,0,1.53707754611969,0,0,0.8408399820327759
1.9660776690000001,0,0,1.53707754611969,0,0,0.7644000053405762
1.9670772520000002,0,0,1.53707754611969,0,0,0.6879600286483765
1.968077057,0,0,1.53707754611969,0,0,0.7644000053405762
1.969077232,0,0,1.3646949529647827,0,0,0.5350799560546875
1.970091333,0,0,1.3646949529647827,0,0,0.611519992351532
1.971079323,0,0,1.3646949529647827,0,0,1.070159912109375
1.972077683,0,0,1.3646949529647827,0,0,0.5350799560546875
1.973077506,0,0,1.3646949529647827,0,0,0.8408399820327759
1.974078922,0,0,1.3646949529647827,0,0,0.9172800183296204
1.9750781339999999,0,0,1.3646949529647827,0,0,-8.790599822998047
1.9760774570000001,0,0,1.3646949529647827,0,0,0.9172800183296204
1.977076892,0,0,1.3551181554794312,0,0,0.8408399820327759
1.978076956,0,0,1.3551181554794312,0,0,0.9172800183296204
1.979077075,0,0,1.3551181554794312,0,0,0.6879600286483765
1.9800772690000001,0,0,1.3551181554794312,0,0,0.7644000053405762
1.981088222,0,0,1.3551181554794312,0,0,0.6879600286483765
1.982093637,0,0,1.3551181554794312,0,0,0.7644000053405762
1.983078127,0,0,1.3551181554794312,0,0,0.8408399820327759
1.984081895,0,0,1.3503297567367554,0,0,0.7644000053405762
1.985075181,0,0,1.3503297567367554,0,0,0.9172800183296204
1.986079468,0,0,1.3503297567367554,0,0,-8.867039680480957
1.98707505,0,0,1.3503297567367554,0,0,0.9937199950218201
1.988073577,0,0,1.3503297567367554,0,0,0.7644000053405762
1.989081104,0,0,1.3503297567367554,0,0,0.9937199950218201
1.990078298,0,0,1.3503297567367554,0,0,0.8408399820327759
1.991077676,0,0,1.2617442607879639,0,0,0.611519992351532
1.992077425,0,0,1.2617442607879639,0,0,1.1466000080108643
1.993076897,0,0,1.2617442607879639,0,0,0.8408399820327759
1.994083702,0,0,1.2617442607879639,0,0,0.9937199950218201
1.9951187099999999,0,0,1.2617442607879639,0,0,1.070159912109375
1.996125922,0,0,1.2617442607879639,0,0,0.7644000053405762
1.9971793180000001,0,0,1.2617442607879639,0,0,0.9937199950218201
1.99809918,0,0,1.400607943534851,0,0,0.8408399820327759
1.999082707,0,0,1.400607943534851,0,0,0.9172800183296204
2.000078567,0,0,1.400607943534851,0,0,0.611519992351532
2.001076872,0,0,1.400607943534851,0,0,0.7644000053405762
2.002077436,0,0,1.400607943534851,0,0,0.6879600286483765
2.003076722,0,0,1.400607943534851,0,0,1.223039984703064
2.004076767,0,0,1.400607943534851,0,0,0.611519992351532
2.005076868,0,0,1.400607943534851,0,0,0.8408399820327759
2.006077155,0,0,1.335964560508728,0,0,1.070159912109375
2.007076941,0,0,1.335964560508728,0,0,0.9172800183296204
2.008081042,0,0,1.335964560508728,0,0,1.1466000080108643
2.009105902,0,0,1.335964560508728,0,0,0.8408399820327759
2.010102336,0,0,1.335964560508728,0,0,0.7644000053405762
2.011081048,0,0,1.335964560508728,0,0,1.070159912109375
2.012078409,0,0,1.335964560508728,0,0,0.5350799560546875
2.013077047,0,0,1.4173674583435059,0,0,0.4586400091648102
2.014077352,0,0,1.4173674583435059,0,0,1.1466000080108643
2.015085656,0,0,1.4173674583435059,0,0,0.6879600286483765
2.016077646,0,0,1.4173674583435059,0,0,0.8408399820327759
2.017077488,0,0,1.4173674583435059,0,0,0.6879600286483765
2.018076978,0,0,1.4173674583435059,0,0,0.9172800183296204
2.019076931,0,0,1.4173674583435059,0,0,0.9937199950218201
2.020076865,0,0,1.5298948287963867,0,0,0.8408399820327759
2.021076744,0,0,1.5298948287963867,0,0,0.611519992351532
2.022077011,0,0,1.5298948287963867,0,0,0.7644000053405762
2.02307689,0,0,1.5298948287963867,0,0,0.9172800183296204
2.024077751,0,0,1.5298948287963867,0,0,0.5350799560546875
2.02507674,0,0,1.5298948287963867,0,0,0.8408399820327759
2.026080027,0,0,1.5298948287963867,0,0,0.6879600286483765
2.027077905,0,0,1.4652514457702637,0,0,1.070159912109375
2.028077247,0,0,1.4652514457702637,0,0,0.9172800183296204
2.029076922,0,0,1.4652514457702637,0,0,0.6879600286483765
2.030077023,0,0,1.4652514457702637,0,0,0.9172800183296204
2.031078884,0,0,1.4652514457702637,0,0,0.9172800183296204
2.032077392,0,0,1.4652514457702637,0,0,0.8408399820327759
2.03307703,0,0,1.4652514457702637,0,0,0.5350799560546875
2.034096761,0,0,1.4652514457702637,0,0,0.8408399820327759
2.03507801,0,0,1.580173134803772,0,0,0.611519992351532
2.036076741,0,0,1.580173134803772,0,0,0.8408399820327759
2.037076786,0,0,1.580173134803772,0,0,0.9172800183296204
2.03807698,0,0,1.580173134803772,0,0,0.8408399820327759
2.039076358,0,0,1.580173134803772,0,0,0.6879600286483765
2.040076811,0,0,1.580173134803772,0,0,0.7644000053405762
2.04107732,0,0,1.580173134803772,0,0,0.9172800183296204
2.042077828,0,0,1.580173134803772,0,0,0.7644000053405762
2.043076614,0,0,1.580173134803772,0,0,0.9937199950218201
2.044076863,0,0,1.580173134803772,0,0,0.8408399820327759
2.045077205,0,0,1.580173134803772,0,0,0.5350799560546875
2.046084139,0,0,1.580173134803772,0,0,0.7644000053405762
2.047078037,0,0,1.580173134803772,0,0,0.4586400091648102
2.04807699,0,0,1.580173134803772,0,0,0.9172800183296204
2.049324977,0,0,1.4844050407409668,0,0,0.9172800183296204
2.050083914,0,0,1.4844050407409668,0,0,1.070159912109375
2.051078256,0,0,1.4844050407409668,0,0,0.7644000053405762
2.052077042,0,0,1.4844050407409668,0,0,0.7644000053405762
2.053077069,0,0,1.4844050407409668,0,0,0.6879600286483765
2.054077392,0,0,1.4844050407409668,0,0,0.9172800183296204
2.055076771,0,0,1.4844050407409668,0,0,0.8408399820327759
2.056077168,0,0,1.4844050407409668,0,0,0.5350799560546875
2.057076751,0,0,1.4245500564575195,0,0,1.070159912109375
2.058077592,0,0,1.4245500564575195,0,0,0.5350799560546875
2.059076897,0,0,1.4245500564575195,0,0,0.9172800183296204
2.06007685,0,0,1.4245500564575195,0,0,0.7644000053405762
2.061076784,0,0,1.4245500564575195,0,0,0.611519992351532
2.062077237,0,0,1.4245500564575195,0,0,0.9937199950218201
2.063077838,0,0,1.4245500564575195,0,0,0.611519992351532
2.064076754,0,0,1.5083470344543457,0,0,0.611519992351532
2.065076318,0,0,1.5083470344543457,0,0,0.611519992351532
2.066077067,0,0,1.5083470344543457,0,0,0.611519992351532
2.067076816,0,0,1.5083470344543457,0,0,0.9172800183296204
2.068077066,0,0,1.5083470344543457,0,0,0.9172800183296204
2.069077037,0,0,1.5083470344543457,0,0,0.9172800183296204
2.070077194,0,0,1.5083470344543457,0,0,0.9172800183296204
