Time,AccelX1,AccelY1,AccelZ1,AccelX2,AccelY2,AccelZ2
0.000301608,0,0,1.479616641998291,0,0,0.9172800183296204
0.000850362,0,0,1.479616641998291,0,0,0.611519992351532
0.001099803,0,0,1.479616641998291,0,0,1.070159912109375
0.001834073,0,0,1.4724340438842773,0,0,0.7644000053405762
0.001891424,0,0,1.4724340438842773,0,0,0.7644000053405762
0.001933294,0,0,1.4724340438842773,0,0,0.8408399820327759
0.00207057,0,0,1.4724340438842773,0,0,0.8408399820327759
0.002314697,0,0,1.4317326545715332,0,0,0.9937199950218201
0.002934005,0,0,1.4317326545715332,0,0,0.9172800183296204
0.003290613,0,0,1.4077905416488647,0,0,0.9172800183296204
0.003537777,0,0,1.4077905416488647,0,0,0.9172800183296204
0.003780793,0,0,1.4077905416488647,0,0,0.9172800183296204
0.004023475,0,0,1.4077905416488647,0,0,0.4586400091648102
0.004266121,0,0,1.3479355573654175,0,0,0.2293200045824051
0.004510562,0,0,1.3479355573654175,0,0,0.611519992351532
0.004753263,0,0,1.3479355573654175,0,0,0.611519992351532
0.004995742,0,0,1.3479355573654175,0,0,0.8408399820327759
0.00523974,0,0,1.3479355573654175,0,0,1.070159912109375
0.005516033,0,0,1.3551181554794312,0,0,0.9937199950218201
0.005757678,0,0,1.3551181554794312,0,0,0.9937199950218201
0.006000083,0,0,1.3551181554794312,0,0,-29.582279205322266
0.006242432,0,0,1.4724340438842773,0,0,0.3822000026702881
0.006485096,0,0,1.4724340438842773,0,0,0.611519992351532
0.006729408,0,0,1.4724340438842773,0,0,0.611519992351532
0.006976609,0,0,1.4724340438842773,0,0,-0.8408399820327759
0.007220477,0,0,1.4724340438842773,0,0,0.2293200045824051
0.007463808,0,0,1.5849615335464478,0,0,0.4586400091648102
0.007707527,0,0,1.5849615335464478,0,0,0.4586400091648102
0.00794971,0,0,1.5849615335464478,0,0,2.14031982421875
0.008192152,0,0,1.5849615335464478,0,0,1.758120059967041
0.008435057,0,0,1.6424223184585571,0,0,0.5350799560546875
0.00871272,0,0,1.6424223184585571,0,0,0.3822000026702881
0.008951699,0,0,1.6424223184585571,0,0,0.3822000026702881
0.009207881,0,0,1.6424223184585571,0,0,0.6879600286483765
0.009436434,0,0,1.501164436340332,0,0,0.9172800183296204
0.009682802,0,0,1.501164436340332,0,0,1.6816799640655518
0.009926596,0,0,1.501164436340332,0,0,1.6816799640655518
0.010168334,0,0,1.501164436340332,0,0,0.6879600286483765
0.010410646,0,0,1.601720929145813,0,0,0.611519992351532
0.010653588,0,0,1.601720929145813,0,0,0.611519992351532
0.010897622,0,0,1.601720929145813,0,0,0.611519992351532
0.011139749,0,0,1.601720929145813,0,0,0.5350799560546875
0.011382321,0,0,1.3742717504501343,0,0,0.4586400091648102
0.011624762,0,0,1.3742717504501343,0,0,0.8408399820327759
0.011868445,0,0,1.3742717504501343,0,0,0.8408399820327759
0.012110387,0,0,1.3742717504501343,0,0,0.7644000053405762
0.012353329,0,0,1.3742717504501343,0,0,0.9172800183296204
0.012595919,0,0,1.3742717504501343,0,0,0.5350799560546875
0.012837953,0,0,1.3742717504501343,0,0,0.5350799560546875
0.013507946,0,0,1.357512354850769,0,0,0.7644000053405762
0.013758406,0,0,1.357512354850769,0,0,1.1466000080108643
0.014534601,0,0,1.357512354850769,0,0,0.9172800183296204
0.014600508,0,0,1.3048399686813354,0,0,0.9172800183296204
0.01463973,0,0,1.3048399686813354,0,0,0.9172800183296204
0.014783265,0,0,1.3048399686813354,0,0,0.9172800183296204
0.015036688,0,0,1.3048399686813354,0,0,0.6879600286483765
0.015286426,0,0,1.292868971824646,0,0,0.5350799560546875
0.015535905,0,0,1.292868971824646,0,0,0.6879600286483765
0.015784661,0,0,1.292868971824646,0,0,0.6879600286483765
0.016035381,0,0,1.292868971824646,0,0,0
0.016823169,0,0,1.4437036514282227,0,0,0.6879600286483765
0.017067018,0,0,1.4437036514282227,0,0,0.6879600286483765
0.017328719,0,0,1.5873557329177856,0,0,1.070159912109375
0.017576309,0,0,1.5873557329177856,0,0,0.6879600286483765
0.017827676,0,0,1.5873557329177856,0,0,0.611519992351532
0.018102599,0,0,1.5873557329177856,0,0,0.305759996175766
0.018331874,0,0,1.6376339197158813,0,0,0.305759996175766
0.018581205,0,0,1.6376339197158813,0,0,1.070159912109375
0.018831813,0,0,1.6376339197158813,0,0,1.1466000080108643
0.019082459,0,0,1.6376339197158813,0,0,0.0764399990439415
0.019334715,0,0,1.5131354331970215,0,0,0.0764399990439415
0.019585564,0,0,1.5131354331970215,0,0,0
0.019836562,0,0,1.5131354331970215,0,0,0.5350799560546875
0.02008754,0,0,1.5131354331970215,0,0,0.9172800183296204
0.020339834,0,0,1.6089035272598267,0,0,0.9172800183296204
0.020590535,0,0,1.6089035272598267,0,0,0.152879998087883
0.020841588,0,0,1.6089035272598267,0,0,0.7644000053405762
0.021093326,0,0,1.6089035272598267,0,0,0.4586400091648102
0.021344897,0,0,1.6136919260025024,0,0,1.1466000080108643
0.02159695,0,0,1.6136919260025024,0,0,1.1466000080108643
0.021847725,0,0,1.6136919260025024,0,0,2.14031982421875
0.0220985,0,0,1.6136919260025024,0,0,1.375920057296753
0.022350442,0,0,1.414973258972168,0,0,1.070159912109375
0.022601161,0,0,1.414973258972168,0,0,1.070159912109375
0.022851955,0,0,1.414973258972168,0,0,0.9172800183296204
0.02310323,0,0,1.414973258972168,0,0,1.605239987373352
0.023355745,0,0,1.3120225667953491,0,0,0.611519992351532
0.023606298,0,0,1.3120225667953491,0,0,1.070159912109375
0.023857314,0,0,1.3120225667953491,0,0,1.070159912109375
0.024108552,0,0,1.3120225667953491,0,0,1.070159912109375
0.024359123,0,0,1.357512354850769,0,0,0.9172800183296204
0.024610121,0,0,1.357512354850769,0,0,0.3822000026702881
0.024860859,0,0,1.357512354850769,0,0,0.3822000026702881
0.025119226,0,0,1.357512354850769,0,0,0
0.025367094,0,0,1.3335703611373901,0,0,1.1466000080108643
0.025619462,0,0,1.3335703611373901,0,0,1.070159912109375
0.025870588,0,0,1.3335703611373901,0,0,0.7644000053405762
0.026121475,0,0,1.3335703611373901,0,0,0.7644000053405762
0.026372879,0,0,1.2617442607879639,0,0,0.3822000026702881
0.026624488,0,0,1.2617442607879639,0,0,0.6879600286483765
0.026875355,0,0,1.2617442607879639,0,0,0.6879600286483765
0.027126445,0,0,1.2617442607879639,0,0,0.6879600286483765
0.027377405,0,0,1.4748282432556152,0,0,-0.3822000026702881
0.027629384,0,0,1.4748282432556152,0,0,0.7644000053405762
0.027880437,0,0,1.4748282432556152,0,0,0.6879600286483765
0.028131249,0,0,1.4748282432556152,0,0,0.611519992351532
0.02838245,0,0,1.5107412338256836,0,0,0.611519992351532
0.02863428,0,0,1.5107412338256836,0,0,9.631440162658691
0.028885204,0,0,1.5107412338256836,0,0,1.070159912109375
0.029136256,0,0,1.5107412338256836,0,0,0.7644000053405762
0.029386809,0,0,1.647210717201233,0,0,0.7644000053405762
0.029641899,0,0,1.647210717201233,0,0,1.6816799640655518
0.029892082,0,0,1.647210717201233,0,0,0.6879600286483765
0.030143394,0,0,1.647210717201233,0,0,0.305759996175766
0.030393798,0,0,1.5083470344543457,0,0,0.4586400091648102
0.03064487,0,0,1.5083470344543457,0,0,0.4586400091648102
0.030896867,0,0,1.5083470344543457,0,0,-0.3822000026702881
0.031147734,0,0,1.5083470344543457,0,0,1.758120059967041
0.031398972,0,0,1.6184803247451782,0,0,1.223039984703064
0.03164971,0,0,1.6184803247451782,0,0,1.223039984703064
0.031901652,0,0,1.6184803247451782,0,0,0.7644000053405762
0.032152964,0,0,1.6184803247451782,0,0,0.9172800183296204
0.032404221,0,0,1.455674648284912,0,0,0.9172800183296204
0.032655181,0,0,1.455674648284912,0,0,0.7644000053405762
0.032912715,0,0,1.455674648284912,0,0,0.7644000053405762
0.033165749,0,0,1.455674648284912,0,0,0.5350799560546875
0.033416432,0,0,1.403002142906189,0,0,0.9937199950218201
0.033669003,0,0,1.403002142906189,0,0,0.9937199950218201
0.03392126,0,0,1.403002142906189,0,0,0.9937199950218201
0.03419559,0,0,1.403002142906189,0,0,1.605239987373352
0.034425458,0,0,1.5203180313110352,0,0,0.611519992351532
0.034676363,0,0,1.5203180313110352,0,0,0.4586400091648102
0.034928508,0,0,1.5203180313110352,0,0,0.9937199950218201
0.035180005,0,0,1.5203180313110352,0,0,0.9937199950218201
0.035431725,0,0,1.400607943534851,0,0,0.305759996175766
0.035683037,0,0,1.400607943534851,0,0,1.1466000080108643
0.03593596,0,0,1.400607943534851,0,0,0.9937199950218201
0.036186216,0,0,1.400607943534851,0,0,0.9937199950218201
0.036437621,0,0,1.4484920501708984,0,0,0.7644000053405762
0.036688896,0,0,1.4484920501708984,0,0,1.1466000080108643
0.036939912,0,0,1.4484920501708984,0,0,0.6879600286483765
0.03719152,0,0,1.4484920501708984,0,0,0.9172800183296204
0.037442999,0,0,1.4532804489135742,0,0,0.9172800183296204
0.037695459,0,0,1.4532804489135742,0,0,0.8408399820327759
0.037946419,0,0,1.4532804489135742,0,0,1.1466000080108643
0.038199102,0,0,1.4532804489135742,0,0,0.8408399820327759
0.03845071,0,0,1.501164436340332,0,0,0.8408399820327759
0.038702133,0,0,1.501164436340332,0,0,0.8408399820327759
0.038954297,0,0,1.501164436340332,0,0,0.9172800183296204
0.039206109,0,0,1.501164436340332,0,0,0.2293200045824051
0.039457792,0,0,1.5418659448623657,0,0,0.9172800183296204
0.039708604,0,0,1.5418659448623657,0,0,0.9172800183296204
0.039960175,0,0,1.5418659448623657,0,0,0.6879600286483765
0.040212376,0,0,1.5418659448623657,0,0,1.223039984703064
0.040463688,0,0,1.7046716213226318,0,0,0.8408399820327759
0.040722204,0,0,1.7046716213226318,0,0,0.8408399820327759
0.040970201,0,0,1.7046716213226318,0,0,0
0.041222847,0,0,1.7046716213226318,0,0,0.5350799560546875
0.041492751,0,0,1.6280571222305298,0,0,0.8408399820327759
0.041743545,0,0,1.6280571222305298,0,0,0.8408399820327759
0.041995042,0,0,1.6280571222305298,0,0,0.8408399820327759
0.042247521,0,0,1.6280571222305298,0,0,2.3696401119232178
0.042498851,0,0,1.721431016921997,0,0,0.9937199950218201
0.04274983,0,0,1.721431016921997,0,0,1.1466000080108643
0.043001827,0,0,1.721431016921997,0,0,0.6879600286483765
0.043252973,0,0,1.721431016921997,0,0,0.6879600286483765
0.043504451,0,0,1.4652514457702637,0,0,0.611519992351532
0.043756134,0,0,1.4652514457702637,0,0,0.305759996175766
0.044007335,0,0,1.4652514457702637,0,0,1.223039984703064
0.044258443,0,0,1.4652514457702637,0,0,1.223039984703064
0.044510848,0,0,1.3335703611373901,0,0,0.9937199950218201
0.04476229,0,0,1.3335703611373901,0,0,1.2994799613952637
0.045013879,0,0,1.3335703611373901,0,0,0.611519992351532
0.045265154,0,0,1.3335703611373901,0,0,0.8408399820327759
0.04551967,0,0,1.338358759880066,0,0,0.8408399820327759
0.045772019,0,0,1.338358759880066,0,0,1.070159912109375
0.046023331,0,0,1.338358759880066,0,0,0.7644000053405762
0.046275329,0,0,1.338358759880066,0,0,0.9172800183296204
0.046527548,0,0,1.3120225667953491,0,0,0.9172800183296204
0.046778564,0,0,1.3120225667953491,0,0,1.070159912109375
0.047030135,0,0,1.3120225667953491,0,0,0.152879998087883
0.047281355,0,0,1.3120225667953491,0,0,0.9937199950218201
0.047533481,0,0,1.3000515699386597,0,0,0.5350799560546875
0.047784905,0,0,1.3000515699386597,0,0,0.5350799560546875
0.048036383,0,0,1.3000515699386597,0,0,1.2994799613952637
0.048287529,0,0,1.3000515699386597,0,0,0.5350799560546875
0.048545748,0,0,1.3287819623947144,0,0,0.9172800183296204
0.048793764,0,0,1.3287819623947144,0,0,0.9172800183296204
0.049045687,0,0,1.3287819623947144,0,0,0.9172800183296204
0.049296666,0,0,1.3287819623947144,0,0,0.5350799560546875
0.049550478,0,0,1.455674648284912,0,0,0.8408399820327759
0.049800253,0,0,1.455674648284912,0,0,0.4586400091648102
0.050048547,0,0,1.455674648284912,0,0,0.4586400091648102
0.050297562,0,0,1.455674648284912,0,0,0.9937199950218201
0.050546671,0,0,1.7046716213226318,0,0,0.7644000053405762
0.050796631,0,0,1.7046716213226318,0,0,1.375920057296753
0.051045628,0,0,1.7046716213226318,0,0,1.375920057296753
0.0512942,0,0,1.7046716213226318,0,0,0.5350799560546875
0.05154316,0,0,1.6184803247451782,0,0,0.611519992351532
0.05179312,0,0,1.6184803247451782,0,0,0.152879998087883
0.052041377,0,0,1.6184803247451782,0,0,0.152879998087883
0.052290485,0,0,1.6184803247451782,0,0,1.9109998941421509
0.052896849,0,0,1.4963760375976563,0,0,0.6879600286483765
0.053117569,0,0,1.4963760375976563,0,0,0.9172800183296204
0.053365436,0,0,1.6663644313812256,0,0,0.9172800183296204
0.053615563,0,0,1.6663644313812256,0,0,0.9172800183296204
0.053866079,0,0,1.6663644313812256,0,0,0.4586400091648102
0.054114743,0,0,1.6663644313812256,0,0,0.9172800183296204
0.054363296,0,0,1.460463047027588,0,0,0.8408399820327759
0.054611997,0,0,1.460463047027588,0,0,0.8408399820327759
0.054875661,0,0,1.460463047027588,0,0,2.751840114593506
0.055110251,0,0,1.460463047027588,0,0,0.9172800183296204
0.055358655,0,0,1.4844050407409668,0,0,0.611519992351532
0.055607449,0,0,1.4844050407409668,0,0,0.611519992351532
0.055857298,0,0,1.4844050407409668,0,0,0.611519992351532
0.05610511,0,0,1.4844050407409668,0,0,0.611519992351532
0.056353441,0,0,1.525106430053711,0,0,0.9172800183296204
0.056612012,0,0,1.525106430053711,0,0,0.9937199950218201
0.056855898,0,0,1.525106430053711,0,0,0.9937199950218201
0.05710534,0,0,1.525106430053711,0,0,2.2167599201202393
0.057354245,0,0,1.314416766166687,0,0,1.452359914779663
0.057609834,0,0,1.314416766166687,0,0,0.9937199950218201
0.057858498,0,0,1.314416766166687,0,0,0.9937199950218201
0.058107662,0,0,1.314416766166687,0,0,0.9937199950218201
0.058356289,0,0,1.3958195447921753,0,0,1.375920057296753
0.058604583,0,0,1.3958195447921753,0,0,0.8408399820327759
0.058853432,0,0,1.3958195447921753,0,0,0.8408399820327759
0.059102837,0,0,1.3958195447921753,0,0,0.8408399820327759
0.059351482,0,0,1.434126853942871,0,0,0.9937199950218201
0.059600331,0,0,1.434126853942871,0,0,0.9172800183296204
0.059848514,0,0,1.434126853942871,0,0,0.7644000053405762
0.060097715,0,0,1.434126853942871,0,0,0.7644000053405762
0.060346305,0,0,1.577778935432434,0,0,1.6816799640655518
0.060594894,0,0,1.577778935432434,0,0,0.6879600286483765
0.060843762,0,0,1.577778935432434,0,0,0.7644000053405762
0.061093556,0,0,1.577778935432434,0,0,0.7644000053405762
0.061341201,0,0,1.6280571222305298,0,0,0.611519992351532
0.061591328,0,0,1.6280571222305298,0,0,1.1466000080108643
0.061839659,0,0,1.6280571222305298,0,0,1.070159912109375
0.06208823,0,0,1.6280571222305298,0,0,0.152879998087883
0.062338727,0,0,1.5394717454910278,0,0,0.152879998087883
0.06258715,0,0,1.5394717454910278,0,0,0.305759996175766
0.062835648,0,0,1.5394717454910278,0,0,0.152879998087883
0.063084812,0,0,1.5394717454910278,0,0,0.6879600286483765
0.063334235,0,0,1.6376339197158813,0,0,0.6879600286483765
0.063583066,0,0,1.6376339197158813,0,0,0.7644000053405762
0.063831785,0,0,1.6376339197158813,0,0,0.4586400091648102
0.06408093,0,0,1.6376339197158813,0,0,1.1466000080108643
0.064339279,0,0,1.5203180313110352,0,0,1.1466000080108643
0.064585758,0,0,1.5203180313110352,0,0,1.1466000080108643
0.064834422,0,0,1.5203180313110352,0,0,0.9172800183296204
0.065608192,0,0,1.4269442558288574,0,0,0.8408399820327759
0.065853356,0,0,1.4269442558288574,0,0,0.9937199950218201
0.06611663,0,0,1.4269442558288574,0,0,0.7644000053405762
0.066382202,0,0,1.3766659498214722,0,0,0.9172800183296204
0.06663418,0,0,1.3766659498214722,0,0,1.223039984703064
0.066888696,0,0,1.3766659498214722,0,0,1.223039984703064
0.067179934,0,0,1.3766659498214722,0,0,1.605239987373352
0.06741082,0,0,1.316810965538025,0,0,0.8408399820327759
0.067675391,0,0,1.316810965538025,0,0,0.7644000053405762
0.067933074,0,0,1.316810965538025,0,0,0.9172800183296204
0.068188515,0,0,1.316810965538025,0,0,0.9172800183296204
0.068441994,0,0,1.290474772453308,0,0,-0.5350799560546875
0.068695658,0,0,1.290474772453308,0,0,0.6879600286483765
0.068949692,0,0,1.290474772453308,0,0,0.9172800183296204
0.069203375,0,0,1.290474772453308,0,0,0.7644000053405762
0.069489168,0,0,1.3239935636520386,0,0,0.7644000053405762
0.069714369,0,0,1.3239935636520386,0,0,2.5989599227905273
0.069968014,0,0,1.3239935636520386,0,0,0.9937199950218201
0.070221789,0,0,1.3239935636520386,0,0,0.3822000026702881
0.070476898,0,0,1.4532804489135742,0,0,0.3822000026702881
0.070730802,0,0,1.4532804489135742,0,0,0
0.070984522,0,0,1.4532804489135742,0,0,1.1466000080108643
0.071238445,0,0,1.4532804489135742,0,0,0.8408399820327759
0.071493053,0,0,1.53707754611969,0,0,0.4586400091648102
0.071746958,0,0,1.53707754611969,0,0,0.4586400091648102
0.072000807,0,0,1.53707754611969,0,0,-0.3822000026702881
0.072254489,0,0,1.53707754611969,0,0,0.9937199950218201
0.072509116,0,0,1.6519991159439087,0,0,1.2994799613952637
0.072775965,0,0,1.6519991159439087,0,0,0.8408399820327759
0.073023185,0,0,1.6519991159439087,0,0,0.8408399820327759
0.0732767,0,0,1.6519991159439087,0,0,0
0.073532179,0,0,1.556231141090393,0,0,0.4586400091648102
0.073786139,0,0,1.556231141090393,0,0,0.7644000053405762
0.07403997,0,0,1.556231141090393,0,0,0.7644000053405762
0.074293837,0,0,1.556231141090393,0,0,0.9937199950218201
0.074548131,0,0,1.6519991159439087,0,0,0
0.074802443,0,0,1.6519991159439087,0,0,0.9172800183296204
0.075055959,0,0,1.6519991159439087,0,0,0.8408399820327759
0.075309993,0,0,1.6519991159439087,0,0,0.8408399820327759
0.075564546,0,0,1.5442601442337036,0,0,0.152879998087883
0.075818339,0,0,1.5442601442337036,0,0,0.611519992351532
0.076071874,0,0,1.5442601442337036,0,0,0.9172800183296204
0.076325926,0,0,1.3718775510787964,0,0,0.9172800183296204
0.076579572,0,0,1.3718775510787964,0,0,0.9172800183296204
0.076833569,0,0,1.3718775510787964,0,0,0.6879600286483765
0.07708727,0,0,1.3718775510787964,0,0,0.9172800183296204
0.077340915,0,0,1.4053963422775269,0,0,0.7644000053405762
0.077596246,0,0,1.4053963422775269,0,0,0.7644000053405762
0.077849873,0,0,1.4053963422775269,0,0,2.06387996673584
0.078103759,0,0,1.4053963422775269,0,0,0.8408399820327759
0.078357552,0,0,1.3670891523361206,0,0,1.375920057296753
0.078611531,0,0,1.3670891523361206,0,0,0.9172800183296204
0.078866528,0,0,1.3670891523361206,0,0,0.9172800183296204
0.079120248,0,0,1.3670891523361206,0,0,0.8408399820327759
0.079374412,0,0,1.2114660739898682,0,0,1.070159912109375
0.079628335,0,0,1.2114660739898682,0,0,0.5350799560546875
0.07988298,0,0,1.2114660739898682,0,0,0.4586400091648102
0.0801367,0,0,1.2114660739898682,0,0,0.4586400091648102
0.080390289,0,0,1.3623007535934448,0,0,-0.2293200045824051
0.080650787,0,0,1.3623007535934448,0,0,0.8408399820327759
0.080902006,0,0,1.3623007535934448,0,0,1.223039984703064
0.0811558,0,0,1.3623007535934448,0,0,1.223039984703064
0.081409704,0,0,1.400607943534851,0,0,1.1466000080108643
0.081665053,0,0,1.400607943534851,0,0,0.152879998087883
0.08191905,0,0,1.400607943534851,0,0,0.6879600286483765
0.082173381,0,0,1.400607943534851,0,0,0.3822000026702881
0.082427026,0,0,1.5873557329177856,0,0,0.3822000026702881
0.08268082,0,0,1.5873557329177856,0,0,0.7644000053405762
0.082935225,0,0,1.5873557329177856,0,0,0.6879600286483765
0.083189444,0,0,1.5873557329177856,0,0,1.8345600366592407
0.083443293,0,0,1.6328455209732056,0,0,0.6879600286483765
0.083696901,0,0,1.6328455209732056,0,0,0.6879600286483765
0.083951288,0,0,1.6328455209732056,0,0,0.152879998087883
0.084205174,0,0,1.6328455209732056,0,0,0.7644000053405762
0.084458782,0,0,1.460463047027588,0,0,0.9172800183296204
0.08471252,0,0,1.460463047027588,0,0,0.9172800183296204
0.084966721,0,0,1.460463047027588,0,0,1.9874399900436401
0.085220866,0,0,1.460463047027588,0,0,0.2293200045824051
0.085492845,0,0,1.6879122257232666,0,0,1.070159912109375
0.085747694,0,0,1.6879122257232666,0,0,0.611519992351532
0.086000487,0,0,1.6879122257232666,0,0,0.611519992351532
0.086254911,0,0,1.6879122257232666,0,0,1.070159912109375
0.086508686,0,0,1.4772224426269531,0,0,0.7644000053405762
0.086762479,0,0,1.4772224426269531,0,0,0.8408399820327759
0.08701618,0,0,1.4772224426269531,0,0,0.8408399820327759
0.087270881,0,0,1.4772224426269531,0,0,0.8408399820327759
0.08752473,0,0,1.3910311460494995,0,0,0.9937199950218201
0.087778412,0,0,1.3910311460494995,0,0,1.1466000080108643
0.088031928,0,0,1.3910311460494995,0,0,0.5350799560546875
0.088289388,0,0,1.3910311460494995,0,0,1.1466000080108643
0.088604348,0,0,1.357512354850769,0,0,1.1466000080108643
0.088851938,0,0,1.357512354850769,0,0,1.1466000080108643
0.089106361,0,0,1.357512354850769,0,0,0.7644000053405762
0.089361747,0,0,1.2641384601593018,0,0,1.2994799613952637
0.089620374,0,0,1.2641384601593018,0,0,0.9172800183296204
0.089873056,0,0,1.2641384601593018,0,0,0.9172800183296204
0.090123331,0,0,1.2641384601593018,0,0,1.070159912109375
0.091044155,0,0,1.3982137441635132,0,0,0.8408399820327759
0.091653666,0,0,1.3982137441635132,0,0,1.070159912109375
0.09190696,0,0,1.3982137441635132,0,0,1.070159912109375
0.092160994,0,0,1.3982137441635132,0,0,1.070159912109375
0.092414954,0,0,1.5538369417190552,0,0,0.8408399820327759
0.092669007,0,0,1.5538369417190552,0,0,0.4586400091648102
0.092923153,0,0,1.5538369417190552,0,0,0.3822000026702881
0.093176872,0,0,1.5538369417190552,0,0,0.7644000053405762
0.093430184,0,0,1.6663644313812256,0,0,0.7644000053405762
0.093685015,0,0,1.6663644313812256,0,0,0.8408399820327759
0.093939512,0,0,1.6663644313812256,0,0,1.2994799613952637
0.094193676,0,0,1.6663644313812256,0,0,0.8408399820327759
0.094447247,0,0,1.6160861253738403,0,0,0
0.094700744,0,0,1.6160861253738403,0,0,0
0.094956149,0,0,1.6160861253738403,0,0,0.6879600286483765
0.095209128,0,0,1.6160861253738403,0,0,0.152879998087883
0.09546294,0,0,1.5849615335464478,0,0,0.7644000053405762
0.095716937,0,0,1.5849615335464478,0,0,0.7644000053405762
0.095970379,0,0,1.5849615335464478,0,0,0.8408399820327759
0.09622432,0,0,1.5849615335464478,0,0,0.8408399820327759
0.096478095,0,0,1.6112977266311646,0,0,0.8408399820327759
0.09673137,0,0,1.6112977266311646,0,0,0.611519992351532
0.097006441,0,0,1.6112977266311646,0,0,0.611519992351532
0.097239865,0,0,1.6112977266311646,0,0,2.14031982421875
0.097528195,0,0,1.4652514457702637,0,0,0.0764399990439415
0.09777284,0,0,1.4652514457702637,0,0,0.9172800183296204
0.098024023,0,0,1.4652514457702637,0,0,0.8408399820327759
0.098275927,0,0,1.4652514457702637,0,0,0.8408399820327759
0.098526888,0,0,1.414973258972168,0,0,0.5350799560546875
0.098777792,0,0,1.414973258972168,0,0,0.9172800183296204
0.099028234,0,0,1.414973258972168,0,0,0.7644000053405762
0.099280324,0,0,1.414973258972168,0,0,0.7644000053405762
0.09953084,0,0,1.3862427473068237,0,0,1.070159912109375
0.099781522,0,0,1.3862427473068237,0,0,0.152879998087883
0.100032316,0,0,1.3862427473068237,0,0,0.9172800183296204
0.100283757,0,0,1.3862427473068237,0,0,0.7644000053405762
0.100534773,0,0,1.3670891523361206,0,0,0.7644000053405762
0.100785696,0,0,1.3670891523361206,0,0,1.070159912109375
0.101036564,0,0,1.3670891523361206,0,0,0.5350799560546875
0.10128795,0,0,1.3670891523361206,0,0,0.7644000053405762
0.101551355,0,0,1.3215993642807007,0,0,0.611519992351532
0.101804926,0,0,1.3215993642807007,0,0,0.611519992351532
0.102058312,0,0,1.3215993642807007,0,0,0.9937199950218201
0.102312235,0,0,1.3215993642807007,0,0,0.4586400091648102
0.10256551,0,0,1.4700398445129395,0,0,0.9172800183296204
0.102818767,0,0,1.4700398445129395,0,0,0.9172800183296204
0.103072134,0,0,1.4700398445129395,0,0,0
0.103326706,0,0,1.4700398445129395,0,0,1.758120059967041
0.103578999,0,0,1.5945383310317993,0,0,0.2293200045824051
0.103832293,0,0,1.5945383310317993,0,0,0.6879600286483765
0.104085531,0,0,1.5945383310317993,0,0,0.6879600286483765
0.104338824,0,0,1.5945383310317993,0,0,0.8408399820327759
0.104592303,0,0,1.623268723487854,0,0,0.611519992351532
0.104844874,0,0,1.623268723487854,0,0,0.7644000053405762
0.105098371,0,0,1.623268723487854,0,0,0.7644000053405762
0.105359702,0,0,1.5155296325683594,0,0,0.3822000026702881
0.10561107,0,0,1.5155296325683594,0,0,0.5350799560546875
0.105863604,0,0,1.5155296325683594,0,0,0.4586400091648102
0.106116675,0,0,1.5155296325683594,0,0,1.223039984703064
0.106370228,0,0,1.5729905366897583,0,0,1.223039984703064
0.106623966,0,0,1.5729905366897583,0,0,0.8408399820327759
0.106877259,0,0,1.5729905366897583,0,0,0.7644000053405762
0.107131034,0,0,1.5729905366897583,0,0,0.9172800183296204
0.107384032,0,0,1.6136919260025024,0,0,0.611519992351532
0.107638159,0,0,1.6136919260025024,0,0,0.611519992351532
0.107891563,0,0,1.6136919260025024,0,0,0.2293200045824051
0.108144672,0,0,1.6136919260025024,0,0,1.070159912109375
0.108398058,0,0,1.3958195447921753,0,0,0.8408399820327759
0.108652203,0,0,1.3958195447921753,0,0,0.8408399820327759
0.108905589,0,0,1.3958195447921753,0,0,2.446079969406128
0.109159253,0,0,1.3958195447921753,0,0,0.2293200045824051
0.109412769,0,0,1.3886369466781616,0,0,1.2994799613952637
0.109975003,0,0,1.3886369466781616,0,0,0.9937199950218201
0.110020447,0,0,1.3886369466781616,0,0,0.9937199950218201
0.11022813,0,0,1.3886369466781616,0,0,0.9937199950218201
0.110483368,0,0,1.3000515699386597,0,0,0.6879600286483765
0.110737199,0,0,1.3000515699386597,0,0,0.152879998087883
0.110991289,0,0,1.3000515699386597,0,0,0.9172800183296204
0.111244786,0,0,1.3000515699386597,0,0,0.9172800183296204
0.11149869,0,0,1.2976573705673218,0,0,0.9937199950218201
0.111752688,0,0,1.2976573705673218,0,0,0.5350799560546875
0.112006611,0,0,1.2976573705673218,0,0,0.9172800183296204
0.112260238,0,0,1.2976573705673218,0,0,0.8408399820327759
0.112514031,0,0,1.335964560508728,0,0,0.8408399820327759
0.112768677,0,0,1.335964560508728,0,0,2.14031982421875
0.113021118,0,0,1.335964560508728,0,0,0
0.113299226,0,0,1.335964560508728,0,0,0.8408399820327759
0.113539113,0,0,1.4652514457702637,0,0,0.6879600286483765
0.113793314,0,0,1.4652514457702637,0,0,0.6879600286483765
0.114046718,0,0,1.4652514457702637,0,0,0.8408399820327759
0.114300141,0,0,1.4652514457702637,0,0,0.4586400091648102
0.114553676,0,0,1.5682021379470825,0,0,0.611519992351532
0.114807377,0,0,1.5682021379470825,0,0,0.611519992351532
0.115061578,0,0,1.5682021379470825,0,0,0.5350799560546875
0.115315464,0,0,1.5682021379470825,0,0,1.758120059967041
0.11556922,0,0,1.4867992401123047,0,0,0.611519992351532
0.115822736,0,0,1.4867992401123047,0,0,0.611519992351532
0.116076937,0,0,1.4867992401123047,0,0,0.611519992351532
0.116330823,0,0,1.4867992401123047,0,0,0.4586400091648102
0.116584616,0,0,1.4293384552001953,0,0,0.5350799560546875
0.116838558,0,0,1.4293384552001953,0,0,1.070159912109375
0.117092592,0,0,1.4293384552001953,0,0,0.5350799560546875
0.117346164,0,0,1.4293384552001953,0,0,0.5350799560546875
0.117602976,0,0,1.5753847360610962,0,0,1.605239987373352
0.117856269,0,0,1.5753847360610962,0,0,0.8408399820327759
0.11811047,0,0,1.5753847360610962,0,0,0.8408399820327759
0.118364356,0,0,1.3646949529647827,0,0,0.8408399820327759
0.118618242,0,0,1.3646949529647827,0,0,0.5350799560546875
0.118872221,0,0,1.3646949529647827,0,0,0.9172800183296204
0.119126404,0,0,1.3646949529647827,0,0,0.7644000053405762
0.119380086,0,0,1.2856862545013428,0,0,1.2994799613952637
0.119633861,0,0,1.2856862545013428,0,0,1.2994799613952637
0.119887747,0,0,1.2856862545013428,0,0,0.7644000053405762
0.120142281,0,0,1.2856862545013428,0,0,0.305759996175766
0.120396112,0,0,1.400607943534851,0,0,0.7644000053405762
0.120649387,0,0,1.400607943534851,0,0,0.7644000053405762
0.120902958,0,0,1.400607943534851,0,0,0.7644000053405762
0.121166344,0,0,1.400607943534851,0,0,0.9937199950218201
0.121415564,0,0,1.3431471586227417,0,0,1.605239987373352
0.121670616,0,0,1.3431471586227417,0,0,1.1466000080108643
0.121923854,0,0,1.3431471586227417,0,0,1.1466000080108643
0.122177907,0,0,1.3431471586227417,0,0,1.2994799613952637
0.122432293,0,0,1.335964560508728,0,0,1.6816799640655518
0.12268605,0,0,1.335964560508728,0,0,0.152879998087883
0.122939362,0,0,1.335964560508728,0,0,1.070159912109375
0.123193378,0,0,1.335964560508728,0,0,1.070159912109375
0.123447893,0,0,1.3742717504501343,0,0,0.611519992351532
0.123701872,0,0,1.3742717504501343,0,0,0.611519992351532
0.123955388,0,0,1.3742717504501343,0,0,1.375920057296753
0.124209311,0,0,1.3742717504501343,0,0,0.8408399820327759
0.124463623,0,0,1.50355863571167,0,0,0.8408399820327759
0.12471725,0,0,1.50355863571167,0,0,1.605239987373352
0.124970692,0,0,1.50355863571167,0,0,0.0764399990439415
0.125224226,0,0,1.50355863571167,0,0,0.3822000026702881
0.125498778,0,0,1.558625340461731,0,0,0.7644000053405762
0.125751739,0,0,1.558625340461731,0,0,0.7644000053405762
0.12600468,0,0,1.558625340461731,0,0,0.8408399820327759
0.126258437,0,0,1.558625340461731,0,0,1.1466000080108643
0.12651249,0,0,1.5275006294250488,0,0,0.5350799560546875
0.12676645,0,0,1.5275006294250488,0,0,0.5350799560546875
0.127019965,0,0,1.5275006294250488,0,0,1.8345600366592407
0.127273278,0,0,1.5275006294250488,0,0,0.6879600286483765
0.127526997,0,0,1.5107412338256836,0,0,1.070159912109375
0.127780476,0,0,1.5107412338256836,0,0,0.6879600286483765
0.12803438,0,0,1.5107412338256836,0,0,0.6879600286483765
0.128287952,0,0,1.5107412338256836,0,0,0.305759996175766
0.128542319,0,0,1.6424223184585571,0,0,1.070159912109375
0.128795687,0,0,1.6424223184585571,0,0,1.1466000080108643
0.129056017,0,0,1.6424223184585571,0,0,1.1466000080108643
0.129306311,0,0,1.6424223184585571,0,0,1.1466000080108643
0.129576882,0,0,1.4101848602294922,0,0,0
0.129815083,0,0,1.4101848602294922,0,0,0.9937199950218201
0.130068728,0,0,1.4101848602294922,0,0,0.7644000053405762
0.130322392,0,0,1.4101848602294922,0,0,0.7644000053405762
0.130575945,0,0,1.4077905416488647,0,0,0
0.130829628,0,0,1.4077905416488647,0,0,1.070159912109375
0.131082903,0,0,1.4077905416488647,0,0,0.611519992351532
0.131336474,0,0,1.4077905416488647,0,0,0.6879600286483765
0.131589934,0,0,1.4293384552001953,0,0,0.6879600286483765
0.131844302,0,0,1.4293384552001953,0,0,-0.8408399820327759
0.132098188,0,0,1.4293384552001953,0,0,0.9172800183296204
0.132351537,0,0,1.4293384552001953,0,0,0.5350799560546875
0.132604867,0,0,1.2282254695892334,0,0,0.8408399820327759
0.132858457,0,0,1.2282254695892334,0,0,0.8408399820327759
0.133112103,0,0,1.2282254695892334,0,0,0.8408399820327759
0.133408877,0,0,1.2282254695892334,0,0,0.5350799560546875
0.133622764,0,0,1.2665326595306396,0,0,0.3822000026702881
0.133875187,0,0,1.2665326595306396,0,0,0.3822000026702881
0.13412911,0,0,1.2665326595306396,0,0,0.5350799560546875
0.134382422,0,0,1.4101848602294922,0,0,0.6879600286483765
0.13463616,0,0,1.4101848602294922,0,0,0.3822000026702881
0.134890324,0,0,1.4101848602294922,0,0,1.070159912109375
0.135144229,0,0,1.4101848602294922,0,0,1.070159912109375
0.135397707,0,0,1.522712230682373,0,0,0.8408399820327759
0.135651297,0,0,1.522712230682373,0,0,0.305759996175766
0.13590522,0,0,1.522712230682373,0,0,0.7644000053405762
0.136159162,0,0,1.522712230682373,0,0,0.6879600286483765
0.136413048,0,0,1.5873557329177856,0,0,0.6879600286483765
0.136666434,0,0,1.5873557329177856,0,0,1.223039984703064
0.136927283,0,0,1.5873557329177856,0,0,0.6879600286483765
0.137178336,0,0,1.5873557329177856,0,0,0.611519992351532
0.137431704,0,0,1.5897499322891235,0,0,0.611519992351532
0.137686368,0,0,1.5897499322891235,0,0,0.7644000053405762
0.137941161,0,0,1.5897499322891235,0,0,1.2994799613952637
0.138194584,0,0,1.5897499322891235,0,0,0.9172800183296204
0.138448118,0,0,1.6424223184585571,0,0,0.9937199950218201
0.138701968,0,0,1.6424223184585571,0,0,0.9937199950218201
0.138955298,0,0,1.6424223184585571,0,0,0.8408399820327759
0.139208999,0,0,1.6424223184585571,0,0,0.6879600286483765
0.139462867,0,0,1.6208745241165161,0,0,0.9172800183296204
0.139716345,0,0,1.6208745241165161,0,0,0.9172800183296204
0.139970065,0,0,1.6208745241165161,0,0,0.6879600286483765
0.140224951,0,0,1.6208745241165161,0,0,1.375920057296753
0.140478707,0,0,1.4197616577148438,0,0,0.4586400091648102
0.140732094,0,0,1.4197616577148438,0,0,0.9172800183296204
0.140985406,0,0,1.4197616577148438,0,0,0.9172800183296204
0.141239755,0,0,1.4197616577148438,0,0,0.9937199950218201
0.141509659,0,0,1.3670891523361206,0,0,0.3822000026702881
0.141763156,0,0,1.3670891523361206,0,0,0.8408399820327759
0.142016765,0,0,1.3670891523361206,0,0,0.9172800183296204
0.142270947,0,0,1.3670891523361206,0,0,0.9172800183296204
0.142524667,0,0,1.316810965538025,0,0,0.305759996175766
0.142777979,0,0,1.316810965538025,0,0,1.2994799613952637
0.14303142,0,0,1.316810965538025,0,0,0.9937199950218201
0.143286306,0,0,1.316810965538025,0,0,1.070159912109375
0.143539822,0,0,1.259350061416626,0,0,1.070159912109375
0.143793468,0,0,1.259350061416626,0,0,0.152879998087883
0.144047131,0,0,1.259350061416626,0,0,0.7644000053405762
0.144301221,0,0,1.259350061416626,0,0,0.4586400091648102
0.144554867,0,0,1.314416766166687,0,0,0.4586400091648102
0.144814808,0,0,1.314416766166687,0,0,0.611519992351532
0.145065398,0,0,1.314416766166687,0,0,0.6879600286483765
0.145319377,0,0,1.314416766166687,0,0,0.9937199950218201
0.145574707,0,0,1.4700398445129395,0,0,0.6879600286483765
0.145827093,0,0,1.4700398445129395,0,0,0.6879600286483765
0.146080813,0,0,1.4700398445129395,0,0,0.7644000053405762
0.146335643,0,0,1.4700398445129395,0,0,0.8408399820327759
0.146589011,0,0,1.6065093278884888,0,0,0.3822000026702881
0.146842693,0,0,1.6065093278884888,0,0,0.9172800183296204
0.147096691,0,0,1.6065093278884888,0,0,0.9172800183296204
0.147349762,0,0,1.6065093278884888,0,0,0.6879600286483765
0.147603481,0,0,1.6328455209732056,0,0,1.6816799640655518
0.147857405,0,0,1.6328455209732056,0,0,0.7644000053405762
0.148110754,0,0,1.6328455209732056,0,0,0.7644000053405762
0.148364029,0,0,1.6328455209732056,0,0,0.5350799560546875
0.148618693,0,0,1.4652514457702637,0,0,0.611519992351532
0.148872282,0,0,1.4652514457702637,0,0,0.611519992351532
0.149126057,0,0,1.4652514457702637,0,0,0.9172800183296204
0.149379369,0,0,1.4652514457702637,0,0,0.9172800183296204
0.149635422,0,0,1.5849615335464478,0,0,0.4586400091648102
0.149887919,0,0,1.5849615335464478,0,0,0.7644000053405762
0.150141509,0,0,1.5849615335464478,0,0,0.5350799560546875
0.15039534,0,0,1.5849615335464478,0,0,0.9172800183296204
0.150649522,0,0,1.4245500564575195,0,0,0.9172800183296204
0.150903297,0,0,1.4245500564575195,0,0,0.6879600286483765
0.15115698,0,0,1.4245500564575195,0,0,0.4586400091648102
0.151410051,0,0,1.3646949529647827,0,0,1.1466000080108643
0.151664604,0,0,1.3646949529647827,0,0,1.1466000080108643
0.151918008,0,0,1.3646949529647827,0,0,0
0.152171672,0,0,1.3646949529647827,0,0,1.605239987373352
0.152425503,0,0,1.400607943534851,0,0,0.611519992351532
0.152686167,0,0,1.400607943534851,0,0,1.070159912109375
0.152936812,0,0,1.400607943534851,0,0,1.070159912109375
0.153190606,0,0,1.400607943534851,0,0,1.6816799640655518
0.153444473,0,0,1.3024457693099976,0,0,1.2994799613952637
0.15369947,0,0,1.3024457693099976,0,0,1.452359914779663
0.153952949,0,0,1.3024457693099976,0,0,0.9937199950218201
0.154206354,0,0,1.3024457693099976,0,0,0.9937199950218201
0.154460036,0,0,1.292868971824646,0,0,0.9172800183296204
0.154714496,0,0,1.292868971824646,0,0,0.5350799560546875
0.154968031,0,0,1.292868971824646,0,0,0.9172800183296204
0.155221343,0,0,1.292868971824646,0,0,0.9172800183296204
0.155475136,0,0,1.37906014919281,0,0,1.605239987373352
0.155729078,0,0,1.37906014919281,0,0,0.9937199950218201
0.155982834,0,0,1.37906014919281,0,0,0.6879600286483765
0.156236369,0,0,1.37906014919281,0,0,1.070159912109375
0.156490162,0,0,1.558625340461731,0,0,1.070159912109375
0.156743919,0,0,1.558625340461731,0,0,0.5350799560546875
0.156998249,0,0,1.558625340461731,0,0,0.611519992351532
0.157251895,0,0,1.558625340461731,0,0,0.5350799560546875
0.157507725,0,0,1.5610195398330688,0,0,0.4586400091648102
0.157760815,0,0,1.5610195398330688,0,0,0.4586400091648102
0.158015294,0,0,1.5610195398330688,0,0,1.452359914779663
0.158268958,0,0,1.5610195398330688,0,0,0.3822000026702881
0.158522584,0,0,1.644816517829895,0,0,0.9172800183296204
0.158776304,0,0,1.644816517829895,0,0,0.9172800183296204
0.15903056,0,0,1.644816517829895,0,0,0.6879600286483765
0.159284095,0,0,1.644816517829895,0,0,0.0764399990439415
0.159537388,0,0,1.5873557329177856,0,0,0.9937199950218201
0.159791089,0,0,1.5873557329177856,0,0,0.6879600286483765
0.160045179,0,0,1.5873557329177856,0,0,0.6879600286483765
0.160298547,0,0,1.5873557329177856,0,0,1.2994799613952637
0.160558655,0,0,1.6855180263519287,0,0,0
0.16080906,0,0,1.6855180263519287,0,0,0.9937199950218201
0.161063427,0,0,1.6855180263519287,0,0,0.9937199950218201
0.161317239,0,0,1.6855180263519287,0,0,0.9937199950218201
0.161571977,0,0,1.4532804489135742,0,0,0.9172800183296204
0.161824641,0,0,1.4532804489135742,0,0,0.2293200045824051
0.162078879,0,0,1.4532804489135742,0,0,1.1466000080108643
0.162332543,0,0,1.4532804489135742,0,0,1.1466000080108643
0.162586022,0,0,1.3311761617660522,0,0,0.9937199950218201
0.162839889,0,0,1.3311761617660522,0,0,0.7644000053405762
0.163094294,0,0,1.3311761617660522,0,0,0.8408399820327759
0.163347032,0,0,1.3311761617660522,0,0,0.6879600286483765
0.16360077,0,0,1.4413094520568848,0,0,0.6879600286483765
0.163854211,0,0,1.4413094520568848,0,0,0.8408399820327759
0.164108116,0,0,1.4413094520568848,0,0,1.2994799613952637
0.16436191,0,0,1.4413094520568848,0,0,1.2994799613952637
0.164615703,0,0,1.3503297567367554,0,0,1.2994799613952637
0.164868756,0,0,1.3503297567367554,0,0,0.611519992351532
0.165122401,0,0,1.3503297567367554,0,0,0
0.165376287,0,0,1.3503297567367554,0,0,0.6879600286483765
0.165631044,0,0,1.37906014919281,0,0,0.611519992351532
0.165893726,0,0,1.37906014919281,0,0,0.611519992351532
0.166137261,0,0,1.37906014919281,0,0,0.9937199950218201
0.166391499,0,0,1.37906014919281,0,0,1.375920057296753
0.166645181,0,0,1.3646949529647827,0,0,1.1466000080108643
0.166898641,0,0,1.3646949529647827,0,0,0.8408399820327759
0.167152157,0,0,1.3646949529647827,0,0,0.8408399820327759
0.167406432,0,0,1.3646949529647827,0,0,9.478560447692871
0.167660411,0,0,1.5179238319396973,0,0,0.5350799560546875
0.167914075,0,0,1.5179238319396973,0,0,0.4586400091648102
0.168167646,0,0,1.5179238319396973,0,0,0.4586400091648102
0.168428569,0,0,1.6184803247451782,0,0,0.152879998087883
0.168678437,0,0,1.6184803247451782,0,0,0.6879600286483765
0.168932582,0,0,1.6184803247451782,0,0,1.605239987373352
0.169186246,0,0,1.6184803247451782,0,0,0.8408399820327759
0.169440225,0,0,1.5729905366897583,0,0,0.8408399820327759
0.169694259,0,0,1.5729905366897583,0,0,0.5350799560546875
0.169947775,0,0,1.5729905366897583,0,0,0.5350799560546875
0.170201809,0,0,1.5729905366897583,0,0,0.5350799560546875
0.170456121,0,0,1.5083470344543457,0,0,0.9937199950218201
0.1707096,0,0,1.5083470344543457,0,0,0.9937199950218201
0.17096293,0,0,1.5083470344543457,0,0,0.611519992351532
0.171216446,0,0,1.5083470344543457,0,0,1.452359914779663
0.171469647,0,0,1.5538369417190552,0,0,0.6879600286483765
0.171723718,0,0,1.5538369417190552,0,0,0.6879600286483765
0.171976882,0,0,1.5538369417190552,0,0,0.611519992351532
0.172230194,0,0,1.5538369417190552,0,0,0.6879600286483765
0.172483988,0,0,1.4724340438842773,0,0,1.070159912109375
0.172738596,0,0,1.4724340438842773,0,0,1.1466000080108643
0.172992093,0,0,1.4724340438842773,0,0,1.1466000080108643
0.173245794,0,0,1.4724340438842773,0,0,1.5288000106811523
0.173515217,0,0,1.3646949529647827,0,0,1.223039984703064
0.173769714,0,0,1.3646949529647827,0,0,0.6879600286483765
0.174023397,0,0,1.3646949529647827,0,0,0.611519992351532
0.17427695,0,0,1.3646949529647827,0,0,0.611519992351532
0.17453041,0,0,1.2856862545013428,0,0,2.446079969406128
0.174784537,0,0,1.2856862545013428,0,0,0.9172800183296204
0.175038256,0,0,1.2856862545013428,0,0,0.9172800183296204
0.175292124,0,0,1.2856862545013428,0,0,0.9172800183296204
0.175549102,0,0,1.256955862045288,0,0,1.1466000080108643
0.175802007,0,0,1.256955862045288,0,0,0.611519992351532
0.176055467,0,0,1.256955862045288,0,0,1.070159912109375
0.176316261,0,0,1.256955862045288,0,0,0.7644000053405762
0.176566387,0,0,1.357512354850769,0,0,0.7644000053405762
0.176821014,0,0,1.357512354850769,0,0,0.7644000053405762
0.177074734,0,0,1.357512354850769,0,0,0.5350799560546875
0.17732862,0,0,1.357512354850769,0,0,1.070159912109375
0.177583876,0,0,1.414973258972168,0,0,1.070159912109375
0.177836374,0,0,1.414973258972168,0,0,1.070159912109375
0.178090019,0,0,1.414973258972168,0,0,1.452359914779663
0.178343701,0,0,1.414973258972168,0,0,0.2293200045824051
0.178597032,0,0,1.623268723487854,0,0,0.611519992351532
0.178851344,0,0,1.623268723487854,0,0,0.611519992351532
0.179105119,0,0,1.623268723487854,0,0,0.4586400091648102
0.179358875,0,0,1.623268723487854,0,0,0.4586400091648102
0.179612817,0,0,1.5729905366897583,0,0,1.452359914779663
0.1798665,0,0,1.5729905366897583,0,0,0.8408399820327759
0.180120589,0,0,1.5729905366897583,0,0,0.8408399820327759
0.180374253,0,0,1.5729905366897583,0,0,1.758120059967041
0.180628288,0,0,1.4676456451416016,0,0,9.631440162658691
0.180881322,0,0,1.4676456451416016,0,0,0.6879600286483765
0.181135615,0,0,1.4676456451416016,0,0,0.4586400091648102
0.18138902,0,0,1.4676456451416016,0,0,0.4586400091648102
0.181644184,0,0,1.5179238319396973,0,0,0.7644000053405762
0.181896848,0,0,1.5179238319396973,0,0,1.2994799613952637
0.182152067,0,0,1.5179238319396973,0,0,0.9172800183296204
0.182405453,0,0,1.5179238319396973,0,0,0.9172800183296204
0.182658784,0,0,1.601720929145813,0,0,0.611519992351532
0.182912355,0,0,1.601720929145813,0,0,0.2293200045824051
0.183166167,0,0,1.601720929145813,0,0,0.7644000053405762
0.183419905,0,0,1.601720929145813,0,0,1.070159912109375
0.183673532,0,0,1.3527239561080933,0,0,1.070159912109375
0.183927215,0,0,1.3527239561080933,0,0,0.9937199950218201
0.184188175,0,0,1.3527239561080933,0,0,0.8408399820327759
0.184438616,0,0,1.3838485479354858,0,0,0.7644000053405762
0.184691688,0,0,1.3838485479354858,0,0,0.5350799560546875
0.184945518,0,0,1.3838485479354858,0,0,0.5350799560546875
0.185200108,0,0,1.3838485479354858,0,0,0.5350799560546875
0.185470327,0,0,1.403002142906189,0,0,0.8408399820327759
0.185709436,0,0,1.403002142906189,0,0,0.7644000053405762
0.185962229,0,0,1.403002142906189,0,0,0.7644000053405762
0.186298003,0,0,1.403002142906189,0,0,1.1466000080108643
0.186551112,0,0,1.316810965538025,0,0,1.1466000080108643
0.186804794,0,0,1.316810965538025,0,0,0.611519992351532
0.187058217,0,0,1.316810965538025,0,0,0.4586400091648102
0.187312511,0,0,1.316810965538025,0,0,0.6879600286483765
0.187565953,0,0,1.522712230682373,0,0,0.6879600286483765
0.187819116,0,0,1.522712230682373,0,0,0.6879600286483765
0.188072447,0,0,1.522712230682373,0,0,0.4586400091648102
0.188320722,0,0,1.522712230682373,0,0,1.070159912109375
0.18855509,0,0,1.5203180313110352,0,0,1.070159912109375
0.188788402,0,0,1.5203180313110352,0,0,1.070159912109375
0.1890219,0,0,1.5203180313110352,0,0,0
0.189254916,0,0,1.5203180313110352,0,0,0.6879600286483765
0.189506431,0,0,1.5610195398330688,0,0,0.6879600286483765
0.189740207,0,0,1.5610195398330688,0,0,0.611519992351532
0.189973556,0,0,1.5610195398330688,0,0,0.305759996175766
0.190206942,0,0,1.5610195398330688,0,0,0.5350799560546875
0.190440995,0,0,1.6304513216018677,0,0,0.5350799560546875
0.190674604,0,0,1.6304513216018677,0,0,0.7644000053405762
0.190908249,0,0,1.6304513216018677,0,0,0.5350799560546875
0.191141599,0,0,1.6304513216018677,0,0,0.5350799560546875
0.191374985,0,0,1.6304513216018677,0,0,0.2293200045824051
0.191608668,0,0,1.5610195398330688,0,0,9.631440162658691
0.191849628,0,0,1.5610195398330688,0,0,1.070159912109375
0.192079663,0,0,1.5610195398330688,0,0,1.070159912109375
0.192313012,0,0,1.5610195398330688,0,0,0.4586400091648102
0.192547417,0,0,1.6855180263519287,0,0,1.070159912109375
0.192780877,0,0,1.6855180263519287,0,0,0.8408399820327759
0.193014356,0,0,1.6855180263519287,0,0,0.8408399820327759
0.193247613,0,0,1.6855180263519287,0,0,0.6879600286483765
0.193496888,0,0,1.4939818382263184,0,0,0.9172800183296204
0.193730626,0,0,1.4939818382263184,0,0,0.9172800183296204
0.193976679,0,0,1.4939818382263184,0,0,0.7644000053405762
0.194198047,0,0,1.4939818382263184,0,0,1.070159912109375
0.194431526,0,0,1.4939818382263184,0,0,0.8408399820327759
0.194665431,0,0,1.3934253454208374,0,0,0.8408399820327759
0.194898965,0,0,1.3934253454208374,0,0,1.605239987373352
0.195132444,0,0,1.3934253454208374,0,0,0.8408399820327759
0.195365979,0,0,1.3934253454208374,0,0,0.7644000053405762
0.195600365,0,0,1.3742717504501343,0,0,0.7644000053405762
0.195832788,0,0,1.3742717504501343,0,0,0
0.196066082,0,0,1.3742717504501343,0,0,0.9172800183296204
0.196299746,0,0,1.3742717504501343,0,0,0.9172800183296204
0.196533095,0,0,1.3263877630233765,0,0,0.7644000053405762
0.196767611,0,0,1.3263877630233765,0,0,0.5350799560546875
0.197001331,0,0,1.3263877630233765,0,0,0.8408399820327759
0.197234347,0,0,1.3263877630233765,0,0,0.8408399820327759
0.197483066,0,0,1.3072341680526733,0,0,0.4586400091648102
0.197717323,0,0,1.3072341680526733,0,0,0.611519992351532
0.197950617,0,0,1.3072341680526733,0,0,0.9172800183296204
0.198184096,0,0,1.3072341680526733,0,0,0.9172800183296204
0.198417723,0,0,1.3072341680526733,0,0,0.305759996175766
0.198651072,0,0,1.359906554222107,0,0,1.070159912109375
0.198885273,0,0,1.359906554222107,0,0,1.070159912109375
0.199125604,0,0,1.359906554222107,0,0,0.6879600286483765
0.199356028,0,0,1.359906554222107,0,0,0.8408399820327759
0.199589358,0,0,1.4939818382263184,0,0,0.9172800183296204
0.199824115,0,0,1.4939818382263184,0,0,0.9172800183296204
0.200057575,0,0,1.4939818382263184,0,0,1.375920057296753
0.200291499,0,0,1.4939818382263184,0,0,0.9937199950218201
0.200524978,0,0,1.5634137392044067,0,0,0.9937199950218201
0.200758531,0,0,1.5634137392044067,0,0,0.6879600286483765
0.200992343,0,0,1.5634137392044067,0,0,0.4586400091648102
0.201226285,0,0,1.5634137392044067,0,0,0.9937199950218201
0.20147369,0,0,1.5705963373184204,0,0,0.9937199950218201
0.201693521,0,0,1.5705963373184204,0,0,0.4586400091648102
0.201927611,0,0,1.5705963373184204,0,0,0.9172800183296204
0.202161071,0,0,1.5705963373184204,0,0,0.611519992351532
0.202394661,0,0,1.5705963373184204,0,0,0.611519992351532
0.20262827,0,0,1.5155296325683594,0,0,0.305759996175766
0.202861786,0,0,1.5155296325683594,0,0,1.070159912109375
0.203095746,0,0,1.5155296325683594,0,0,1.070159912109375
0.203329484,0,0,1.5155296325683594,0,0,1.6816799640655518
0.203563222,0,0,1.625662922859192,0,0,0.9172800183296204
0.203796072,0,0,1.625662922859192,0,0,0.6879600286483765
0.204030421,0,0,1.625662922859192,0,0,0.6879600286483765
0.204263585,0,0,1.625662922859192,0,0,0.3822000026702881
0.204497101,0,0,1.403002142906189,0,0,0.6879600286483765
0.20473045,0,0,1.403002142906189,0,0,0.6879600286483765
0.204963781,0,0,1.403002142906189,0,0,0.8408399820327759
0.205198038,0,0,1.403002142906189,0,0,0.5350799560546875
0.205431554,0,0,1.403002142906189,0,0,0.7644000053405762
0.205665329,0,0,1.3239935636520386,0,0,0.7644000053405762
0.205898901,0,0,1.3239935636520386,0,0,0.152879998087883
0.206133139,0,0,1.3239935636520386,0,0,1.2994799613952637
0.206372544,0,0,1.3239935636520386,0,0,0.7644000053405762
0.206602874,0,0,1.3503297567367554,0,0,0.7644000053405762
0.206836353,0,0,1.3503297567367554,0,0,1.2994799613952637
0.207069591,0,0,1.3503297567367554,0,0,1.070159912109375
0.207303867,0,0,1.3503297567367554,0,0,1.070159912109375
0.207547438,0,0,1.2282254695892334,0,0,0
0.207771343,0,0,1.2282254695892334,0,0,1.070159912109375
0.208004581,0,0,1.2282254695892334,0,0,0.7644000053405762
0.20823869,0,0,1.2282254695892334,0,0,0.7644000053405762
0.208472169,0,0,1.3048399686813354,0,0,0
0.208706,0,0,1.3048399686813354,0,0,0.9172800183296204
0.208948238,0,0,1.3048399686813354,0,0,0.8408399820327759
0.209173402,0,0,1.3048399686813354,0,0,0.8408399820327759
0.209407529,0,0,1.3048399686813354,0,0,1.452359914779663
0.209641434,0,0,1.3311761617660522,0,0,0.4586400091648102
0.209874524,0,0,1.3311761617660522,0,0,0.4586400091648102
0.210108132,0,0,1.3311761617660522,0,0,-29.582279205322266
0.21034213,0,0,1.3311761617660522,0,0,0.611519992351532
0.210575646,0,0,1.4867992401123047,0,0,0.4586400091648102
0.210808921,0,0,1.4867992401123047,0,0,0.4586400091648102
0.211042344,0,0,1.4867992401123047,0,0,0.8408399820327759
0.211275508,0,0,1.4867992401123047,0,0,0.8408399820327759
0.211509413,0,0,1.647210717201233,0,0,0.8408399820327759
0.211743207,0,0,1.647210717201233,0,0,1.9109998941421509
0.211976168,0,0,1.647210717201233,0,0,0.8408399820327759
0.212209498,0,0,1.647210717201233,0,0,0.7644000053405762
0.212443385,0,0,1.647210717201233,0,0,0.7644000053405762
0.212676864,0,0,1.5179238319396973,0,0,0.0764399990439415
0.212910231,0,0,1.5179238319396973,0,0,0.6879600286483765
0.213143414,0,0,1.5179238319396973,0,0,0.6879600286483765
0.213376782,0,0,1.5179238319396973,0,0,0.9172800183296204
0.213618187,0,0,1.4532804489135742,0,0,0.8408399820327759
0.213847369,0,0,1.4532804489135742,0,0,0.9172800183296204
0.214080793,0,0,1.4532804489135742,0,0,0.9172800183296204
0.214314346,0,0,1.4532804489135742,0,0,0.4586400091648102
0.214548232,0,0,1.5969325304031372,0,0,0.8408399820327759
0.214781804,0,0,1.5969325304031372,0,0,0.9172800183296204
0.215015153,0,0,1.5969325304031372,0,0,0.9172800183296204
0.215248576,0,0,1.5969325304031372,0,0,0.3822000026702881
0.215481851,0,0,1.3646949529647827,0,0,0.611519992351532
0.215715645,0,0,1.3646949529647827,0,0,0.611519992351532
0.21594855,0,0,1.3646949529647827,0,0,0.6879600286483765
0.21618201,0,0,1.3646949529647827,0,0,0.7644000053405762
0.216415526,0,0,1.3646949529647827,0,0,0.4586400091648102
0.216649524,0,0,1.3287819623947144,0,0,0.4586400091648102
0.216882818,0,0,1.3287819623947144,0,0,0.611519992351532
0.217116185,0,0,1.3287819623947144,0,0,1.223039984703064
0.217349516,0,0,1.3287819623947144,0,0,1.1466000080108643
0.217584421,0,0,1.2761094570159912,0,0,1.1466000080108643
0.217816993,0,0,1.2761094570159912,0,0,1.452359914779663
0.218050472,0,0,1.2761094570159912,0,0,1.223039984703064
0.218283747,0,0,1.2761094570159912,0,0,1.223039984703064
0.218517633,0,0,1.2761094570159912,0,0,-0.5350799560546875
0.218751482,0,0,1.2761094570159912,0,0,0.7644000053405762
0.218984887,0,0,1.2761094570159912,0,0,0.305759996175766
0.219218163,0,0,1.2761094570159912,0,0,0.305759996175766
0.219451586,0,0,1.2761094570159912,0,0,1.2994799613952637
0.219685157,0,0,1.3670891523361206,0,0,1.070159912109375
0.219922877,0,0,1.3670891523361206,0,0,1.070159912109375
0.220155152,0,0,1.3670891523361206,0,0,0.4586400091648102
0.220388335,0,0,1.3670891523361206,0,0,0.9172800183296204
0.220621443,0,0,1.4460978507995605,0,0,0.9172800183296204
0.220862719,0,0,1.4460978507995605,0,0,0.9172800183296204
0.221092549,0,0,1.4460978507995605,0,0,0.5350799560546875
0.221325602,0,0,1.4460978507995605,0,0,0.305759996175766
0.2215616,0,0,1.5538369417190552,0,0,0.6879600286483765
0.221794783,0,0,1.5538369417190552,0,0,0.6879600286483765
0.222028428,0,0,1.5538369417190552,0,0,0.611519992351532
0.222261666,0,0,1.5538369417190552,0,0,1.223039984703064
0.222495108,0,0,1.577778935432434,0,0,1.223039984703064
0.222728643,0,0,1.577778935432434,0,0,0.9172800183296204
0.222962622,0,0,1.577778935432434,0,0,0.8408399820327759
0.223196156,0,0,1.577778935432434,0,0,0.8408399820327759
0.223429746,0,0,1.577778935432434,0,0,0.8408399820327759
0.223663095,0,0,1.4939818382263184,0,0,0.3822000026702881
0.223908148,0,0,1.4939818382263184,0,0,0.611519992351532
0.224130405,0,0,1.4939818382263184,0,0,0.611519992351532
0.224363347,0,0,1.4939818382263184,0,0,1.9109998941421509
0.2245969,0,0,1.5873557329177856,0,0,1.2994799613952637
0.224830361,0,0,1.5873557329177856,0,0,0.9172800183296204
0.225064599,0,0,1.5873557329177856,0,0,0.9172800183296204
0.225298133,0,0,1.5873557329177856,0,0,1.9109998941421509
0.22553276,0,0,1.41257905960083,0,0,0.7644000053405762
0.225764906,0,0,1.41257905960083,0,0,0.9937199950218201
0.22599844,0,0,1.41257905960083,0,0,0.9937199950218201
0.226232067,0,0,1.41257905960083,0,0,1.2994799613952637
0.226465509,0,0,1.41257905960083,0,0,0.7644000053405762
0.22669834,0,0,1.3311761617660522,0,0,0.7644000053405762
0.226931578,0,0,1.3311761617660522,0,0,1.9109998941421509
0.227165502,0,0,1.3311761617660522,0,0,1.223039984703064
0.227399147,0,0,1.3311761617660522,0,0,0.7644000053405762
0.227632663,0,0,1.3455413579940796,0,0,0.7644000053405762
0.227865994,0,0,1.3455413579940796,0,0,1.8345600366592407
0.228107214,0,0,1.3455413579940796,0,0,0.6879600286483765
0.228336322,0,0,1.3455413579940796,0,0,0.6879600286483765
0.228569412,0,0,1.3646949529647827,0,0,2.06387996673584
0.228802947,0,0,1.3646949529647827,0,0,1.223039984703064
0.229036222,0,0,1.3646949529647827,0,0,0.7644000053405762
0.229270219,0,0,1.3646949529647827,0,0,0.7644000053405762
0.229506254,0,0,1.3096283674240112,0,0,1.8345600366592407
0.229738825,0,0,1.3096283674240112,0,0,0.5350799560546875
0.229972138,0,0,1.3096283674240112,0,0,0.5350799560546875
0.230206394,0,0,1.3096283674240112,0,0,0.5350799560546875
0.230439707,0,0,1.3096283674240112,0,0,1.223039984703064
0.230673352,0,0,1.4317326545715332,0,0,0.9172800183296204
0.230906683,0,0,1.4317326545715332,0,0,0.9172800183296204
0.231140106,0,0,1.4317326545715332,0,0,1.9874399900436401
0.231373993,0,0,1.4317326545715332,0,0,1.375920057296753
0.231607324,0,0,1.4724340438842773,0,0,0.7644000053405762
0.231840636,0,0,1.4724340438842773,0,0,0.7644000053405762
0.232073985,0,0,1.4724340438842773,0,0,0.6879600286483765
0.232308131,0,0,1.4724340438842773,0,0,0.5350799560546875
0.232541221,0,0,1.5825673341751099,0,0,0.5350799560546875
0.232774681,0,0,1.5825673341751099,0,0,1.758120059967041
0.233007938,0,0,1.5825673341751099,0,0,0.3822000026702881
0.233241083,0,0,1.5825673341751099,0,0,0.7644000053405762
0.233495303,0,0,1.5849615335464478,0,0,0.7644000053405762
0.233725652,0,0,1.5849615335464478,0,0,2.446079969406128
0.233956668,0,0,1.5849615335464478,0,0,0.611519992351532
0.234187555,0,0,1.5849615335464478,0,0,0.6879600286483765
0.234419126,0,0,1.5849615335464478,0,0,0.6879600286483765
0.234650364,0,0,1.5322890281677246,0,0,0.3822000026702881
0.234881214,0,0,1.5322890281677246,0,0,0.8408399820327759
0.235112341,0,0,1.5322890281677246,0,0,0.8408399820327759
0.23534906,0,0,1.5322890281677246,0,0,1.9109998941421509
0.235577484,0,0,1.5610195398330688,0,0,0.3822000026702881
0.235808204,0,0,1.5610195398330688,0,0,0.9937199950218201
0.236038812,0,0,1.5610195398330688,0,0,0.9937199950218201
0.236269995,0,0,1.5610195398330688,0,0,1.5288000106811523
0.23650214,0,0,1.3766659498214722,0,0,0.9172800183296204
0.236732879,0,0,1.3766659498214722,0,0,0.9172800183296204
0.236963784,0,0,1.3766659498214722,0,0,0.9172800183296204
0.237194318,0,0,1.3766659498214722,0,0,0.6879600286483765
0.237425093,0,0,1.3766659498214722,0,0,0.6879600286483765
0.237659424,0,0,1.434126853942871,0,0,0.6879600286483765
0.237891977,0,0,1.434126853942871,0,0,1.223039984703064
0.23940359,0,0,1.3766659498214722,0,0,1.1466000080108643
0.239640125,0,0,1.3886369466781616,0,0,1.1466000080108643
0.239881307,0,0,1.3886369466781616,0,0,1.070159912109375
0.240154527,0,0,1.3886369466781616,0,0,1.1466000080108643
0.240363413,0,0,1.3886369466781616,0,0,0.4586400091648102
0.240690206,0,0,1.292868971824646,0,0,0.9172800183296204
0.240930037,0,0,1.292868971824646,0,0,0.9172800183296204
0.241162571,0,0,1.292868971824646,0,0,1.375920057296753
0.24139592,0,0,1.292868971824646,0,0,0.8408399820327759
0.241634603,0,0,1.5059528350830078,0,0,0.8408399820327759
0.241867212,0,0,1.5059528350830078,0,0,0.8408399820327759
0.242100468,0,0,1.5059528350830078,0,0,0.6879600286483765
0.242333595,0,0,1.5059528350830078,0,0,0.611519992351532
0.242566759,0,0,1.501164436340332,0,0,0.611519992351532
0.242800627,0,0,1.501164436340332,0,0,0
0.24303344,0,0,1.501164436340332,0,0,0.9937199950218201
0.243266456,0,0,1.501164436340332,0,0,0.9172800183296204
0.243499249,0,0,1.5753847360610962,0,0,0.9172800183296204
0.243732247,0,0,1.5753847360610962,0,0,0.9172800183296204
0.243980596,0,0,1.5753847360610962,0,0,0.8408399820327759
0.244207538,0,0,1.5753847360610962,0,0,0.9172800183296204
0.244440554,0,0,1.5753847360610962,0,0,0.9172800183296204
0.244673588,0,0,1.6424223184585571,0,0,0.2293200045824051
0.244907104,0,0,1.6424223184585571,0,0,0.611519992351532
0.245140324,0,0,1.6424223184585571,0,0,0.611519992351532
0.245373192,0,0,1.6424223184585571,0,0,2.2167599201202393
0.245607597,0,0,1.4652514457702637,0,0,0.3822000026702881
0.245839687,0,0,1.4652514457702637,0,0,0.9172800183296204
0.246073499,0,0,1.4652514457702637,0,0,0.9172800183296204
0.246306404,0,0,1.4652514457702637,0,0,0.9172800183296204
0.246539401,0,0,1.7118542194366455,0,0,0.8408399820327759
0.246772621,0,0,1.7118542194366455,0,0,0.8408399820327759
0.247006267,0,0,1.7118542194366455,0,0,1.2994799613952637
0.247239431,0,0,1.7118542194366455,0,0,1.375920057296753
0.247472687,0,0,1.7118542194366455,0,0,0.6879600286483765
0.247705777,0,0,1.50355863571167,0,0,0.6879600286483765
0.247938849,0,0,1.50355863571167,0,0,0.9172800183296204
0.248172865,0,0,1.50355863571167,0,0,0.8408399820327759
0.248406066,0,0,1.50355863571167,0,0,0.9937199950218201
0.248639564,0,0,1.3455413579940796,0,0,0.9937199950218201
0.24887282,0,0,1.3455413579940796,0,0,0.8408399820327759
0.249106466,0,0,1.3455413579940796,0,0,0.9937199950218201
0.249339797,0,0,1.3455413579940796,0,0,0.9937199950218201
0.249574183,0,0,1.3287819623947144,0,0,0.3822000026702881
0.249806106,0,0,1.3287819623947144,0,0,0.8408399820327759
0.250039196,0,0,1.3287819623947144,0,0,0.7644000053405762
0.250273027,0,0,1.3287819623947144,0,0,0.7644000053405762
0.250505969,0,0,1.278503656387329,0,0,0.3822000026702881
0.250738892,0,0,1.278503656387329,0,0,0.7644000053405762
0.250971834,0,0,1.278503656387329,0,0,0.7644000053405762
0.251211998,0,0,1.278503656387329,0,0,0.6879600286483765
0.251441811,0,0,1.278503656387329,0,0,0.305759996175766
0.251675049,0,0,1.3886369466781616,0,0,0.5350799560546875
0.251907917,0,0,1.3886369466781616,0,0,0.5350799560546875
0.252141025,0,0,1.3886369466781616,0,0,1.452359914779663
0.252374338,0,0,1.3886369466781616,0,0,0.9172800183296204
0.252607465,0,0,1.4724340438842773,0,0,0.9172800183296204
0.252840703,0,0,1.4724340438842773,0,0,0.9937199950218201
0.25307383,0,0,1.4724340438842773,0,0,0.305759996175766
0.253307346,0,0,1.4724340438842773,0,0,0.7644000053405762
0.253541621,0,0,1.4891934394836426,0,0,0.7644000053405762
0.253773452,0,0,1.4891934394836426,0,0,0
0.254006264,0,0,1.4891934394836426,0,0,0.9172800183296204
0.254239225,0,0,1.4891934394836426,0,0,0.4586400091648102
0.254473426,0,0,1.4891934394836426,0,0,0.4586400091648102
0.254706275,0,0,1.6687586307525635,0,0,0.611519992351532
0.254939643,0,0,1.6687586307525635,0,0,1.223039984703064
0.255190159,0,0,1.6687586307525635,0,0,1.223039984703064
0.255406508,0,0,1.6687586307525635,0,0,1.070159912109375
0.255639691,0,0,1.4508862495422363,0,0,0.9172800183296204
0.255872799,0,0,1.4508862495422363,0,0,0.4586400091648102
0.256105723,0,0,1.4508862495422363,0,0,0.4586400091648102
0.256338461,0,0,1.4508862495422363,0,0,0.3822000026702881
0.256572218,0,0,1.5490485429763794,0,0,0.611519992351532
0.256805308,0,0,1.5490485429763794,0,0,0.611519992351532
0.257038398,0,0,1.5490485429763794,0,0,0.8408399820327759
0.257271543,0,0,1.5490485429763794,0,0,0.4586400091648102
0.257507819,0,0,1.5490485429763794,0,0,0.6879600286483765
0.257740816,0,0,1.5897499322891235,0,0,0.6879600286483765
0.257973925,0,0,1.5897499322891235,0,0,1.223039984703064
0.258206848,0,0,1.5897499322891235,0,0,1.223039984703064
0.258446419,0,0,1.5897499322891235,0,0,0.9937199950218201
0.258676769,0,0,1.2952631711959839,0,0,0.9937199950218201
0.259014987,0,0,1.2952631711959839,0,0,0.4586400091648102
0.259146115,0,0,1.2952631711959839,0,0,1.452359914779663
0.259378057,0,0,1.2952631711959839,0,0,1.452359914779663
0.259611907,0,0,1.3431471586227417,0,0,0.9172800183296204
0.2598452,0,0,1.3431471586227417,0,0,1.070159912109375
0.26007792,0,0,1.3431471586227417,0,0,1.223039984703064
0.260310899,0,0,1.3431471586227417,0,0,1.223039984703064
0.260543748,0,0,1.2066776752471924,0,0,0.305759996175766
0.260777153,0,0,1.2066776752471924,0,0,0.8408399820327759
0.261010373,0,0,1.2066776752471924,0,0,0.8408399820327759
0.261243537,0,0,1.2066776752471924,0,0,0.8408399820327759
0.261502312,0,0,1.2066776752471924,0,0,0.9172800183296204
0.261736235,0,0,1.3311761617660522,0,0,0.9172800183296204
0.261969288,0,0,1.3311761617660522,0,0,0.9172800183296204
0.262202638,0,0,1.3311761617660522,0,0,9.478560447692871
0.262435431,0,0,1.3311761617660522,0,0,0.9937199950218201
0.262668484,0,0,1.3694833517074585,0,0,0.9172800183296204
0.262901667,0,0,1.3694833517074585,0,0,0.9172800183296204
0.26313485,0,0,1.3694833517074585,0,0,0.9937199950218201
0.263367606,0,0,1.3694833517074585,0,0,0.9937199950218201
0.26360053,0,0,1.381454348564148,0,0,0.9937199950218201
0.263834379,0,0,1.381454348564148,0,0,0.4586400091648102
0.264067265,0,0,1.381454348564148,0,0,0.4586400091648102
0.2642998,0,0,1.381454348564148,0,0,0.6879600286483765
0.264532779,0,0,1.5538369417190552,0,0,0.6879600286483765
0.264765795,0,0,1.5538369417190552,0,0,0.611519992351532
0.264998792,0,0,1.5538369417190552,0,0,0.5350799560546875
0.265231901,0,0,1.5538369417190552,0,0,0.9937199950218201
0.265479824,0,0,1.5538369417190552,0,0,0.9937199950218201
0.265705303,0,0,1.6352397203445435,0,0,1.2994799613952637
0.26593543,0,0,1.6352397203445435,0,0,1.070159912109375
0.266168261,0,0,1.6352397203445435,0,0,1.070159912109375
0.266401425,0,0,1.6352397203445435,0,0,0.152879998087883
0.26663433,0,0,1.6089035272598267,0,0,0
0.266867198,0,0,1.6089035272598267,0,0,0.8408399820327759
0.267100658,0,0,1.6089035272598267,0,0,0.8408399820327759
0.267333433,0,0,1.6089035272598267,0,0,0.9172800183296204
0.267566561,0,0,1.659181833267212,0,0,0.2293200045824051
0.267799502,0,0,1.659181833267212,0,0,0.2293200045824051
0.268033074,0,0,1.659181833267212,0,0,1.9874399900436401
0.268266071,0,0,1.659181833267212,0,0,1.375920057296753
0.268499143,0,0,1.659181833267212,0,0,1.070159912109375
0.268732307,0,0,1.50355863571167,0,0,1.070159912109375
0.268965397,0,0,1.50355863571167,0,0,0.305759996175766
0.269198339,0,0,1.50355863571167,0,0,0.4586400091648102
0.269430966,0,0,1.50355863571167,0,0,0.9172800183296204
0.269664908,0,0,1.3742717504501343,0,0,0.9172800183296204
0.26989785,0,0,1.3742717504501343,0,0,1.223039984703064
0.270131551,0,0,1.3742717504501343,0,0,0.6879600286483765
0.270364752,0,0,1.3742717504501343,0,0,0.6879600286483765
0.270597898,0,0,1.3407529592514038,0,0,0.7644000053405762
0.270830877,0,0,1.3407529592514038,0,0,1.1466000080108643
0.271063708,0,0,1.3407529592514038,0,0,0.611519992351532
0.27129702,0,0,1.3407529592514038,0,0,0.611519992351532
0.271529943,0,0,1.3048399686813354,0,0,1.223039984703064
0.271763107,0,0,1.3048399686813354,0,0,1.452359914779663
0.271996549,0,0,1.3048399686813354,0,0,1.452359914779663
0.272229713,0,0,1.3048399686813354,0,0,0.305759996175766
0.272462785,0,0,1.3048399686813354,0,0,0.5350799560546875
0.27269556,0,0,1.3910311460494995,0,0,0.5350799560546875
0.27293478,0,0,1.3910311460494995,0,0,0.5350799560546875
0.273165277,0,0,1.3910311460494995,0,0,0.9937199950218201
0.273398645,0,0,1.3910311460494995,0,0,0.6879600286483765
0.273632735,0,0,1.5107412338256836,0,0,0.6879600286483765
0.273865881,0,0,1.5107412338256836,0,0,0.7644000053405762
0.274099211,0,0,1.5107412338256836,0,0,1.223039984703064
0.274333079,0,0,1.5107412338256836,0,0,0.611519992351532
0.274566484,0,0,1.4437036514282227,0,0,0.611519992351532
0.274799352,0,0,1.4437036514282227,0,0,1.452359914779663
0.27503559,0,0,1.4437036514282227,0,0,1.070159912109375
0.275268495,0,0,1.4437036514282227,0,0,0.5350799560546875
0.275501622,0,0,1.4437036514282227,0,0,0.5350799560546875
0.275734749,0,0,1.4628572463989258,0,0,0.2293200045824051
0.275967969,0,0,1.4628572463989258,0,0,0.9937199950218201
0.276200911,0,0,1.4628572463989258,0,0,0.9937199950218201
0.276434538,0,0,1.4628572463989258,0,0,1.9874399900436401
0.276667795,0,0,1.601720929145813,0,0,0.5350799560546875
0.276900959,0,0,1.601720929145813,0,0,0.305759996175766
0.277133752,0,0,1.601720929145813,0,0,0.305759996175766
0.277367046,0,0,1.601720929145813,0,0,0.9937199950218201
0.277602044,0,0,1.4772224426269531,0,0,1.070159912109375
0.27783393,0,0,1.4772224426269531,0,0,1.070159912109375
0.278066909,0,0,1.4772224426269531,0,0,0.7644000053405762
0.278300277,0,0,1.4772224426269531,0,0,0
0.278534163,0,0,1.4772224426269531,0,0,1.070159912109375
0.278767123,0,0,1.6950948238372803,0,0,1.070159912109375
0.279000232,0,0,1.6950948238372803,0,0,1.223039984703064
0.279233526,0,0,1.6950948238372803,0,0,1.452359914779663
0.27946669,0,0,1.6950948238372803,0,0,1.1466000080108643
0.279700187,0,0,1.381454348564148,0,0,1.1466000080108643
0.279933296,0,0,1.381454348564148,0,0,0.4586400091648102
0.280172849,0,0,1.381454348564148,0,0,1.1466000080108643
0.280402902,0,0,1.381454348564148,0,0,1.1466000080108643
0.280636622,0,0,1.3455413579940796,0,0,1.070159912109375
0.280869545,0,0,1.3455413579940796,0,0,0.5350799560546875
0.281102931,0,0,1.3455413579940796,0,0,0.9172800183296204
0.281335762,0,0,1.3455413579940796,0,0,0.9172800183296204
0.281569834,0,0,1.357512354850769,0,0,1.8345600366592407
0.281802757,0,0,1.357512354850769,0,0,0.8408399820327759
0.28203544,0,0,1.357512354850769,0,0,0.8408399820327759
0.282268826,0,0,1.357512354850769,0,0,0.9172800183296204
0.282501768,0,0,1.357512354850769,0,0,1.2994799613952637
0.282735488,0,0,1.359906554222107,0,0,1.2994799613952637
0.282968355,0,0,1.359906554222107,0,0,1.2994799613952637
0.283201408,0,0,1.359906554222107,0,0,0.611519992351532
0.283434461,0,0,1.359906554222107,0,0,0.152879998087883
0.283667477,0,0,1.3239935636520386,0,0,0.611519992351532
0.283900697,0,0,1.3239935636520386,0,0,0.611519992351532
0.284134139,0,0,1.3239935636520386,0,0,0.9172800183296204
0.284367322,0,0,1.3239935636520386,0,0,0.5350799560546875
0.28460006,0,0,1.3742717504501343,0,0,0.5350799560546875
0.284834409,0,0,1.3742717504501343,0,0,1.5288000106811523
0.285067518,0,0,1.3742717504501343,0,0,0.2293200045824051
0.285300589,0,0,1.3742717504501343,0,0,0.5350799560546875
0.285537383,0,0,1.3742717504501343,0,0,0.5350799560546875
0.285771214,0,0,1.4293384552001953,0,0,0.6879600286483765
0.286002581,0,0,1.4293384552001953,0,0,0.4586400091648102
0.286235672,0,0,1.4293384552001953,0,0,0.4586400091648102
0.286468669,0,0,1.4293384552001953,0,0,0.152879998087883
0.286701481,0,0,1.5394717454910278,0,0,0.8408399820327759
0.286962515,0,0,1.5394717454910278,0,0,0.8408399820327759
0.287195791,0,0,1.5394717454910278,0,0,0.8408399820327759
0.287435881,0,0,1.5394717454910278,0,0,0.9937199950218201
0.287665841,0,0,1.5418659448623657,0,0,0.6879600286483765
0.287899542,0,0,1.5418659448623657,0,0,0.152879998087883
0.288132688,0,0,1.5418659448623657,0,0,0.152879998087883
0.288365815,0,0,1.5418659448623657,0,0,0.152879998087883
0.288613368,0,0,1.5514427423477173,0,0,0.9937199950218201
0.288832995,0,0,1.5514427423477173,0,0,0.9937199950218201
0.289066307,0,0,1.5514427423477173,0,0,0.8408399820327759
0.289299471,0,0,1.5514427423477173,0,0,0.5350799560546875
0.289534598,0,0,1.5514427423477173,0,0,0.9937199950218201
0.289767633,0,0,1.6160861253738403,0,0,0.9937199950218201
0.290001075,0,0,1.6160861253738403,0,0,0.305759996175766
0.290236128,0,0,1.6160861253738403,0,0,0.9172800183296204
0.290469699,0,0,1.6160861253738403,0,0,0.7644000053405762
0.290702752,0,0,1.3670891523361206,0,0,0.7644000053405762
0.29093562,0,0,1.3670891523361206,0,0,0.8408399820327759
0.291169507,0,0,1.3670891523361206,0,0,1.070159912109375
0.29140293,0,0,1.3670891523361206,0,0,1.070159912109375
0.291635705,0,0,1.3431471586227417,0,0,1.2994799613952637
0.291868906,0,0,1.3431471586227417,0,0,0.9172800183296204
0.292102885,0,0,1.3431471586227417,0,0,0.9937199950218201
0.292335827,0,0,1.3431471586227417,0,0,0.9937199950218201
0.292569139,0,0,1.3886369466781616,0,0,0.4586400091648102
0.292802359,0,0,1.3886369466781616,0,0,1.1466000080108643
0.293035375,0,0,1.3886369466781616,0,0,1.1466000080108643
0.293269076,0,0,1.3886369466781616,0,0,1.070159912109375
0.29353437,0,0,1.3886369466781616,0,0,0.3822000026702881
0.293769404,0,0,1.292868971824646,0,0,0.611519992351532
0.294003031,0,0,1.292868971824646,0,0,0.611519992351532
0.294237492,0,0,1.292868971824646,0,0,1.375920057296753
0.294471045,0,0,1.292868971824646,0,0,0.6879600286483765
0.294713227,0,0,1.4508862495422363,0,0,0.9172800183296204
0.294942002,0,0,1.4508862495422363,0,0,0.9172800183296204
0.295175944,0,0,1.4508862495422363,0,0,1.6816799640655518
0.295409368,0,0,1.4508862495422363,0,0,0.5350799560546875
0.295642624,0,0,1.3910311460494995,0,0,0.9172800183296204
0.295876288,0,0,1.3910311460494995,0,0,0.9172800183296204
0.296109823,0,0,1.3910311460494995,0,0,0.2293200045824051
0.296344098,0,0,1.3910311460494995,0,0,0.611519992351532
0.296577318,0,0,1.5538369417190552,0,0,0.611519992351532
0.296811556,0,0,1.5538369417190552,0,0,0.6879600286483765
0.297045368,0,0,1.5538369417190552,0,0,1.070159912109375
0.297278366,0,0,1.5538369417190552,0,0,0.5350799560546875
0.297512511,0,0,1.5538369417190552,0,0,0.5350799560546875
0.297743287,0,0,1.7046716213226318,0,0,0.8408399820327759
0.297974451,0,0,1.7046716213226318,0,0,0.6879600286483765
0.298205282,0,0,1.7046716213226318,0,0,-9.096360206604004
0.298437335,0,0,1.7046716213226318,0,0,-29.582279205322266
0.29866848,0,0,1.534683346748352,0,0,0.3822000026702881
0.298899459,0,0,1.534683346748352,0,0,0.9172800183296204
0.299130697,0,0,1.534683346748352,0,0,0.9172800183296204
0.299361584,0,0,1.534683346748352,0,0,1.6816799640655518
0.299593192,0,0,1.5658079385757446,0,0,0.611519992351532
0.299826486,0,0,1.5658079385757446,0,0,0.611519992351532
0.300061132,0,0,1.5658079385757446,0,0,0.611519992351532
0.300290333,0,0,1.5658079385757446,0,0,0.305759996175766
0.300522238,0,0,1.5658079385757446,0,0,1.223039984703064
0.30075355,0,0,1.434126853942871,0,0,1.223039984703064
0.300984677,0,0,1.434126853942871,0,0,1.2994799613952637
0.301215897,0,0,1.434126853942871,0,0,0.9172800183296204
0.30144682,0,0,1.434126853942871,0,0,0.6879600286483765
0.301681781,0,0,1.2832920551300049,0,0,0.6879600286483765
0.301924667,0,0,1.2832920551300049,0,0,0.4586400091648102
0.302151757,0,0,1.2832920551300049,0,0,0.5350799560546875
0.302384866,0,0,1.2832920551300049,0,0,0.5350799560546875
0.302618789,0,0,1.3886369466781616,0,0,0.7644000053405762
0.302851731,0,0,1.3886369466781616,0,0,1.5288000106811523
0.303084895,0,0,1.3886369466781616,0,0,0.8408399820327759
0.303318207,0,0,1.3886369466781616,0,0,0.8408399820327759
0.303551149,0,0,1.3886369466781616,0,0,0.305759996175766
0.303784887,0,0,1.414973258972168,0,0,0.8408399820327759
0.304017996,0,0,1.414973258972168,0,0,0.8408399820327759
0.304250975,0,0,1.414973258972168,0,0,0.9937199950218201
0.304484139,0,0,1.414973258972168,0,0,0.6879600286483765
0.30471797,0,0,1.3455413579940796,0,0,0.9172800183296204
0.304951171,0,0,1.3455413579940796,0,0,0.9172800183296204
0.305184039,0,0,1.3455413579940796,0,0,0.5350799560546875
0.305417055,0,0,1.3455413579940796,0,0,0.6879600286483765
0.305650274,0,0,1.403002142906189,0,0,0.6879600286483765
0.305883679,0,0,1.403002142906189,0,0,0.8408399820327759
0.306116954,0,0,1.403002142906189,0,0,0.4586400091648102
0.306350211,0,0,1.403002142906189,0,0,0.9172800183296204
0.306583486,0,0,1.556231141090393,0,0,0.9172800183296204
0.306816854,0,0,1.556231141090393,0,0,0.6879600286483765
0.307049889,0,0,1.556231141090393,0,0,0.5350799560546875
0.30728259,0,0,1.556231141090393,0,0,0.7644000053405762
0.307515643,0,0,1.556231141090393,0,0,0.7644000053405762
0.307748826,0,0,1.580173134803772,0,0,0.9937199950218201
0.307982471,0,0,1.580173134803772,0,0,0.9172800183296204
0.308215598,0,0,1.580173134803772,0,0,0.9172800183296204
0.308448522,0,0,1.580173134803772,0,0,1.5288000106811523
0.308682038,0,0,1.6735470294952393,0,0,0.9172800183296204
0.308915609,0,0,1.6735470294952393,0,0,0.7644000053405762
0.309154829,0,0,1.6735470294952393,0,0,0.7644000053405762
0.309384882,0,0,1.6735470294952393,0,0,1.1466000080108643
0.309619972,0,0,1.5682021379470825,0,0,0.6879600286483765
0.309852877,0,0,1.5682021379470825,0,0,0.6879600286483765
0.310086578,0,0,1.5682021379470825,0,0,2.3696401119232178
0.310319168,0,0,1.5682021379470825,0,0,0.6879600286483765
0.31055261,0,0,1.5682021379470825,0,0,0.6879600286483765
0.310785626,0,0,1.6759412288665771,0,0,0.6879600286483765
0.311019457,0,0,1.6759412288665771,0,0,1.9874399900436401
0.311252787,0,0,1.6759412288665771,0,0,0.4586400091648102
0.311485822,0,0,1.6759412288665771,0,0,0.7644000053405762
0.311718782,0,0,1.5275006294250488,0,0,0.7644000053405762
0.311951946,0,0,1.5275006294250488,0,0,0.7644000053405762
0.312185203,0,0,1.5275006294250488,0,0,0.8408399820327759
0.312418386,0,0,1.5275006294250488,0,0,0.8408399820327759
0.31265155,0,0,1.3934253454208374,0,0,0.7644000053405762
0.31288451,0,0,1.3934253454208374,0,0,0.9937199950218201
0.313118415,0,0,1.3934253454208374,0,0,0.6879600286483765
0.31335145,0,0,1.3934253454208374,0,0,0.6879600286483765
0.313585354,0,0,1.3527239561080933,0,0,0.5350799560546875
0.313817704,0,0,1.3527239561080933,0,0,1.1466000080108643
0.314050497,0,0,1.3527239561080933,0,0,1.1466000080108643
0.31428355,0,0,1.3527239561080933,0,0,0.5350799560546875
0.314516937,0,0,1.3527239561080933,0,0,1.452359914779663
0.314750323,0,0,1.2761094570159912,0,0,0.611519992351532
0.314983728,0,0,1.2761094570159912,0,0,0.611519992351532
0.315217448,0,0,1.2761094570159912,0,0,0.305759996175766
0.315450797,0,0,1.2761094570159912,0,0,0.6879600286483765
0.315683702,0,0,1.4053963422775269,0,0,0.6879600286483765
0.31591657,0,0,1.4053963422775269,0,0,0.9172800183296204
0.316149438,0,0,1.4053963422775269,0,0,1.070159912109375
0.316389157,0,0,1.4053963422775269,0,0,0.9937199950218201
0.316619358,0,0,1.434126853942871,0,0,0.9937199950218201
0.316852097,0,0,1.434126853942871,0,0,-0.5350799560546875
0.317085316,0,0,1.434126853942871,0,0,0.7644000053405762
0.317319221,0,0,1.434126853942871,0,0,0.7644000053405762
0.317553607,0,0,1.434126853942871,0,0,0.7644000053405762
0.317786086,0,0,1.50355863571167,0,0,0.7644000053405762
0.318019232,0,0,1.50355863571167,0,0,0.8408399820327759
0.318252581,0,0,1.50355863571167,0,0,0.8408399820327759
0.318485579,0,0,1.50355863571167,0,0,1.5288000106811523
0.318718521,0,0,1.5849615335464478,0,0,0.8408399820327759
0.318951759,0,0,1.5849615335464478,0,0,0.611519992351532
0.319184756,0,0,1.5849615335464478,0,0,0.611519992351532
0.319418587,0,0,1.5849615335464478,0,0,0.5350799560546875
0.319651196,0,0,1.656787633895874,0,0,1.223039984703064
0.319884563,0,0,1.656787633895874,0,0,1.223039984703064
0.320117542,0,0,1.656787633895874,0,0,0.611519992351532
0.320350355,0,0,1.656787633895874,0,0,0
0.320583889,0,0,1.5418659448623657,0,0,0.5350799560546875
0.32081685,0,0,1.5418659448623657,0,0,0.5350799560546875
0.321049828,0,0,1.5418659448623657,0,0,0.6879600286483765
0.32128303,0,0,1.5418659448623657,0,0,0.4586400091648102
0.321517768,0,0,1.5418659448623657,0,0,0.9172800183296204
0.321749858,0,0,1.5682021379470825,0,0,0.9172800183296204
0.321982726,0,0,1.5682021379470825,0,0,1.375920057296753
0.322215834,0,0,1.5682021379470825,0,0,1.223039984703064
0.322448813,0,0,1.5682021379470825,0,0,1.223039984703064
0.322681903,0,0,1.41257905960083,0,0,0.0764399990439415
0.32291453,0,0,1.41257905960083,0,0,0.5350799560546875
0.323147528,0,0,1.41257905960083,0,0,0.8408399820327759
0.323380562,0,0,1.41257905960083,0,0,0.8408399820327759
0.323620374,0,0,1.3934253454208374,0,0,1.223039984703064
0.323850279,0,0,1.3934253454208374,0,0,0.8408399820327759
0.324083332,0,0,1.3934253454208374,0,0,0.8408399820327759
0.324316182,0,0,1.3934253454208374,0,0,0.2293200045824051
0.324548735,0,0,1.3934253454208374,0,0,1.1466000080108643
0.324782232,0,0,1.4221558570861816,0,0,0.6879600286483765
0.325015341,0,0,1.4221558570861816,0,0,0.6879600286483765
0.325248709,0,0,1.4221558570861816,0,0,1.452359914779663
0.325499687,0,0,1.4221558570861816,0,0,1.070159912109375
0.32573324,0,0,1.2545616626739502,0,0,1.1466000080108643
0.325966627,0,0,1.2545616626739502,0,0,1.1466000080108643
0.326199828,0,0,1.2545616626739502,0,0,0.305759996175766
0.326432881,0,0,1.2545616626739502,0,0,0.2293200045824051
0.326667119,0,0,1.3503297567367554,0,0,0.2293200045824051
0.326899246,0,0,1.3503297567367554,0,0,0.9937199950218201
0.32713204,0,0,1.3503297567367554,0,0,1.375920057296753
0.327365611,0,0,1.3503297567367554,0,0,0.2293200045824051
0.327597813,0,0,1.436521053314209,0,0,0.2293200045824051
0.327831588,0,0,1.436521053314209,0,0,9.478560447692871
0.328064733,0,0,1.436521053314209,0,0,0.6879600286483765
0.328298286,0,0,1.436521053314209,0,0,0.6879600286483765
0.328548117,0,0,1.436521053314209,0,0,0.9172800183296204
0.328765559,0,0,1.4939818382263184,0,0,9.631440162658691
0.328997797,0,0,1.4939818382263184,0,0,0.5350799560546875
0.329230591,0,0,1.4939818382263184,0,0,0.5350799560546875
0.329478311,0,0,1.4939818382263184,0,0,0.8408399820327759
0.32969703,0,0,1.623268723487854,0,0,0.3822000026702881
0.32993075,0,0,1.623268723487854,0,0,0.611519992351532
0.330163914,0,0,1.623268723487854,0,0,0.611519992351532
0.330396375,0,0,1.623268723487854,0,0,0.7644000053405762
0.330629354,0,0,1.556231141090393,0,0,0.4586400091648102
0.330869795,0,0,1.556231141090393,0,0,0.4586400091648102
0.3310987,0,0,1.556231141090393,0,0,-0.9172800183296204
0.331332031,0,0,1.556231141090393,0,0,0.5350799560546875
0.331564695,0,0,1.556231141090393,0,0,1.070159912109375
0.331797563,0,0,1.522712230682373,0,0,1.070159912109375
0.332031523,0,0,1.522712230682373,0,0,1.758120059967041
0.332264188,0,0,1.522712230682373,0,0,0.3822000026702881
0.332497426,0,0,1.522712230682373,0,0,0.3822000026702881
0.332730331,0,0,1.6496049165725708,0,0,0.7644000053405762
0.332964735,0,0,1.6496049165725708,0,0,0.7644000053405762
0.333197381,0,0,1.6496049165725708,0,0,0.9172800183296204
0.333430823,0,0,1.6496049165725708,0,0,0.9172800183296204
0.33366382,0,0,1.381454348564148,0,0,1.070159912109375
0.333896892,0,0,1.381454348564148,0,0,0.7644000053405762
0.334130741,0,0,1.381454348564148,0,0,1.223039984703064
0.334363646,0,0,1.381454348564148,0,0,1.223039984703064
0.334596625,0,0,1.3742717504501343,0,0,1.070159912109375
0.3348294,0,0,1.3742717504501343,0,0,0.6879600286483765
0.335063398,0,0,1.3742717504501343,0,0,0.6879600286483765
0.335296228,0,0,1.3742717504501343,0,0,0.7644000053405762
0.335529337,0,0,1.3742717504501343,0,0,0.8408399820327759
0.335762316,0,0,1.292868971824646,0,0,0.8408399820327759
0.335995036,0,0,1.292868971824646,0,0,0.8408399820327759
0.336229255,0,0,1.292868971824646,0,0,1.605239987373352
0.336464605,0,0,1.292868971824646,0,0,0.611519992351532
0.33669988,0,0,1.216254472732544,0,0,0.611519992351532
0.336934803,0,0,1.216254472732544,0,0,2.06387996673584
0.337171986,0,0,1.216254472732544,0,0,0.8408399820327759
0.337407631,0,0,1.216254472732544,0,0,0.7644000053405762
0.337642944,0,0,1.3718775510787964,0,0,0.7644000053405762
0.337876589,0,0,1.3718775510787964,0,0,-0.3822000026702881
0.338122846,0,0,1.3718775510787964,0,0,1.070159912109375
0.338352232,0,0,1.3718775510787964,0,0,0.8408399820327759
0.338586581,0,0,1.3718775510787964,0,0,0.8408399820327759
0.33882256,0,0,1.400607943534851,0,0,0.8408399820327759
0.339057391,0,0,1.400607943534851,0,0,0.8408399820327759
0.339292,0,0,1.400607943534851,0,0,0.8408399820327759
0.339526423,0,0,1.400607943534851,0,0,0.3822000026702881
0.339760754,0,0,1.5275006294250488,0,0,0.152879998087883
0.339994511,0,0,1.5275006294250488,0,0,0.6879600286483765
0.340228582,0,0,1.5275006294250488,0,0,0.6879600286483765
0.340462635,0,0,1.5275006294250488,0,0,0.3822000026702881
0.340696595,0,0,1.580173134803772,0,0,1.375920057296753
0.340930648,0,0,1.580173134803772,0,0,0.8408399820327759
0.341165942,0,0,1.580173134803772,0,0,0.8408399820327759
0.341402254,0,0,1.580173134803772,0,0,0.6879600286483765
0.341637011,0,0,1.5418659448623657,0,0,0.0764399990439415
0.341869083,0,0,1.5418659448623657,0,0,0.0764399990439415
0.342100765,0,0,1.5418659448623657,0,0,0.3822000026702881
0.342331874,0,0,1.5418659448623657,0,0,1.1466000080108643
0.342565501,0,0,1.5418659448623657,0,0,0.6879600286483765
0.342796795,0,0,1.580173134803772,0,0,0.6879600286483765
0.343030663,0,0,1.580173134803772,0,0,0.611519992351532
0.343261716,0,0,1.580173134803772,0,0,1.452359914779663
0.343493287,0,0,1.580173134803772,0,0,1.452359914779663
0.343725044,0,0,1.5969325304031372,0,0,0.9937199950218201
0.34395669,0,0,1.5969325304031372,0,0,1.223039984703064
0.344188335,0,0,1.5969325304031372,0,0,1.070159912109375
0.344420388,0,0,1.5969325304031372,0,0,1.070159912109375
0.344663311,0,0,1.3694833517074585,0,0,0.4586400091648102
0.344894327,0,0,1.3694833517074585,0,0,0.9172800183296204
0.345126992,0,0,1.3694833517074585,0,0,0.7644000053405762
0.34537497,0,0,1.3694833517074585,0,0,0.7644000053405762
0.34560806,0,0,1.3192051649093628,0,0,1.758120059967041
0.345843873,0,0,1.3192051649093628,0,0,0.7644000053405762
0.346084611,0,0,1.3192051649093628,0,0,0.7644000053405762
0.346318182,0,0,1.3192051649093628,0,0,1.223039984703064
0.346554772,0,0,1.3192051649093628,0,0,0.6879600286483765
0.346911379,0,0,1.3215993642807007,0,0,1.223039984703064
0.347145488,0,0,1.3215993642807007,0,0,0.611519992351532
0.347379597,0,0,1.3215993642807007,0,0,0.611519992351532
0.347615187,0,0,1.2976573705673218,0,0,0.611519992351532
0.34785161,0,0,1.2976573705673218,0,0,0.9937199950218201
0.3480862,0,0,1.2976573705673218,0,0,0.3822000026702881
0.348322327,0,0,1.2976573705673218,0,0,0.3822000026702881
0.348556065,0,0,1.2976573705673218,0,0,1.758120059967041
0.348793303,0,0,1.4197616577148438,0,0,0.9172800183296204
0.349029319,0,0,1.4197616577148438,0,0,0.611519992351532
0.349264798,0,0,1.4197616577148438,0,0,0.611519992351532
0.349520444,0,0,1.4197616577148438,0,0,0.4586400091648102
0.349754774,0,0,1.4867992401123047,0,0,0.5350799560546875
0.349985753,0,0,1.4867992401123047,0,0,0.611519992351532
0.350219103,0,0,1.4867992401123047,0,0,0.611519992351532
0.350452582,0,0,1.4867992401123047,0,0,-0.611519992351532
0.350686246,0,0,1.5729905366897583,0,0,0.6879600286483765
0.350919891,0,0,1.5729905366897583,0,0,0.6879600286483765
0.351387812,0,0,1.5729905366897583,0,0,1.070159912109375
0.351620458,0,0,1.5969325304031372,0,0,1.223039984703064
0.351853659,0,0,1.5969325304031372,0,0,1.223039984703064
0.352088249,0,0,1.5969325304031372,0,0,0.305759996175766
0.352321617,0,0,1.5969325304031372,0,0,0.152879998087883
0.352553373,0,0,1.5969325304031372,0,0,0.152879998087883
0.352789223,0,0,1.414973258972168,0,0,0.611519992351532
0.353036831,0,0,1.414973258972168,0,0,0.5350799560546875
0.353265125,0,0,1.414973258972168,0,0,1.223039984703064
0.353568529,0,0,1.414973258972168,0,0,0.9172800183296204
0.353806304,0,0,1.6160861253738403,0,0,0.9172800183296204
0.354045709,0,0,1.6160861253738403,0,0,1.9109998941421509
0.354281206,0,0,1.6160861253738403,0,0,0.9172800183296204
0.354516926,0,0,1.6160861253738403,0,0,0.6879600286483765
0.354753516,0,0,1.4891934394836426,0,0,0.6879600286483765
0.354991051,0,0,1.4891934394836426,0,0,1.2994799613952637
0.355224529,0,0,1.4891934394836426,0,0,0.9172800183296204
0.355458527,0,0,1.4891934394836426,0,0,0.9172800183296204
0.355693747,0,0,1.235408067703247,0,0,0.9172800183296204
0.355930392,0,0,1.235408067703247,0,0,0.8408399820327759
0.356163853,0,0,1.235408067703247,0,0,0.6879600286483765
0.356399054,0,0,1.235408067703247,0,0,0.6879600286483765
0.356634162,0,0,1.37906014919281,0,0,1.758120059967041
0.356869808,0,0,1.37906014919281,0,0,0.9172800183296204
0.357105601,0,0,1.37906014919281,0,0,0.5350799560546875
0.357339747,0,0,1.37906014919281,0,0,0.5350799560546875
0.357834316,0,0,1.400607943534851,0,0,0.6879600286483765
0.358062998,0,0,1.400607943534851,0,0,1.070159912109375
0.359331781,0,0,1.4077905416488647,0,0,0.5350799560546875
0.36033077,0,0,1.501164436340332,0,0,0.9172800183296204
0.36056299,0,0,1.501164436340332,0,0,0.9172800183296204
0.360793672,0,0,1.5275006294250488,0,0,1.1466000080108643
0.361024262,0,0,1.5275006294250488,0,0,0.5350799560546875
0.361255667,0,0,1.5275006294250488,0,0,0.5350799560546875
0.361529257,0,0,1.5275006294250488,0,0,1.6816799640655518
0.361759921,0,0,1.6304513216018677,0,0,0.9172800183296204
0.361994585,0,0,1.6304513216018677,0,0,0.9172800183296204
0.362240527,0,0,1.6304513216018677,0,0,0.9172800183296204
0.362504691,0,0,1.6304513216018677,0,0,0.9937199950218201
0.362710818,0,0,1.625662922859192,0,0,0.611519992351532
0.362940704,0,0,1.625662922859192,0,0,0.8408399820327759
0.363171998,0,0,1.625662922859192,0,0,0.8408399820327759
0.363403514,0,0,1.625662922859192,0,0,1.2994799613952637
0.363633956,0,0,1.5945383310317993,0,0,0.611519992351532
0.363864824,0,0,1.5945383310317993,0,0,0.611519992351532
0.364095803,0,0,1.5945383310317993,0,0,0.9172800183296204
0.364326412,0,0,1.5945383310317993,0,0,1.375920057296753
0.364557891,0,0,1.5945383310317993,0,0,0.4586400091648102
0.364789092,0,0,1.6112977266311646,0,0,0.4586400091648102
0.365019923,0,0,1.6112977266311646,0,0,1.2994799613952637
0.365250901,0,0,1.6112977266311646,0,0,0.8408399820327759
0.365504954,0,0,1.6112977266311646,0,0,0.6879600286483765
0.365734767,0,0,1.381454348564148,0,0,0.6879600286483765
0.365965838,0,0,1.381454348564148,0,0,0.9172800183296204
0.366196558,0,0,1.381454348564148,0,0,1.1466000080108643
0.367415415,0,0,1.3048399686813354,0,0,0.7644000053405762
0.367641172,0,0,1.3670891523361206,0,0,0.6879600286483765
0.367872465,0,0,1.3670891523361206,0,0,0.611519992351532
0.368103259,0,0,1.3670891523361206,0,0,1.070159912109375
0.368334164,0,0,1.3670891523361206,0,0,1.070159912109375
0.36856531,0,0,1.3670891523361206,0,0,9.478560447692871
0.368796733,0,0,1.3646949529647827,0,0,0.7644000053405762
0.369027379,0,0,1.3646949529647827,0,0,0.7644000053405762
0.369258247,0,0,1.3646949529647827,0,0,0.611519992351532
0.369513336,0,0,1.3646949529647827,0,0,0.7644000053405762
0.36974663,0,0,1.3335703611373901,0,0,0.7644000053405762
0.369976368,0,0,1.3335703611373901,0,0,0.7644000053405762
0.370207218,0,0,1.3335703611373901,0,0,1.070159912109375
0.370438437,0,0,1.3335703611373901,0,0,0.9172800183296204
0.370679546,0,0,1.316810965538025,0,0,0.8408399820327759
0.370905377,0,0,1.316810965538025,0,0,0.8408399820327759
0.371136115,0,0,1.316810965538025,0,0,1.223039984703064
0.371366742,0,0,1.316810965538025,0,0,0.9937199950218201
0.371597665,0,0,1.316810965538025,0,0,0.9937199950218201
0.371847218,0,0,1.53707754611969,0,0,0.4586400091648102
0.372060105,0,0,1.53707754611969,0,0,0.305759996175766
0.372290695,0,0,1.53707754611969,0,0,0.305759996175766
0.372521378,0,0,1.53707754611969,0,0,0.5350799560546875
0.372752227,0,0,1.6328455209732056,0,0,0.5350799560546875
0.372983576,0,0,1.6328455209732056,0,0,0.9937199950218201
0.373214055,0,0,1.6328455209732056,0,0,0.9937199950218201
0.37344496,0,0,1.6328455209732056,0,0,1.9874399900436401
0.373676754,0,0,1.6112977266311646,0,0,1.1466000080108643
0.373907714,0,0,1.6112977266311646,0,0,1.1466000080108643
0.374138638,0,0,1.6112977266311646,0,0,0.4586400091648102
0.374369376,0,0,1.6112977266311646,0,0,0.9172800183296204
0.374600207,0,0,1.6112977266311646,0,0,0.7644000053405762
0.374830889,0,0,1.6376339197158813,0,0,0.7644000053405762
0.375062183,0,0,1.6376339197158813,0,0,1.452359914779663
0.375292996,0,0,1.6376339197158813,0,0,0.611519992351532
0.375523752,0,0,1.6376339197158813,0,0,0.611519992351532
0.375754324,0,0,1.5634137392044067,0,0,0.7644000053405762
0.375985784,0,0,1.5634137392044067,0,0,0.7644000053405762
0.376216319,0,0,1.5634137392044067,0,0,0.9937199950218201
0.376447094,0,0,1.5634137392044067,0,0,0.9937199950218201
0.37667774,0,0,1.314416766166687,0,0,1.605239987373352
0.376908663,0,0,1.314416766166687,0,0,0.6879600286483765
0.377139772,0,0,1.314416766166687,0,0,0.6879600286483765
0.377370473,0,0,1.314416766166687,0,0,0.7644000053405762
0.377601989,0,0,1.314416766166687,0,0,9.631440162658691
0.377840264,0,0,1.37906014919281,0,0,0.6879600286483765
0.378067687,0,0,1.37906014919281,0,0,0.6879600286483765
0.378308481,0,0,1.37906014919281,0,0,1.1466000080108643
0.378529923,0,0,1.37906014919281,0,0,1.6816799640655518
0.378760569,0,0,1.3934253454208374,0,0,0.9937199950218201
0.378991103,0,0,1.3934253454208374,0,0,0.9937199950218201
0.379222156,0,0,1.3934253454208374,0,0,1.375920057296753
0.379452876,0,0,1.3934253454208374,0,0,0.6879600286483765
0.379683429,0,0,1.3096283674240112,0,0,0.6879600286483765
0.379914371,0,0,1.3096283674240112,0,0,1.605239987373352
0.380146091,0,0,1.3096283674240112,0,0,0.3822000026702881
0.380376088,0,0,1.3096283674240112,0,0,0.3822000026702881
0.380606567,0,0,1.3096283674240112,0,0,0.6879600286483765
0.380837268,0,0,1.2713210582733154,0,0,0.4586400091648102
0.381068229,0,0,1.2713210582733154,0,0,0.9937199950218201
0.381299578,0,0,1.2713210582733154,0,0,0.9937199950218201
0.381533927,0,0,1.2713210582733154,0,0,1.9109998941421509
0.381764036,0,0,1.4173674583435059,0,0,0.2293200045824051
0.381994867,0,0,1.4173674583435059,0,0,0.2293200045824051
0.382225142,0,0,1.4173674583435059,0,0,0.7644000053405762
0.382456177,0,0,1.4173674583435059,0,0,0
0.382686822,0,0,1.6208745241165161,0,0,0.5350799560546875
0.382917505,0,0,1.6208745241165161,0,0,0.5350799560546875
0.38314791,0,0,1.6208745241165161,0,0,1.605239987373352
0.383379574,0,0,1.6208745241165161,0,0,0.4586400091648102
0.383610534,0,0,1.6208745241165161,0,0,0.4586400091648102
0.383841143,0,0,1.6089035272598267,0,0,0.9937199950218201
0.384071677,0,0,1.6089035272598267,0,0,0.611519992351532
0.384302397,0,0,1.6089035272598267,0,0,0.8408399820327759
0.384533191,0,0,1.6089035272598267,0,0,0.8408399820327759
0.384763614,0,0,1.5514427423477173,0,0,0.305759996175766
0.385000741,0,0,1.5514427423477173,0,0,1.070159912109375
0.385228109,0,0,1.5514427423477173,0,0,1.070159912109375
0.385477255,0,0,1.5514427423477173,0,0,0.9172800183296204
0.385694938,0,0,1.5275006294250488,0,0,0.6879600286483765
0.385924954,0,0,1.5275006294250488,0,0,0.9172800183296204
0.386155525,0,0,1.5275006294250488,0,0,0.9172800183296204
0.386386578,0,0,1.5275006294250488,0,0,0.8408399820327759
0.386617946,0,0,1.5275006294250488,0,0,0.152879998087883
0.386848314,0,0,1.45806884765625,0,0,1.070159912109375
0.387079256,0,0,1.45806884765625,0,0,1.070159912109375
0.387309883,0,0,1.45806884765625,0,0,0.9937199950218201
0.387609139,0,0,1.45806884765625,0,0,0.9172800183296204
0.387839747,0,0,1.3934253454208374,0,0,0.8408399820327759
0.388070282,0,0,1.3934253454208374,0,0,0.8408399820327759
0.388300891,0,0,1.3934253454208374,0,0,0.9172800183296204
0.388533573,0,0,1.3934253454208374,0,0,1.070159912109375
0.388762978,0,0,1.414973258972168,0,0,1.070159912109375
0.388993679,0,0,1.414973258972168,0,0,0.9172800183296204
0.389224343,0,0,1.414973258972168,0,0,0.4586400091648102
0.389469674,0,0,1.414973258972168,0,0,1.1466000080108643
0.389684227,0,0,1.4221558570861816,0,0,1.1466000080108643
0.389898243,0,0,1.4221558570861816,0,0,0
0.390112408,0,0,1.4221558570861816,0,0,1.070159912109375
0.390326535,0,0,1.4221558570861816,0,0,1.070159912109375
0.390540385,0,0,1.4221558570861816,0,0,0.3822000026702881
0.390754827,0,0,1.2401964664459229,0,0,0.9937199950218201
0.390968658,0,0,1.2401964664459229,0,0,0.9937199950218201
0.391182396,0,0,1.2401964664459229,0,0,0.8408399820327759
0.391396135,0,0,1.2401964664459229,0,0,0.7644000053405762
0.391610391,0,0,1.2401964664459229,0,0,0.7644000053405762
0.391824685,0,0,1.4317326545715332,0,0,0.0764399990439415
0.392045683,0,0,1.4317326545715332,0,0,1.1466000080108643
0.39225607,0,0,1.4317326545715332,0,0,1.1466000080108643
0.392469789,0,0,1.4317326545715332,0,0,0.5350799560546875
0.392683491,0,0,1.4245500564575195,0,0,0.305759996175766
0.39291034,0,0,1.4245500564575195,0,0,0.305759996175766
0.393111727,0,0,1.4245500564575195,0,0,1.070159912109375
0.393325725,0,0,1.4245500564575195,0,0,0.7644000053405762
0.393570666,0,0,1.4245500564575195,0,0,0.7644000053405762
0.393785627,0,0,1.5729905366897583,0,0,0.0764399990439415
0.393999328,0,0,1.5729905366897583,0,0,1.070159912109375
0.394213104,0,0,1.5729905366897583,0,0,1.070159912109375
0.394427064,0,0,1.5729905366897583,0,0,-0.4586400091648102
0.39464134,0,0,1.5729905366897583,0,0,0.7644000053405762
0.394855819,0,0,1.5466543436050415,0,0,0.7644000053405762
0.395070002,0,0,1.5466543436050415,0,0,0.8408399820327759
0.395284055,0,0,1.5466543436050415,0,0,0.6879600286483765
0.395497701,0,0,1.5466543436050415,0,0,0.6879600286483765
0.395711476,0,0,1.5490485429763794,0,0,0.611519992351532
0.39592603,0,0,1.5490485429763794,0,0,0.9172800183296204
0.396139675,0,0,1.5490485429763794,0,0,0.9172800183296204
0.396353673,0,0,1.5490485429763794,0,0,1.223039984703064
0.39656756,0,0,1.5490485429763794,0,0,0.9172800183296204
0.396781224,0,0,1.6879122257232666,0,0,0.9172800183296204
0.396995833,0,0,1.6879122257232666,0,0,0.2293200045824051
0.397209941,0,0,1.6879122257232666,0,0,1.2994799613952637
0.397423902,0,0,1.6879122257232666,0,0,1.2994799613952637
0.397638677,0,0,1.6879122257232666,0,0,0.8408399820327759
0.397851916,0,0,1.4915876388549805,0,0,0.9172800183296204
0.398066506,0,0,1.4915876388549805,0,0,0.9172800183296204
0.398280504,0,0,1.4915876388549805,0,0,1.070159912109375
0.398494094,0,0,1.4915876388549805,0,0,0.6879600286483765
0.398713666,0,0,1.3623007535934448,0,0,0.6879600286483765
0.398924534,0,0,1.3623007535934448,0,0,0.7644000053405762
0.399138828,0,0,1.3623007535934448,0,0,0.7644000053405762
0.3993529,0,0,1.3623007535934448,0,0,0.9172800183296204
0.399566879,0,0,1.3623007535934448,0,0,0.305759996175766
0.399781024,0,0,1.3287819623947144,0,0,0.305759996175766
0.399994781,0,0,1.3287819623947144,0,0,1.452359914779663
0.400209149,0,0,1.3287819623947144,0,0,0
0.400423129,0,0,1.3287819623947144,0,0,0
0.400636737,0,0,1.3287819623947144,0,0,0.6879600286483765
0.400850754,0,0,1.2832920551300049,0,0,0.3822000026702881
0.401064696,0,0,1.2832920551300049,0,0,0.3822000026702881
0.401278897,0,0,1.2832920551300049,0,0,0.8408399820327759
0.401506413,0,0,1.2832920551300049,0,0,0.9937199950218201
0.401719966,0,0,1.3670891523361206,0,0,0.9937199950218201
0.401933649,0,0,1.3670891523361206,0,0,0.6879600286483765
0.402147462,0,0,1.3670891523361206,0,0,0.152879998087883
0.402361811,0,0,1.3670891523361206,0,0,0.152879998087883
0.402575272,0,0,1.3670891523361206,0,0,1.9874399900436401
0.402789251,0,0,1.4437036514282227,0,0,0.9172800183296204
0.403003249,0,0,1.4437036514282227,0,0,0.9172800183296204
0.403217876,0,0,1.4437036514282227,0,0,0.7644000053405762
0.403431466,0,0,1.4437036514282227,0,0,0.6879600286483765
0.403645186,0,0,1.4437036514282227,0,0,0.6879600286483765
0.403858869,0,0,1.534683346748352,0,0,0.9172800183296204
0.404072848,0,0,1.534683346748352,0,0,0.9937199950218201
0.404287475,0,0,1.534683346748352,0,0,0.9937199950218201
0.404501528,0,0,1.534683346748352,0,0,1.9874399900436401
0.404714897,0,0,1.577778935432434,0,0,0.2293200045824051
0.404928987,0,0,1.577778935432434,0,0,0.2293200045824051
0.405142762,0,0,1.577778935432434,0,0,1.9109998941421509
0.405362815,0,0,1.577778935432434,0,0,1.1466000080108643
0.405576091,0,0,1.577778935432434,0,0,1.1466000080108643
0.405789811,0,0,1.6639702320098877,0,0,1.223039984703064
0.406003475,0,0,1.6639702320098877,0,0,0.0764399990439415
0.40621725,0,0,1.6639702320098877,0,0,0.0764399990439415
0.406432063,0,0,1.6639702320098877,0,0,1.070159912109375
0.406656468,0,0,1.6639702320098877,0,0,1.223039984703064
0.406860503,0,0,1.501164436340332,0,0,1.223039984703064
0.407074408,0,0,1.501164436340332,0,0,1.605239987373352
0.407288109,0,0,1.501164436340332,0,0,0.6879600286483765
0.407502866,0,0,1.501164436340332,0,0,0.6879600286483765
0.40771653,0,0,1.5729905366897583,0,0,1.1466000080108643
0.407930769,0,0,1.5729905366897583,0,0,0.2293200045824051
0.408144711,0,0,1.5729905366897583,0,0,0.2293200045824051
0.40835856,0,0,1.5729905366897583,0,0,1.375920057296753
0.408572966,0,0,1.5729905366897583,0,0,0.611519992351532
0.408787111,0,0,1.37906014919281,0,0,0.611519992351532
0.409000942,0,0,1.37906014919281,0,0,0.3822000026702881
0.409214977,0,0,1.37906014919281,0,0,0.6879600286483765
0.409428641,0,0,1.37906014919281,0,0,0.6879600286483765
0.409643232,0,0,1.37906014919281,0,0,2.2932000160217285
0.409865785,0,0,1.3000515699386597,0,0,1.1466000080108643
0.41007132,0,0,1.3000515699386597,0,0,1.1466000080108643
0.410285076,0,0,1.3000515699386597,0,0,1.1466000080108643
0.410498963,0,0,1.3000515699386597,0,0,0.4586400091648102
0.410713424,0,0,1.4173674583435059,0,0,0.4586400091648102
0.410927625,0,0,1.4173674583435059,0,0,0.5350799560546875
0.411141512,0,0,1.4173674583435059,0,0,0.9937199950218201
0.41135525,0,0,1.4173674583435059,0,0,0.9937199950218201
0.411569637,0,0,1.4173674583435059,0,0,0
0.411783505,0,0,1.2449848651885986,0,0,1.1466000080108643
0.412003224,0,0,1.2449848651885986,0,0,1.1466000080108643
0.412214092,0,0,1.2449848651885986,0,0,0.2293200045824051
0.412427942,0,0,1.2449848651885986,0,0,0.4586400091648102
0.412642717,0,0,1.2449848651885986,0,0,0.4586400091648102
0.412855678,0,0,1.316810965538025,0,0,0.9172800183296204
0.413069472,0,0,1.316810965538025,0,0,0.8408399820327759
0.413283692,0,0,1.316810965538025,0,0,0.8408399820327759
0.413514782,0,0,1.316810965538025,0,0,1.1466000080108643
0.413732094,0,0,1.3503297567367554,0,0,1.070159912109375
0.413948611,0,0,1.3503297567367554,0,0,1.070159912109375
0.414164534,0,0,1.3503297567367554,0,0,0.3822000026702881
0.414380698,0,0,1.3503297567367554,0,0,0.3822000026702881
0.414597011,0,0,1.3503297567367554,0,0,0.3822000026702881
0.414813657,0,0,1.5107412338256836,0,0,1.5288000106811523
0.415029617,0,0,1.5107412338256836,0,0,0.5350799560546875
0.415245856,0,0,1.5107412338256836,0,0,0.5350799560546875
0.415462094,0,0,1.5107412338256836,0,0,0.6879600286483765
0.415678314,0,0,1.6759412288665771,0,0,1.1466000080108643
0.415894793,0,0,1.6759412288665771,0,0,1.1466000080108643
0.416111142,0,0,1.6759412288665771,0,0,1.375920057296753
0.416327399,0,0,1.6759412288665771,0,0,0.8408399820327759
0.416543397,0,0,1.6759412288665771,0,0,0.8408399820327759
0.41675945,0,0,1.580173134803772,0,0,0.7644000053405762
0.416976077,0,0,1.580173134803772,0,0,0.9172800183296204
0.417192279,0,0,1.580173134803772,0,0,0.9172800183296204
0.417408351,0,0,1.580173134803772,0,0,0.0764399990439415
0.417624756,0,0,1.580173134803772,0,0,0.8408399820327759
0.417840753,0,0,1.6136919260025024,0,0,0.8408399820327759
0.418057566,0,0,1.6136919260025024,0,0,1.452359914779663
0.418273786,0,0,1.6136919260025024,0,0,0.9172800183296204
0.418490172,0,0,1.6136919260025024,0,0,0.9172800183296204
0.418713003,0,0,1.5298948287963867,0,0,0.305759996175766
0.418926908,0,0,1.5298948287963867,0,0,0.305759996175766
0.419143276,0,0,1.5298948287963867,0,0,0.305759996175766
0.419359051,0,0,1.5298948287963867,0,0,0.152879998087883
0.419575401,0,0,1.5298948287963867,0,0,0.6879600286483765
0.419791399,0,0,1.3239935636520386,0,0,0.6879600286483765
0.420008174,0,0,1.3239935636520386,0,0,1.8345600366592407
0.420224357,0,0,1.3239935636520386,0,0,0.305759996175766
0.42044954,0,0,1.3239935636520386,0,0,0.305759996175766
0.420656722,0,0,1.3239935636520386,0,0,1.2994799613952637
0.42087285,0,0,1.3311761617660522,0,0,1.1466000080108643
0.42108931,0,0,1.3311761617660522,0,0,1.1466000080108643
0.421305549,0,0,1.3311761617660522,0,0,0.7644000053405762
0.421523361,0,0,1.3311761617660522,0,0,0.5350799560546875
0.421739359,0,0,1.3694833517074585,0,0,0.5350799560546875
0.421955505,0,0,1.3694833517074585,0,0,0.5350799560546875
0.422172113,0,0,1.3694833517074585,0,0,1.375920057296753
0.422388444,0,0,1.3694833517074585,0,0,1.375920057296753
0.422604053,0,0,1.3694833517074585,0,0,0
0.422820532,0,0,1.3215993642807007,0,0,0.9937199950218201
0.423036789,0,0,1.3215993642807007,0,0,0.9937199950218201
0.423253731,0,0,1.3215993642807007,0,0,1.6816799640655518
0.42347034,0,0,1.3215993642807007,0,0,0.611519992351532
0.423686412,0,0,1.4484920501708984,0,0,0.611519992351532
0.423902724,0,0,1.4484920501708984,0,0,-0.9937199950218201
0.424118574,0,0,1.4484920501708984,0,0,0.305759996175766
0.424334942,0,0,1.4484920501708984,0,0,0.305759996175766
0.424551217,0,0,1.4484920501708984,0,0,1.605239987373352
0.424767344,0,0,1.45806884765625,0,0,0.3822000026702881
0.424983175,0,0,1.45806884765625,0,0,0.3822000026702881
0.425199136,0,0,1.45806884765625,0,0,1.758120059967041
0.425420985,0,0,1.45806884765625,0,0,0.9172800183296204
0.42563465,0,0,1.45806884765625,0,0,0.9172800183296204
0.425850647,0,0,1.5155296325683594,0,0,2.06387996673584
0.426066737,0,0,1.5155296325683594,0,0,0.5350799560546875
0.426283809,0,0,1.5155296325683594,0,0,0.5350799560546875
0.426499899,0,0,1.5155296325683594,0,0,0.6879600286483765
0.426715656,0,0,1.6280571222305298,0,0,1.5288000106811523
0.426931969,0,0,1.6280571222305298,0,0,1.5288000106811523
0.427147837,0,0,1.6280571222305298,0,0,1.452359914779663
0.427364353,0,0,1.6280571222305298,0,0,0
0.427580628,0,0,1.6280571222305298,0,0,0
0.427796552,0,0,1.5466543436050415,0,0,0.7644000053405762
0.428012846,0,0,1.5466543436050415,0,0,1.2994799613952637
0.428228992,0,0,1.5466543436050415,0,0,1.2994799613952637
0.428445915,0,0,1.5466543436050415,0,0,0
0.428661505,0,0,1.5466543436050415,0,0,0.9172800183296204
0.428877577,0,0,1.6543933153152466,0,0,0.9172800183296204
0.429093779,0,0,1.6543933153152466,0,0,-29.582279205322266
0.429309776,0,0,1.6543933153152466,0,0,0.9172800183296204
0.429527996,0,0,1.6543933153152466,0,0,0.9172800183296204
0.429742901,0,0,1.4987702369689941,0,0,0.8408399820327759
0.429958936,0,0,1.4987702369689941,0,0,0.7644000053405762
0.430174896,0,0,1.4987702369689941,0,0,0.7644000053405762
0.430390579,0,0,1.4987702369689941,0,0,0.305759996175766
0.430607318,0,0,1.4987702369689941,0,0,1.1466000080108643
0.430823741,0,0,1.3646949529647827,0,0,1.1466000080108643
0.431039683,0,0,1.3646949529647827,0,0,0.8408399820327759
0.431255885,0,0,1.3646949529647827,0,0,0.611519992351532
0.431471604,0,0,1.3646949529647827,0,0,0.611519992351532
0.431688121,0,0,1.2856862545013428,0,0,2.06387996673584
0.431904063,0,0,1.2856862545013428,0,0,1.375920057296753
0.432125468,0,0,1.2856862545013428,0,0,1.375920057296753
0.432338688,0,0,1.2856862545013428,0,0,0.9172800183296204
0.432554944,0,0,1.2856862545013428,0,0,0.152879998087883
0.432771053,0,0,1.2880805730819702,0,0,0.152879998087883
0.432987421,0,0,1.2880805730819702,0,0,0.4586400091648102
0.433203641,0,0,1.2880805730819702,0,0,1.1466000080108643
0.43341962,0,0,1.2880805730819702,0,0,1.1466000080108643
0.433637136,0,0,1.2880805730819702,0,0,0.6879600286483765
0.433852838,0,0,1.3455413579940796,0,0,0.305759996175766
0.434069058,0,0,1.3455413579940796,0,0,0.305759996175766
0.434293592,0,0,1.3455413579940796,0,0,0.8408399820327759
0.434501645,0,0,1.3455413579940796,0,0,0.2293200045824051
0.434717902,0,0,1.4437036514282227,0,0,0.3822000026702881
0.434934048,0,0,1.4437036514282227,0,0,0.3822000026702881
0.435150268,0,0,1.4437036514282227,0,0,1.375920057296753
0.43536621,0,0,1.4437036514282227,0,0,0.611519992351532
0.435582078,0,0,1.4437036514282227,0,0,0.611519992351532
0.435798724,0,0,1.5275006294250488,0,0,0.611519992351532
0.436014981,0,0,1.5275006294250488,0,0,0.6879600286483765
0.436231071,0,0,1.5275006294250488,0,0,0.6879600286483765
0.436447143,0,0,1.5275006294250488,0,0,0.8408399820327759
0.436663029,0,0,1.5275006294250488,0,0,0.0764399990439415
0.436879971,0,0,1.6304513216018677,0,0,0.0764399990439415
0.437096043,0,0,1.6304513216018677,0,0,1.375920057296753
0.437312337,0,0,1.6304513216018677,0,0,1.605239987373352
0.437529835,0,0,1.6304513216018677,0,0,1.605239987373352
0.437744666,0,0,1.6065093278884888,0,0,0.9937199950218201
0.437961237,0,0,1.6065093278884888,0,0,0.3822000026702881
0.43817755,0,0,1.6065093278884888,0,0,0.3822000026702881
0.43839351,0,0,1.6065093278884888,0,0,0.6879600286483765
0.438609452,0,0,1.6065093278884888,0,0,1.070159912109375
0.438830931,0,0,1.5490485429763794,0,0,1.070159912109375
0.439044559,0,0,1.5490485429763794,0,0,1.2994799613952637
0.439260593,0,0,1.5490485429763794,0,0,0.611519992351532
0.439476684,0,0,1.5490485429763794,0,0,0.611519992351532
0.439693033,0,0,1.6424223184585571,0,0,1.2994799613952637
0.43990966,0,0,1.6424223184585571,0,0,1.223039984703064
0.440124788,0,0,1.6424223184585571,0,0,1.223039984703064
0.440341211,0,0,1.6424223184585571,0,0,1.375920057296753
0.440557135,0,0,1.6424223184585571,0,0,0.6879600286483765
0.440772744,0,0,1.4197616577148438,0,0,0.6879600286483765
0.44098976,0,0,1.4197616577148438,0,0,0.611519992351532
0.441205794,0,0,1.4197616577148438,0,0,0.9172800183296204
0.441422255,0,0,1.4197616577148438,0,0,0.9172800183296204
0.441638956,0,0,1.4197616577148438,0,0,0.9172800183296204
0.44185501,0,0,1.316810965538025,0,0,0.6879600286483765
0.442071822,0,0,1.316810965538025,0,0,0.6879600286483765
0.442287468,0,0,1.316810965538025,0,0,0.7644000053405762
0.442503577,0,0,1.316810965538025,0,0,1.070159912109375
0.442719704,0,0,1.4532804489135742,0,0,1.070159912109375
0.442935905,0,0,1.4532804489135742,0,0,1.070159912109375
0.44315244,0,0,1.4532804489135742,0,0,0.6879600286483765
0.443368697,0,0,1.4532804489135742,0,0,0.6879600286483765
0.443585046,0,0,1.4532804489135742,0,0,1.2994799613952637
0.443801174,0,0,1.3886369466781616,0,0,1.2994799613952637
0.44401719,0,0,1.3886369466781616,0,0,1.2994799613952637
0.44423378,0,0,1.3886369466781616,0,0,0.305759996175766
0.444449741,0,0,1.3886369466781616,0,0,0.8408399820327759
0.444666146,0,0,1.3886369466781616,0,0,0.8408399820327759
0.444882477,0,0,1.2856862545013428,0,0,1.070159912109375
0.445098474,0,0,1.2856862545013428,0,0,0.7644000053405762
0.445315046,0,0,1.2856862545013428,0,0,0.7644000053405762
0.445557969,0,0,1.2856862545013428,0,0,0.9937199950218201
0.445770819,0,0,1.4724340438842773,0,0,0.6879600286483765
0.445987039,0,0,1.4724340438842773,0,0,0.6879600286483765
0.446203981,0,0,1.4724340438842773,0,0,1.375920057296753
0.446419645,0,0,1.4724340438842773,0,0,0.9172800183296204
0.446636143,0,0,1.4724340438842773,0,0,0.9172800183296204
0.446861436,0,0,1.4844050407409668,0,0,0
0.447069082,0,0,1.4844050407409668,0,0,0.9172800183296204
0.44728595,0,0,1.4844050407409668,0,0,0.9172800183296204
0.447502466,0,0,1.4844050407409668,0,0,1.605239987373352
0.447718649,0,0,1.5849615335464478,0,0,0.9172800183296204
0.447934647,0,0,1.5849615335464478,0,0,0.9172800183296204
0.448159052,0,0,1.5849615335464478,0,0,1.070159912109375
0.448367809,0,0,1.5849615335464478,0,0,1.1466000080108643
0.448583844,0,0,1.5849615335464478,0,0,1.1466000080108643
0.448800045,0,0,1.5490485429763794,0,0,0.6879600286483765
0.449016357,0,0,1.5490485429763794,0,0,0.152879998087883
0.449232448,0,0,1.5490485429763794,0,0,0.152879998087883
0.449465001,0,0,1.5490485429763794,0,0,0.9172800183296204
0.449666239,0,0,1.5490485429763794,0,0,1.070159912109375
0.449882255,0,0,1.5682021379470825,0,0,1.070159912109375
0.450098457,0,0,1.5682021379470825,0,0,0.9172800183296204
0.45031451,0,0,1.5682021379470825,0,0,0.611519992351532
0.450530915,0,0,1.5682021379470825,0,0,0.611519992351532
0.450747635,0,0,1.5969325304031372,0,0,1.452359914779663
0.450963836,0,0,1.5969325304031372,0,0,0.8408399820327759
0.451179834,0,0,1.5969325304031372,0,0,0.8408399820327759
0.451396183,0,0,1.5969325304031372,0,0,-0.9937199950218201
0.451613051,0,0,1.5969325304031372,0,0,0.7644000053405762
0.451828864,0,0,1.280897855758667,0,0,0.7644000053405762
0.452045158,0,0,1.280897855758667,0,0,1.9109998941421509
0.452266637,0,0,1.280897855758667,0,0,1.375920057296753
0.452479894,0,0,1.280897855758667,0,0,1.375920057296753
0.452696039,0,0,1.280897855758667,0,0,1.8345600366592407
0.452912241,0,0,1.4317326545715332,0,0,0
0.453129868,0,0,1.4317326545715332,0,0,0
0.453353032,0,0,1.4317326545715332,0,0,0.9172800183296204
0.453574085,0,0,1.4317326545715332,0,0,1.2994799613952637
0.453795213,0,0,1.3551181554794312,0,0,1.2994799613952637
0.454013488,0,0,1.3551181554794312,0,0,1.070159912109375
0.454239948,0,0,1.3551181554794312,0,0,0.305759996175766
0.45446365,0,0,1.3551181554794312,0,0,0.7644000053405762
0.454681425,0,0,1.3551181554794312,0,0,0.7644000053405762
0.454903941,0,0,1.278503656387329,0,0,0.4586400091648102
0.455129605,0,0,1.278503656387329,0,0,0.7644000053405762
0.455355381,0,0,1.278503656387329,0,0,0.7644000053405762
0.455576304,0,0,1.278503656387329,0,0,1.223039984703064
0.455802191,0,0,1.314416766166687,0,0,0.8408399820327759
0.456032633,0,0,1.314416766166687,0,0,0.8408399820327759
0.456249815,0,0,1.314416766166687,0,0,0
0.456470683,0,0,1.314416766166687,0,0,0.7644000053405762
0.456691422,0,0,1.314416766166687,0,0,0.7644000053405762
0.456908827,0,0,1.4867992401123047,0,0,1.452359914779663
0.457127047,0,0,1.4867992401123047,0,0,1.070159912109375
0.457346655,0,0,1.4867992401123047,0,0,1.070159912109375
0.457567079,0,0,1.4867992401123047,0,0,1.605239987373352
0.457790873,0,0,1.5873557329177856,0,0,0
0.458012037,0,0,1.5873557329177856,0,0,0.5350799560546875
0.458237497,0,0,1.5873557329177856,0,0,0.5350799560546875
0.45846068,0,0,1.5873557329177856,0,0,0.9172800183296204
0.458681937,0,0,1.5873557329177856,0,0,1.2994799613952637
0.458910601,0,0,1.4915876388549805,0,0,1.2994799613952637
0.459262042,0,0,1.4915876388549805,0,0,0.9937199950218201
0.459479928,0,0,1.4915876388549805,0,0,0.3822000026702881
0.459695907,0,0,1.4915876388549805,0,0,0.305759996175766
0.459913109,0,0,1.5083470344543457,0,0,0.305759996175766
0.460129903,0,0,1.5083470344543457,0,0,-1.070159912109375
0.460346048,0,0,1.5083470344543457,0,0,0.6879600286483765
0.460562657,0,0,1.5083470344543457,0,0,0.6879600286483765
0.46077871,0,0,1.5921441316604614,0,0,1.8345600366592407
0.460995301,0,0,1.5921441316604614,0,0,1.1466000080108643
0.461211391,0,0,1.5921441316604614,0,0,1.1466000080108643
0.46142737,0,0,1.5921441316604614,0,0,0.305759996175766
0.461643386,0,0,1.5921441316604614,0,0,1.2994799613952637
0.46185918,0,0,1.5969325304031372,0,0,1.2994799613952637
0.462075715,0,0,1.5969325304031372,0,0,0.2293200045824051
0.462312194,0,0,1.5969325304031372,0,0,0.305759996175766
0.46250784,0,0,1.5969325304031372,0,0,0.305759996175766
0.462725837,0,0,1.3742717504501343,0,0,2.3696401119232178
0.462940316,0,0,1.3742717504501343,0,0,1.5288000106811523
0.463156388,0,0,1.3742717504501343,0,0,1.5288000106811523
0.463555476,0,0,1.3742717504501343,0,0,0.8408399820327759
0.463770196,0,0,1.479616641998291,0,0,0.8408399820327759
0.463986231,0,0,1.479616641998291,0,0,0.6879600286483765
0.464203099,0,0,1.479616641998291,0,0,1.070159912109375
0.464418689,0,0,1.479616641998291,0,0,1.070159912109375
0.464634928,0,0,1.479616641998291,0,0,1.375920057296753
0.464851092,0,0,1.4844050407409668,0,0,1.070159912109375
0.465067182,0,0,1.4844050407409668,0,0,1.070159912109375
0.465283606,0,0,1.4844050407409668,0,0,0.2293200045824051
0.465502474,0,0,1.4844050407409668,0,0,1.223039984703064
0.46571736,0,0,1.4844050407409668,0,0,1.223039984703064
0.465933617,0,0,1.359906554222107,0,0,1.452359914779663
0.466159003,0,0,1.359906554222107,0,0,0.611519992351532
0.466370983,0,0,1.359906554222107,0,0,0.611519992351532
0.466587221,0,0,1.359906554222107,0,0,0.6879600286483765
0.466803089,0,0,1.3766659498214722,0,0,0.9937199950218201
0.46701955,0,0,1.3766659498214722,0,0,0.9937199950218201
0.467236325,0,0,1.3766659498214722,0,0,0.8408399820327759
0.467452508,0,0,1.3766659498214722,0,0,0.611519992351532
0.467668857,0,0,1.3766659498214722,0,0,0.611519992351532
0.467884633,0,0,1.4197616577148438,0,0,1.2994799613952637
0.468101167,0,0,1.4197616577148438,0,0,0.9172800183296204
0.468317554,0,0,1.4197616577148438,0,0,0.9172800183296204
0.468533663,0,0,1.4197616577148438,0,0,9.631440162658691
0.468749864,0,0,1.6663644313812256,0,0,0.9937199950218201
0.468966084,0,0,1.6663644313812256,0,0,0.9937199950218201
0.469182267,0,0,1.6663644313812256,0,0,0
0.469399413,0,0,1.6663644313812256,0,0,1.452359914779663
0.469615706,0,0,1.6663644313812256,0,0,1.452359914779663
0.46983176,0,0,1.6424223184585571,0,0,0
0.470047831,0,0,1.6424223184585571,0,0,0.611519992351532
0.47026407,0,0,1.6424223184585571,0,0,0.611519992351532
0.470480679,0,0,1.6424223184585571,0,0,-1.375920057296753
0.470697195,0,0,1.6424223184585571,0,0,0.305759996175766
0.470913415,0,0,1.4939818382263184,0,0,0.305759996175766
0.471129042,0,0,1.4939818382263184,0,0,1.9109998941421509
0.471345632,0,0,1.4939818382263184,0,0,0.3822000026702881
0.471561907,0,0,1.4939818382263184,0,0,0.3822000026702881
0.471781998,0,0,1.6089035272598267,0,0,0.611519992351532
0.471998069,0,0,1.6089035272598267,0,0,1.070159912109375
0.47222016,0,0,1.6089035272598267,0,0,1.070159912109375
0.472446176,0,0,1.6089035272598267,0,0,9.707880020141602
0.47266247,0,0,1.6089035272598267,0,0,0
0.472886837,0,0,1.4700398445129395,0,0,0.6879600286483765
0.473098761,0,0,1.4700398445129395,0,0,0.6879600286483765
0.473314888,0,0,1.4700398445129395,0,0,0.8408399820327759
0.473532312,0,0,1.4700398445129395,0,0,0.8408399820327759
0.473748606,0,0,1.3239935636520386,0,0,0.8408399820327759
0.473965029,0,0,1.3239935636520386,0,0,1.452359914779663
0.474180842,0,0,1.3239935636520386,0,0,1.223039984703064
0.47439721,0,0,1.3239935636520386,0,0,1.223039984703064
0.474613911,0,0,1.3239935636520386,0,0,1.1466000080108643
0.474830335,0,0,1.3910311460494995,0,0,0.9937199950218201
0.475046073,0,0,1.3910311460494995,0,0,0.9937199950218201
0.475262626,0,0,1.3910311460494995,0,0,1.1466000080108643
0.475478531,0,0,1.3910311460494995,0,0,0.6879600286483765
0.475695214,0,0,1.3910311460494995,0,0,0.6879600286483765
0.475911378,0,0,1.3192051649093628,0,0,1.375920057296753
0.476128746,0,0,1.3192051649093628,0,0,1.223039984703064
0.476367411,0,0,1.3192051649093628,0,0,1.223039984703064
0.476566723,0,0,1.3192051649093628,0,0,0
0.476786739,0,0,1.3215993642807007,0,0,0.9172800183296204
0.477002144,0,0,1.3215993642807007,0,0,0.9172800183296204
0.477218049,0,0,1.3215993642807007,0,0,0.9937199950218201
0.477434269,0,0,1.3215993642807007,0,0,0.305759996175766
0.477651489,0,0,1.3215993642807007,0,0,0.305759996175766
0.477867968,0,0,1.4221558570861816,0,0,0.7644000053405762
0.478083929,0,0,1.4221558570861816,0,0,0.9937199950218201
0.478299815,0,0,1.4221558570861816,0,0,0.9937199950218201
0.478516035,0,0,1.4221558570861816,0,0,1.070159912109375
0.478732829,0,0,1.4748282432556152,0,0,0.6879600286483765
0.478949271,0,0,1.4748282432556152,0,0,0.6879600286483765
0.479164399,0,0,1.4748282432556152,0,0,1.223039984703064
0.479380692,0,0,1.4748282432556152,0,0,0.4586400091648102
0.479606357,0,0,1.4748282432556152,0,0,0.4586400091648102
0.479818558,0,0,1.6041151285171509,0,0,1.2994799613952637
0.480034815,0,0,1.6041151285171509,0,0,1.070159912109375
0.480250887,0,0,1.6041151285171509,0,0,1.070159912109375
0.480466866,0,0,1.6041151285171509,0,0,0.0764399990439415
0.480682771,0,0,1.6041151285171509,0,0,0.4586400091648102
0.48089975,0,0,1.53707754611969,0,0,0.4586400091648102
0.481115692,0,0,1.53707754611969,0,0,1.223039984703064
0.48133193,0,0,1.53707754611969,0,0,0.6879600286483765
0.481548465,0,0,1.53707754611969,0,0,0.6879600286483765
0.4817645,0,0,1.4460978507995605,0,0,0.611519992351532
0.481981312,0,0,1.4460978507995605,0,0,0.611519992351532
0.482197236,0,0,1.4460978507995605,0,0,0.611519992351532
0.482413308,0,0,1.4460978507995605,0,0,1.1466000080108643
0.482629213,0,0,1.4460978507995605,0,0,0.5350799560546875
0.48284534,0,0,1.6112977266311646,0,0,0.5350799560546875
0.483061893,0,0,1.6112977266311646,0,0,1.605239987373352
0.483278076,0,0,1.6112977266311646,0,0,1.1466000080108643
0.483494166,0,0,1.6112977266311646,0,0,1.1466000080108643
0.483710256,0,0,1.6112977266311646,0,0,0.9937199950218201
0.483926532,0,0,1.4101848602294922,0,0,1.1466000080108643
0.484143326,0,0,1.4101848602294922,0,0,1.1466000080108643
0.484359286,0,0,1.4101848602294922,0,0,1.452359914779663
0.484575414,0,0,1.4101848602294922,0,0,0.152879998087883
0.484791559,0,0,1.3479355573654175,0,0,0.152879998087883
0.48500889,0,0,1.3479355573654175,0,0,0.8408399820327759
0.485224592,0,0,1.3479355573654175,0,0,1.070159912109375
0.485440756,0,0,1.3479355573654175,0,0,1.070159912109375
0.485660698,0,0,1.3479355573654175,0,0,0.7644000053405762
0.485876177,0,0,1.2713210582733154,0,0,1.070159912109375
0.486092397,0,0,1.2713210582733154,0,0,1.070159912109375
0.486314524,0,0,1.2713210582733154,0,0,9.631440162658691
0.486526781,0,0,1.2713210582733154,0,0,0.611519992351532
0.486742705,0,0,1.3072341680526733,0,0,0.611519992351532
0.486958258,0,0,1.3072341680526733,0,0,1.758120059967041
0.487174718,0,0,1.3072341680526733,0,0,0.7644000053405762
0.487390346,0,0,1.3072341680526733,0,0,0.7644000053405762
0.487605769,0,0,1.3072341680526733,0,0,0.3822000026702881
0.487821434,0,0,1.3407529592514038,0,0,0.8408399820327759
0.488037116,0,0,1.3407529592514038,0,0,0.8408399820327759
0.488325373,0,0,1.3407529592514038,0,0,0.8408399820327759
0.489956818,0,0,1.3910311460494995,0,0,0.8408399820327759
0.490018873,0,0,1.5682021379470825,0,0,0.8408399820327759
0.490051946,0,0,1.5682021379470825,0,0,2.2932000160217285
0.490323314,0,0,1.5682021379470825,0,0,2.2932000160217285
0.490527923,0,0,1.5682021379470825,0,0,0.611519992351532
0.490760068,0,0,1.625662922859192,0,0,0.7644000053405762
0.490991343,0,0,1.625662922859192,0,0,0.7644000053405762
0.491223137,0,0,1.625662922859192,0,0,1.070159912109375
0.491586596,0,0,1.625662922859192,0,0,0.5350799560546875
0.491689651,0,0,1.625662922859192,0,0,0.2293200045824051
0.491916296,0,0,1.5705963373184204,0,0,0.2293200045824051
0.492140683,0,0,1.5705963373184204,0,0,0.4586400091648102
0.492367625,0,0,1.5705963373184204,0,0,0.4586400091648102
0.492592196,0,0,1.5705963373184204,0,0,0.4586400091648102
0.492817824,0,0,1.5849615335464478,0,0,1.070159912109375
0.493044525,0,0,1.5849615335464478,0,0,0.611519992351532
0.493270263,0,0,1.5849615335464478,0,0,0.6879600286483765
0.493542371,0,0,1.5849615335464478,0,0,0.6879600286483765
0.493770554,0,0,1.577778935432434,0,0,1.375920057296753
0.493996644,0,0,1.577778935432434,0,0,1.070159912109375
0.494222419,0,0,1.577778935432434,0,0,1.070159912109375
0.494461435,0,0,1.577778935432434,0,0,1.452359914779663
0.494681433,0,0,1.577778935432434,0,0,0.5350799560546875
0.494907264,0,0,1.335964560508728,0,0,0.5350799560546875
0.49529313,0,0,1.335964560508728,0,0,0.8408399820327759
0.495359129,0,0,1.335964560508728,0,0,0.8408399820327759
0.49558633,0,0,1.335964560508728,0,0,0.611519992351532
0.495810402,0,0,1.3623007535934448,0,0,0.611519992351532
0.49603664,0,0,1.3623007535934448,0,0,0.611519992351532
0.496262119,0,0,1.3623007535934448,0,0,0.6879600286483765
0.496487413,0,0,1.3623007535934448,0,0,0.6879600286483765
0.496712966,0,0,1.3623007535934448,0,0,0.9172800183296204
0.496938242,0,0,1.3287819623947144,0,0,0.611519992351532
0.49716448,0,0,1.3287819623947144,0,0,0.9172800183296204
0.497389922,0,0,1.3287819623947144,0,0,0.9172800183296204
0.497618716,0,0,1.3287819623947144,0,0,0.2293200045824051
0.497843658,0,0,1.338358759880066,0,0,0.611519992351532
0.498069488,0,0,1.338358759880066,0,0,0.611519992351532
0.498295542,0,0,1.338358759880066,0,0,1.1466000080108643
0.498521132,0,0,1.338358759880066,0,0,0.611519992351532
0.498747074,0,0,1.359906554222107,0,0,0.611519992351532
0.498972053,0,0,1.359906554222107,0,0,0.0764399990439415
0.499198069,0,0,1.359906554222107,0,0,0.9937199950218201
0.49942377,0,0,1.359906554222107,0,0,0.8408399820327759
0.499649138,0,0,1.359906554222107,0,0,0.8408399820327759
0.499875191,0,0,1.5179238319396973,0,0,1.1466000080108643
0.500100837,0,0,1.5179238319396973,0,0,0.5350799560546875
0.500327056,0,0,1.5179238319396973,0,0,0.5350799560546875
0.500552239,0,0,1.5179238319396973,0,0,0.6879600286483765
0.500778866,0,0,1.5873557329177856,0,0,1.375920057296753
0.501003753,0,0,1.5873557329177856,0,0,1.375920057296753
0.501229232,0,0,1.5873557329177856,0,0,1.375920057296753
0.501483192,0,0,1.5873557329177856,0,0,1.2994799613952637
0.501686356,0,0,1.5873557329177856,0,0,0.9172800183296204
0.50191852,0,0,1.6735470294952393,0,0,0.9172800183296204
0.502161925,0,0,1.6735470294952393,0,0,0
0.502392997,0,0,1.6735470294952393,0,0,0
0.502621328,0,0,1.6735470294952393,0,0,0
0.502848047,0,0,1.5275006294250488,0,0,-29.582279205322266
0.5030736,0,0,1.5275006294250488,0,0,0.305759996175766
0.503314468,0,0,1.5275006294250488,0,0,0.9172800183296204
0.503586132,0,0,1.5275006294250488,0,0,0.9172800183296204
0.503943147,0,0,1.5849615335464478,0,0,0.611519992351532
0.504182866,0,0,1.5849615335464478,0,0,0.611519992351532
0.504412734,0,0,1.5849615335464478,0,0,0.0764399990439415
0.504639009,0,0,1.5849615335464478,0,0,0.9937199950218201
0.504865007,0,0,1.4987702369689941,0,0,0.9937199950218201
0.505091356,0,0,1.4987702369689941,0,0,0
0.505316372,0,0,1.4987702369689941,0,0,0.305759996175766
0.505543277,0,0,1.4987702369689941,0,0,0.305759996175766
0.50576946,0,0,1.2449848651885986,0,0,0.152879998087883
0.50599592,0,0,1.2449848651885986,0,0,0.6879600286483765
0.506220974,0,0,1.2449848651885986,0,0,0.9937199950218201
0.506446675,0,0,1.2449848651885986,0,0,0.9937199950218201
0.506672561,0,0,1.2449848651885986,0,0,0
0.506898355,0,0,1.3982137441635132,0,0,0.611519992351532
0.507124778,0,0,1.3982137441635132,0,0,0.611519992351532
0.507349665,0,0,1.3982137441635132,0,0,1.1466000080108643
0.507575848,0,0,1.3982137441635132,0,0,0.9937199950218201
0.507801604,0,0,1.3742717504501343,0,0,0.9937199950218201
