Time,AccelX1,AccelY1,AccelZ1,AccelX2,AccelY2,AccelZ2
0.000191294,0,0,1.213860273361206,0,0,0.9172800183296204
0.000542958,0,0,1.213860273361206,0,0,1.070159912109375
0.000754363,0,0,1.3335703611373901,0,0,0.0764399990439415
0.001086434,0,0,1.3335703611373901,0,0,1.375920057296753
0.001419968,0,0,1.3335703611373901,0,0,0.6879600286483765
0.001754188,0,0,1.3335703611373901,0,0,0.7644000053405762
0.002086092,0,0,1.3335703611373901,0,0,0.8408399820327759
0.002420774,0,0,1.3335703611373901,0,0,0.8408399820327759
0.002752716,0,0,1.3335703611373901,0,0,0.5350799560546875
0.003087509,0,0,1.072602391242981,0,0,0.8408399820327759
0.003422728,0,0,1.072602391242981,0,0,0.5350799560546875
0.003764077,0,0,1.072602391242981,0,0,0.6879600286483765
0.004095722,0,0,1.072602391242981,0,0,0.611519992351532
0.004419738,0,0,1.072602391242981,0,0,0.5350799560546875
0.004754309,0,0,1.072602391242981,0,0,0.4586400091648102
0.00508825,0,0,1.072602391242981,0,0,0.611519992351532
0.005432377,0,0,1.2018892765045166,0,0,0.7644000053405762
0.005789373,0,0,1.2018892765045166,0,0,1.5288000106811523
0.006106037,0,0,1.2018892765045166,0,0,0.8408399820327759
0.006429183,0,0,1.2018892765045166,0,0,0.305759996175766
0.006758939,0,0,1.2018892765045166,0,0,0.4586400091648102
0.007383563,0,0,1.2018892765045166,0,0,0.4586400091648102
0.00740734,0,0,1.2018892765045166,0,0,0.611519992351532
0.007775319,0,0,1.3838485479354858,0,0,0.5350799560546875
0.008093056,0,0,1.3838485479354858,0,0,1.070159912109375
0.008423535,0,0,1.3838485479354858,0,0,0.611519992351532
0.008771569,0,0,1.3838485479354858,0,0,1.223039984703064
0.009090862,0,0,1.3838485479354858,0,0,0.5350799560546875
0.009423304,0,0,1.3862427473068237,0,0,0.2293200045824051
0.009765115,0,0,1.3862427473068237,0,0,1.758120059967041
0.010093094,0,0,1.3862427473068237,0,0,1.375920057296753
0.010431498,0,0,1.3862427473068237,0,0,0.9172800183296204
0.010769995,0,0,1.3862427473068237,0,0,0.9172800183296204
0.011109066,0,0,1.4437036514282227,0,0,0.3822000026702881
0.011427248,0,0,1.4437036514282227,0,0,1.8345600366592407
0.01176819,0,0,1.4437036514282227,0,0,0.9172800183296204
0.012088687,0,0,1.4437036514282227,0,0,1.5288000106811523
0.012421554,0,0,1.3862427473068237,0,0,1.758120059967041
0.012760403,0,0,1.3862427473068237,0,0,-0.5350799560546875
0.013088493,0,0,1.3862427473068237,0,0,1.758120059967041
0.01342673,0,0,1.3862427473068237,0,0,0.8408399820327759
0.013760561,0,0,1.3862427473068237,0,0,0.8408399820327759
0.014088539,0,0,1.3862427473068237,0,0,1.070159912109375
0.014421814,0,0,1.3862427473068237,0,0,0.611519992351532
0.014762737,0,0,1.558625340461731,0,0,0.9172800183296204
0.015088623,0,0,1.558625340461731,0,0,0.305759996175766
0.015421675,0,0,1.558625340461731,0,0,0.5350799560546875
0.015758821,0,0,1.558625340461731,0,0,0.9172800183296204
0.016088799,0,0,1.558625340461731,0,0,1.223039984703064
0.016423222,0,0,1.558625340461731,0,0,1.375920057296753
0.016756811,0,0,1.558625340461731,0,0,0.152879998087883
0.017088383,0,0,1.556231141090393,0,0,0.0764399990439415
0.017424972,0,0,1.556231141090393,0,0,0.9172800183296204
0.017758877,0,0,1.556231141090393,0,0,0.7644000053405762
0.018088503,0,0,1.556231141090393,0,0,0.7644000053405762
0.018425778,0,0,1.556231141090393,0,0,0.9937199950218201
0.018758645,0,0,1.556231141090393,0,0,1.223039984703064
0.019088679,0,0,1.556231141090393,0,0,0.5350799560546875
0.019426102,0,0,1.2880805730819702,0,0,0.7644000053405762
0.019759044,0,0,1.2880805730819702,0,0,0.611519992351532
0.020088707,0,0,1.2880805730819702,0,0,0.5350799560546875
0.020425927,0,0,1.2880805730819702,0,0,0.9937199950218201
0.02076209,0,0,1.2880805730819702,0,0,0.3822000026702881
0.021088846,0,0,1.2880805730819702,0,0,1.070159912109375
0.021425658,0,0,1.2880805730819702,0,0,0.611519992351532
0.021770618,0,0,1.3934253454208374,0,0,1.5288000106811523
0.022089319,0,0,1.3934253454208374,0,0,0.5350799560546875
0.02242576,0,0,1.3934253454208374,0,0,0.0764399990439415
0.022758739,0,0,1.3934253454208374,0,0,0.5350799560546875
0.023088514,0,0,1.3934253454208374,0,0,1.452359914779663
0.023425603,0,0,1.3934253454208374,0,0,1.605239987373352
0.023759674,0,0,1.3934253454208374,0,0,0
0.024089097,0,0,1.2641384601593018,0,0,0.6879600286483765
0.02442565,0,0,1.2641384601593018,0,0,0.4586400091648102
0.024758591,0,0,1.2641384601593018,0,0,2.06387996673584
0.02508844,0,0,1.2641384601593018,0,0,0
0.025425826,0,0,1.2641384601593018,0,0,0.7644000053405762
0.025758823,0,0,1.2641384601593018,0,0,0.305759996175766
0.026088505,0,0,1.2641384601593018,0,0,0.6879600286483765
0.026422187,0,0,1.0582371950149536,0,0,0.8408399820327759
0.026758869,0,0,1.0582371950149536,0,0,0.9937199950218201
0.027088589,0,0,1.0582371950149536,0,0,0.4586400091648102
0.027423363,0,0,1.0582371950149536,0,0,0
0.027756953,0,0,1.0582371950149536,0,0,0.4586400091648102
0.028088598,0,0,1.0582371950149536,0,0,0.9937199950218201
0.02842578,0,0,1.0582371950149536,0,0,0.9172800183296204
0.028758814,0,0,1.0319008827209473,0,0,0.7644000053405762
0.029088459,0,0,1.0319008827209473,0,0,1.070159912109375
0.029425605,0,0,1.0319008827209473,0,0,0.611519992351532
0.029758898,0,0,1.0319008827209473,0,0,0.611519992351532
0.030088524,0,0,1.0319008827209473,0,0,0.305759996175766
0.030426151,0,0,1.0319008827209473,0,0,0.8408399820327759
0.030759407,0,0,1.0319008827209473,0,0,0.9937199950218201
0.031090608,0,0,1.213860273361206,0,0,0.6879600286483765
0.031426531,0,0,1.213860273361206,0,0,1.1466000080108643
0.031759676,0,0,1.213860273361206,0,0,0.611519992351532
0.034278283,0,0,1.213860273361206,0,0,0.611519992351532
0.034302523,0,0,1.213860273361206,0,0,0.611519992351532
0.034325449,0,0,1.213860273361206,0,0,0.611519992351532
0.03434843,0,0,1.213860273361206,0,0,0.611519992351532
0.034377726,0,0,1.359906554222107,0,0,0.611519992351532
0.034400671,0,0,1.359906554222107,0,0,0.611519992351532
0.034423393,0,0,1.359906554222107,0,0,0.611519992351532
0.034446096,0,0,1.359906554222107,0,0,0.152879998087883
0.03477476,0,0,1.359906554222107,0,0,-0.152879998087883
0.03509835,0,0,1.359906554222107,0,0,0.6879600286483765
0.035440902,0,0,1.359906554222107,0,0,0
0.035756121,0,0,1.482010841369629,0,0,0
0.036088544,0,0,1.482010841369629,0,0,1.2994799613952637
0.036427208,0,0,1.482010841369629,0,0,0.3822000026702881
0.036755224,0,0,1.482010841369629,0,0,2.06387996673584
0.037094054,0,0,1.482010841369629,0,0,0.8408399820327759
0.037426884,0,0,1.482010841369629,0,0,0.8408399820327759
0.037755696,0,0,1.482010841369629,0,0,0.152879998087883
0.038093656,0,0,1.534683346748352,0,0,0.152879998087883
0.038425301,0,0,1.534683346748352,0,0,0.8408399820327759
0.038753761,0,0,1.534683346748352,0,0,0.6879600286483765
0.039092221,0,0,1.534683346748352,0,0,0.5350799560546875
0.039421385,0,0,1.534683346748352,0,0,1.223039984703064
0.039753789,0,0,1.534683346748352,0,0,0.8408399820327759
0.040092045,0,0,1.534683346748352,0,0,0.6879600286483765
0.04042132,0,0,1.7357962131500244,0,0,0.7644000053405762
0.04075341,0,0,1.7357962131500244,0,0,0.7644000053405762
0.041091407,0,0,1.7357962131500244,0,0,0.8408399820327759
0.041424089,0,0,1.7357962131500244,0,0,0.9937199950218201
0.041753549,0,0,1.7357962131500244,0,0,0.9937199950218201
0.042091416,0,0,1.7357962131500244,0,0,0.5350799560546875
0.042438098,0,0,1.7357962131500244,0,0,1.1466000080108643
0.04275404,0,0,1.3862427473068237,0,0,0.8408399820327759
0.043103425,0,0,1.3862427473068237,0,0,1.2994799613952637
0.043433571,0,0,1.3862427473068237,0,0,0.8408399820327759
0.04375366,0,0,1.3862427473068237,0,0,1.070159912109375
0.044090046,0,0,1.3862427473068237,0,0,0.9172800183296204
0.044429265,0,0,1.3862427473068237,0,0,1.070159912109375
0.044757003,0,0,1.3862427473068237,0,0,0.9172800183296204
0.045093352,0,0,1.2761094570159912,0,0,0.611519992351532
0.045422849,0,0,1.2761094570159912,0,0,1.070159912109375
0.045753457,0,0,1.2761094570159912,0,0,0.5350799560546875
0.046091695,0,0,1.2761094570159912,0,0,0.3822000026702881
0.046425692,0,0,1.2761094570159912,0,0,0.5350799560546875
0.046755133,0,0,1.2761094570159912,0,0,1.1466000080108643
0.047093371,0,0,1.2761094570159912,0,0,0.5350799560546875
0.047425924,0,0,1.3000515699386597,0,0,0.0764399990439415
0.047754735,0,0,1.3000515699386597,0,0,0.3822000026702881
0.048093084,0,0,1.3000515699386597,0,0,1.070159912109375
0.048425933,0,0,1.3000515699386597,0,0,1.758120059967041
0.048754893,0,0,1.3000515699386597,0,0,-0.3822000026702881
0.049092927,0,0,1.3000515699386597,0,0,0.8408399820327759
0.049425331,0,0,1.3000515699386597,0,0,0.152879998087883
0.049754773,0,0,1.1803414821624756,0,0,2.14031982421875
0.050093177,0,0,1.1803414821624756,0,0,0.6879600286483765
0.050426822,0,0,1.1803414821624756,0,0,0.6879600286483765
0.05075469,0,0,1.1803414821624756,0,0,0.5350799560546875
0.051093353,0,0,1.1803414821624756,0,0,0.7644000053405762
0.051425795,0,0,1.1803414821624756,0,0,0.9172800183296204
0.051757403,0,0,1.1803414821624756,0,0,0.8408399820327759
0.052093363,0,0,1.113303780555725,0,0,0.5350799560546875
0.052426767,0,0,1.113303780555725,0,0,0.7644000053405762
0.052754857,0,0,1.113303780555725,0,0,0.9937199950218201
0.053093428,0,0,1.113303780555725,0,0,0.9172800183296204
0.05342548,0,0,1.113303780555725,0,0,1.070159912109375
0.053754996,0,0,1.113303780555725,0,0,0.8408399820327759
0.054093197,0,0,1.113303780555725,0,0,0.7644000053405762
0.054426157,0,0,1.2258312702178955,0,0,0.6879600286483765
0.054754857,0,0,1.2258312702178955,0,0,0.8408399820327759
0.055093169,0,0,1.2258312702178955,0,0,0.8408399820327759
0.055425555,0,0,1.2258312702178955,0,0,0.8408399820327759
0.055754996,0,0,1.2258312702178955,0,0,0.6879600286483765
0.056093364,0,0,1.2258312702178955,0,0,0.9172800183296204
0.056425861,0,0,1.2258312702178955,0,0,1.1466000080108643
0.05675508,0,0,1.3527239561080933,0,0,0.3822000026702881
0.057092892,0,0,1.3527239561080933,0,0,0.6879600286483765
0.05742687,0,0,1.3527239561080933,0,0,0.3822000026702881
0.057755108,0,0,1.3527239561080933,0,0,0.5350799560546875
0.058093161,0,0,1.3527239561080933,0,0,0.6879600286483765
0.058425972,0,0,1.3527239561080933,0,0,1.452359914779663
0.058755414,0,0,1.3527239561080933,0,0,0.5350799560546875
0.059093577,0,0,1.4772224426269531,0,0,0.611519992351532
0.059426667,0,0,1.4772224426269531,0,0,0.8408399820327759
0.059754794,0,0,1.4772224426269531,0,0,0.2293200045824051
0.060092957,0,0,1.4772224426269531,0,0,0.9172800183296204
0.060425306,0,0,1.4772224426269531,0,0,-0.152879998087883
0.060754729,0,0,1.4772224426269531,0,0,1.605239987373352
0.061093282,0,0,1.4772224426269531,0,0,0.3822000026702881
0.061425223,0,0,1.5179238319396973,0,0,1.223039984703064
0.061754813,0,0,1.5179238319396973,0,0,9.172800064086914
0.062095365,0,0,1.5179238319396973,0,0,0.9172800183296204
0.062428899,0,0,1.5179238319396973,0,0,0.9172800183296204
0.06275497,0,0,1.5179238319396973,0,0,0.7644000053405762
0.063090097,0,0,1.5179238319396973,0,0,0.9937199950218201
0.063421668,0,0,1.5179238319396973,0,0,1.070159912109375
0.063754795,0,0,1.5873557329177856,0,0,1.070159912109375
0.064090384,0,0,1.5873557329177856,0,0,0.8408399820327759
0.064421937,0,0,1.5873557329177856,0,0,0.611519992351532
0.06475486,0,0,1.5873557329177856,0,0,0.8408399820327759
0.065089857,0,0,1.5873557329177856,0,0,0.5350799560546875
0.065421687,0,0,1.5873557329177856,0,0,0.9172800183296204
0.065753221,0,0,1.5873557329177856,0,0,0.611519992351532
0.066091866,0,0,1.6041151285171509,0,0,0.611519992351532
0.066427159,0,0,1.6041151285171509,0,0,0.3822000026702881
0.06675486,0,0,1.6041151285171509,0,0,0.7644000053405762
0.067094079,0,0,1.6041151285171509,0,0,1.1466000080108643
0.067426947,0,0,1.6041151285171509,0,0,0.9172800183296204
0.067754684,0,0,1.6041151285171509,0,0,0.305759996175766
0.068093237,0,0,1.6041151285171509,0,0,0.2293200045824051
0.068426567,0,0,1.280897855758667,0,0,0.4586400091648102
0.068754768,0,0,1.280897855758667,0,0,1.223039984703064
0.069103413,0,0,1.280897855758667,0,0,0.9172800183296204
0.06942204,0,0,1.280897855758667,0,0,0.305759996175766
0.069754055,0,0,1.280897855758667,0,0,0
0.070088015,0,0,1.280897855758667,0,0,0.152879998087883
0.070422901,0,0,1.280897855758667,0,0,0.4586400091648102
0.070756768,0,0,1.3646949529647827,0,0,0.152879998087883
0.071088117,0,0,1.173158884048462,0,0,1.452359914779663
0.071429596,0,0,1.2449848651885986,0,0,0.9937199950218201
0.071762833,0,0,1.2449848651885986,0,0,0.3822000026702881
0.072088423,0,0,1.2449848651885986,0,0,0.305759996175766
0.072426235,0,0,1.2449848651885986,0,0,0.5350799560546875
0.072758843,0,0,1.2449848651885986,0,0,1.758120059967041
0.073088507,0,0,1.2449848651885986,0,0,0
0.073427355,0,0,1.2856862545013428,0,0,1.605239987373352
0.073760001,0,0,1.2856862545013428,0,0,0.611519992351532
0.074088109,0,0,1.2856862545013428,0,0,2.06387996673584
0.074427513,0,0,1.2856862545013428,0,0,1.070159912109375
0.074760251,0,0,1.2856862545013428,0,0,0.8408399820327759
0.075087989,0,0,1.2856862545013428,0,0,0.7644000053405762
0.075423097,0,0,1.2856862545013428,0,0,0.6879600286483765
0.075754834,0,0,1.482010841369629,0,0,0.611519992351532
0.076088202,0,0,1.482010841369629,0,0,0.8408399820327759
0.076422995,0,0,1.482010841369629,0,0,0.611519992351532
0.076754788,0,0,1.482010841369629,0,0,0.9172800183296204
0.077088378,0,0,1.482010841369629,0,0,0.8408399820327759
0.077422708,0,0,1.482010841369629,0,0,1.1466000080108643
0.077754724,0,0,1.482010841369629,0,0,0.8408399820327759
0.078088165,0,0,1.4173674583435059,0,0,0.611519992351532
0.078423977,0,0,1.4173674583435059,0,0,0.5350799560546875
0.078755789,0,0,1.4173674583435059,0,0,0.7644000053405762
0.079088212,0,0,1.4173674583435059,0,0,0.9172800183296204
0.07942369,0,0,1.4173674583435059,0,0,1.375920057296753
0.079753521,0,0,1.4173674583435059,0,0,0.5350799560546875
0.080087166,0,0,1.4173674583435059,0,0,0.305759996175766
0.080421218,0,0,1.3431471586227417,0,0,0.2293200045824051
0.08076003,0,0,1.3431471586227417,0,0,1.223039984703064
0.081091823,0,0,1.3431471586227417,0,0,0.9937199950218201
0.081421617,0,0,1.3431471586227417,0,0,0.6879600286483765
0.081760373,0,0,1.3431471586227417,0,0,0.611519992351532
0.082094111,0,0,1.3431471586227417,0,0,0.611519992351532
0.082421367,0,0,1.3431471586227417,0,0,0.8408399820327759
0.082759197,0,0,1.647210717201233,0,0,1.1466000080108643
0.083092657,0,0,1.647210717201233,0,0,1.1466000080108643
0.083421562,0,0,1.647210717201233,0,0,0.8408399820327759
0.083759855,0,0,1.647210717201233,0,0,0.3822000026702881
0.084101907,0,0,1.647210717201233,0,0,0.611519992351532
0.084424627,0,0,1.647210717201233,0,0,0.8408399820327759
0.086069464,0,0,1.647210717201233,0,0,0.8408399820327759
0.086092686,0,0,1.4413094520568848,0,0,-0.152879998087883
0.086115334,0,0,1.4413094520568848,0,0,9.631440162658691
0.086997659,0,0,1.4413094520568848,0,0,0.7644000053405762
0.087044566,0,0,1.4413094520568848,0,0,0.7644000053405762
0.087068251,0,0,1.4413094520568848,0,0,0.152879998087883
0.087097417,0,0,1.4413094520568848,0,0,0.152879998087883
0.087120824,0,0,1.4413094520568848,0,0,0.305759996175766
0.087432433,0,0,1.237802267074585,0,0,0.611519992351532
0.087767263,0,0,1.237802267074585,0,0,0.9172800183296204
0.088088686,0,0,1.237802267074585,0,0,0.8408399820327759
0.088421646,0,0,1.237802267074585,0,0,0.4586400091648102
0.08876118,0,0,1.237802267074585,0,0,0.6879600286483765
0.08908827,0,0,1.237802267074585,0,0,0.6879600286483765
0.089426118,0,0,1.237802267074585,0,0,0.611519992351532
0.089760356,0,0,1.3431471586227417,0,0,0.9937199950218201
0.090088649,0,0,1.3431471586227417,0,0,0.8408399820327759
0.090422406,0,0,1.3431471586227417,0,0,0.152879998087883
0.090757995,0,0,1.3431471586227417,0,0,0.4586400091648102
0.091091566,0,0,1.3431471586227417,0,0,0.9172800183296204
0.091422008,0,0,1.3431471586227417,0,0,0.6879600286483765
0.091758931,0,0,1.3431471586227417,0,0,0.6879600286483765
0.092092372,0,0,1.2497732639312744,0,0,0.5350799560546875
0.092421814,0,0,1.2497732639312744,0,0,0.611519992351532
0.092759755,0,0,1.2497732639312744,0,0,0.6879600286483765
0.093097141,0,0,1.2497732639312744,0,0,0.305759996175766
0.093422027,0,0,1.2497732639312744,0,0,1.1466000080108643
0.093759727,0,0,1.2497732639312744,0,0,0.8408399820327759
0.094093169,0,0,1.2497732639312744,0,0,0.9937199950218201
0.094420481,0,0,1.0845733880996704,0,0,0.4586400091648102
0.094758311,0,0,1.0845733880996704,0,0,0.305759996175766
0.09508966,0,0,1.0845733880996704,0,0,0.611519992351532
0.095420361,0,0,1.0845733880996704,0,0,1.6816799640655518
0.095757395,0,0,1.0845733880996704,0,0,1.375920057296753
0.096088651,0,0,1.0845733880996704,0,0,1.605239987373352
0.0964205,0,0,1.0845733880996704,0,0,0.7644000053405762
0.096757404,0,0,1.1635819673538208,0,0,0.152879998087883
0.097088475,0,0,1.1635819673538208,0,0,0.3822000026702881
0.097420398,0,0,1.1635819673538208,0,0,1.452359914779663
0.097757414,0,0,1.1635819673538208,0,0,-0.2293200045824051
0.098088355,0,0,1.1635819673538208,0,0,1.1466000080108643
0.098422648,0,0,1.1635819673538208,0,0,2.2932000160217285
0.098757275,0,0,1.1635819673538208,0,0,0.9172800183296204
0.099092957,0,0,1.357512354850769,0,0,0.8408399820327759
0.099421547,0,0,1.357512354850769,0,0,0.4586400091648102
0.099758896,0,0,1.357512354850769,0,0,0.5350799560546875
0.100092633,0,0,1.357512354850769,0,0,1.1466000080108643
0.100421556,0,0,1.357512354850769,0,0,1.070159912109375
0.100758683,0,0,1.357512354850769,0,0,0.4586400091648102
0.101092235,0,0,1.357512354850769,0,0,0.305759996175766
0.101421381,0,0,1.4532804489135742,0,0,0.611519992351532
0.101758915,0,0,1.4532804489135742,0,0,0.7644000053405762
0.102091726,0,0,1.4532804489135742,0,0,0.7644000053405762
0.102421538,0,0,1.4532804489135742,0,0,0.611519992351532
0.102758554,0,0,1.4532804489135742,0,0,0.7644000053405762
0.103091754,0,0,1.4532804489135742,0,0,0.611519992351532
0.103424196,0,0,1.4532804489135742,0,0,0.5350799560546875
0.103758841,0,0,1.479616641998291,0,0,1.1466000080108643
0.104091782,0,0,1.479616641998291,0,0,1.223039984703064
0.10442152,0,0,1.479616641998291,0,0,0.7644000053405762
0.104758591,0,0,1.479616641998291,0,0,0.8408399820327759
0.105091699,0,0,1.479616641998291,0,0,0.5350799560546875
0.105421622,0,0,1.479616641998291,0,0,0.3822000026702881
0.105758693,0,0,1.479616641998291,0,0,1.070159912109375
0.106091838,0,0,1.4748282432556152,0,0,0.4586400091648102
0.106421428,0,0,1.4748282432556152,0,0,1.375920057296753
0.106758573,0,0,1.4748282432556152,0,0,0.6879600286483765
0.107091385,0,0,1.4748282432556152,0,0,1.452359914779663
0.107421493,0,0,1.4748282432556152,0,0,0.4586400091648102
0.107758305,0,0,1.4748282432556152,0,0,0
0.108092746,0,0,1.4748282432556152,0,0,0.2293200045824051
0.10842204,0,0,1.4939818382263184,0,0,0.9937199950218201
0.108758518,0,0,1.4939818382263184,0,0,0.8408399820327759
0.109091293,0,0,1.4939818382263184,0,0,0.9172800183296204
0.109421586,0,0,1.4939818382263184,0,0,1.223039984703064
0.109760102,0,0,1.4939818382263184,0,0,0.2293200045824051
0.110095395,0,0,1.4939818382263184,0,0,1.452359914779663
0.110422947,0,0,1.4939818382263184,0,0,9.172800064086914
0.110755352,0,0,1.1803414821624756,0,0,0.8408399820327759
0.111092812,0,0,1.1803414821624756,0,0,0.8408399820327759
0.111421679,0,0,1.1803414821624756,0,0,0.4586400091648102
0.111757009,0,0,1.1803414821624756,0,0,0.3822000026702881
0.112095951,0,0,1.1803414821624756,0,0,0.8408399820327759
0.112422596,0,0,1.1803414821624756,0,0,0.8408399820327759
0.112755537,0,0,1.1803414821624756,0,0,0.7644000053405762
0.113094497,0,0,1.2641384601593018,0,0,1.070159912109375
0.113423124,0,0,1.2641384601593018,0,0,0.7644000053405762
0.11376951,0,0,1.2641384601593018,0,0,0.611519992351532
0.114104488,0,0,1.2641384601593018,0,0,0.5350799560546875
0.114432004,0,0,1.2641384601593018,0,0,0.8408399820327759
0.11476426,0,0,1.2641384601593018,0,0,0.6879600286483765
0.115096498,0,0,1.2641384601593018,0,0,0.4586400091648102
0.115440643,0,0,1.2306196689605713,0,0,0.9937199950218201
0.115772751,0,0,1.2306196689605713,0,0,0.611519992351532
0.116096081,0,0,1.2306196689605713,0,0,1.223039984703064
0.116441578,0,0,1.2306196689605713,0,0,0.9937199950218201
0.116900519,0,0,1.2306196689605713,0,0,0.7644000053405762
0.117110757,0,0,1.2306196689605713,0,0,0.611519992351532
0.117446254,0,0,1.2306196689605713,0,0,0.8408399820327759
0.117765103,0,0,1.070208191871643,0,0,0.9172800183296204
0.118104434,0,0,1.070208191871643,0,0,0.9172800183296204
0.118427375,0,0,1.070208191871643,0,0,1.223039984703064
0.11877565,0,0,1.070208191871643,0,0,0.5350799560546875
0.119102388,0,0,1.070208191871643,0,0,0.9937199950218201
0.119436903,0,0,1.070208191871643,0,0,0.152879998087883
0.119772696,0,0,1.070208191871643,0,0,0.611519992351532
0.120088582,0,0,1.1683704853057861,0,0,0.9172800183296204
0.120421228,0,0,1.1683704853057861,0,0,0.4586400091648102
0.120765891,0,0,1.1683704853057861,0,0,0.305759996175766
0.121093462,0,0,1.1683704853057861,0,0,0.4586400091648102
0.121429441,0,0,1.1683704853057861,0,0,1.5288000106811523
0.121763715,0,0,1.1683704853057861,0,0,2.06387996673584
0.122101305,0,0,1.1683704853057861,0,0,-0.2293200045824051
0.122436894,0,0,1.2210428714752197,0,0,1.452359914779663
0.122755873,0,0,1.2210428714752197,0,0,1.070159912109375
0.123098944,0,0,1.2210428714752197,0,0,0.9172800183296204
0.123421386,0,0,1.2210428714752197,0,0,0.6879600286483765
0.123754827,0,0,1.2210428714752197,0,0,0.8408399820327759
0.124098046,0,0,1.2210428714752197,0,0,0.6879600286483765
0.124421525,0,0,1.2210428714752197,0,0,0.611519992351532
0.124945279,0,0,1.3479355573654175,0,0,0.2293200045824051
0.125090333,0,0,1.3479355573654175,0,0,0.8408399820327759
0.125421627,0,0,1.3479355573654175,0,0,0.8408399820327759
0.125757772,0,0,1.3479355573654175,0,0,0.6879600286483765
0.12609575,0,0,1.3479355573654175,0,0,0.7644000053405762
0.126421525,0,0,1.3479355573654175,0,0,0.6879600286483765
0.1267548,0,0,1.3479355573654175,0,0,0.7644000053405762
0.127092334,0,0,1.3479355573654175,0,0,0.8408399820327759
0.127421331,0,0,1.3479355573654175,0,0,1.1466000080108643
0.127758606,0,0,1.3479355573654175,0,0,1.1466000080108643
0.128091732,0,0,1.3479355573654175,0,0,1.1466000080108643
0.12842147,0,0,1.3479355573654175,0,0,0.7644000053405762
0.128758467,0,0,1.3479355573654175,0,0,0.5350799560546875
0.129091649,0,0,1.3479355573654175,0,0,0.9172800183296204
0.129421387,0,0,1.436521053314209,0,0,0.6879600286483765
0.129758588,0,0,1.436521053314209,0,0,0.9172800183296204
0.130091362,0,0,1.436521053314209,0,0,0.5350799560546875
0.130421878,0,0,1.436521053314209,0,0,1.375920057296753
0.130758727,0,0,1.436521053314209,0,0,1.1466000080108643
0.131091668,0,0,1.436521053314209,0,0,0.7644000053405762
0.131421684,0,0,1.436521053314209,0,0,0.3822000026702881
0.131758625,0,0,1.7094600200653076,0,0,0.2293200045824051
0.132091585,0,0,1.7094600200653076,0,0,0.7644000053405762
0.132421397,0,0,1.7094600200653076,0,0,1.070159912109375
0.132758561,0,0,1.7094600200653076,0,0,0.611519992351532
0.133091483,0,0,1.7094600200653076,0,0,-0.152879998087883
0.133421425,0,0,1.7094600200653076,0,0,1.2994799613952637
0.133758718,0,0,1.7094600200653076,0,0,0.305759996175766
0.134091511,0,0,1.5466543436050415,0,0,1.8345600366592407
0.134424749,0,0,1.5466543436050415,0,0,9.631440162658691
0.134758691,0,0,1.5466543436050415,0,0,0
0.135093595,0,0,1.5466543436050415,0,0,0.6879600286483765
0.135421518,0,0,1.5466543436050415,0,0,0.6879600286483765
0.135759274,0,0,1.5466543436050415,0,0,1.1466000080108643
0.136092068,0,0,1.5466543436050415,0,0,0.8408399820327759
0.136421342,0,0,1.278503656387329,0,0,0.5350799560546875
0.13675895,0,0,1.278503656387329,0,0,0.7644000053405762
0.137091836,0,0,1.278503656387329,0,0,0.9937199950218201
0.13742137,0,0,1.278503656387329,0,0,0.8408399820327759
0.137759275,0,0,1.278503656387329,0,0,1.223039984703064
0.138092772,0,0,1.278503656387329,0,0,0.9172800183296204
0.138421528,0,0,1.278503656387329,0,0,0.9937199950218201
0.138758506,0,0,1.3503297567367554,0,0,0.8408399820327759
0.139091818,0,0,1.3503297567367554,0,0,0.9937199950218201
0.13942163,0,0,1.3503297567367554,0,0,0.7644000053405762
0.139758683,0,0,1.3503297567367554,0,0,0.5350799560546875
0.140092105,0,0,1.3503297567367554,0,0,0.6879600286483765
0.140421436,0,0,1.3503297567367554,0,0,0.9937199950218201
0.140758488,0,0,1.3503297567367554,0,0,0.611519992351532
0.141091782,0,0,1.158793568611145,0,0,0.305759996175766
0.141421593,0,0,1.158793568611145,0,0,0.6879600286483765
0.141758331,0,0,1.158793568611145,0,0,0.611519992351532
0.142091699,0,0,1.158793568611145,0,0,1.2994799613952637
0.142421381,0,0,1.158793568611145,0,0,0.3822000026702881
0.142758581,0,0,1.158793568611145,0,0,0.2293200045824051
0.143092134,0,0,1.158793568611145,0,0,0.2293200045824051
0.143421335,0,0,1.0797849893569946,0,0,0.611519992351532
0.143772239,0,0,1.0797849893569946,0,0,1.2994799613952637
0.144092236,0,0,1.0797849893569946,0,0,0.0764399990439415
0.144425585,0,0,1.0797849893569946,0,0,0.8408399820327759
0.144757415,0,0,1.0797849893569946,0,0,0.6879600286483765
0.145092208,0,0,1.0797849893569946,0,0,9.631440162658691
0.14542528,0,0,1.0797849893569946,0,0,0.4586400091648102
0.14575474,0,0,1.091755986213684,0,0,1.452359914779663
0.146091736,0,0,1.091755986213684,0,0,1.223039984703064
0.146424956,0,0,1.091755986213684,0,0,0
0.146754823,0,0,1.091755986213684,0,0,1.9109998941421509
0.147091727,0,0,1.091755986213684,0,0,0.2293200045824051
0.147425317,0,0,1.091755986213684,0,0,0.9172800183296204
0.147754481,0,0,1.2330138683319092,0,0,0.9937199950218201
0.148091848,0,0,1.2330138683319092,0,0,0.9172800183296204
0.148426289,0,0,1.2330138683319092,0,0,0.6879600286483765
0.148754787,0,0,1.2330138683319092,0,0,0.9937199950218201
0.149091691,0,0,1.2330138683319092,0,0,0.9172800183296204
0.149425355,0,0,1.2330138683319092,0,0,0.8408399820327759
0.149754796,0,0,1.2330138683319092,0,0,0.6879600286483765
0.150091886,0,0,1.5418659448623657,0,0,0.7644000053405762
0.150425142,0,0,1.5418659448623657,0,0,0.7644000053405762
0.150754787,0,0,1.5418659448623657,0,0,0.5350799560546875
0.151091636,0,0,1.5418659448623657,0,0,1.070159912109375
0.151425114,0,0,1.5418659448623657,0,0,0.8408399820327759
0.151754574,0,0,1.5418659448623657,0,0,0.8408399820327759
0.152091868,0,0,1.5418659448623657,0,0,0.6879600286483765
0.152424716,0,0,1.5682021379470825,0,0,0.6879600286483765
0.152755158,0,0,1.5682021379470825,0,0,0.7644000053405762
0.153091988,0,0,1.5682021379470825,0,0,0.8408399820327759
0.153425059,0,0,1.5682021379470825,0,0,0.611519992351532
0.153754927,0,0,1.5682021379470825,0,0,0.5350799560546875
0.154091831,0,0,1.5682021379470825,0,0,0.611519992351532
0.154424643,0,0,1.5682021379470825,0,0,0.4586400091648102
0.154754973,0,0,1.6903064250946045,0,0,0.8408399820327759
0.15509397,0,0,1.6903064250946045,0,0,0.305759996175766
0.155426763,0,0,1.6903064250946045,0,0,0.9172800183296204
0.155755409,0,0,1.6903064250946045,0,0,0.5350799560546875
0.156092183,0,0,1.6903064250946045,0,0,0
0.156424773,0,0,1.6903064250946045,0,0,0.3822000026702881
0.156754733,0,0,1.6903064250946045,0,0,0.9937199950218201
0.157092045,0,0,1.6065093278884888,0,0,1.605239987373352
0.157426023,0,0,1.6065093278884888,0,0,0.152879998087883
0.157754687,0,0,1.6065093278884888,0,0,0.2293200045824051
0.158091924,0,0,1.6065093278884888,0,0,0.305759996175766
0.158424996,0,0,1.6065093278884888,0,0,1.1466000080108643
0.158755363,0,0,1.6065093278884888,0,0,-0.6879600286483765
0.159091693,0,0,1.6065093278884888,0,0,1.758120059967041
0.159424598,0,0,1.316810965538025,0,0,0.8408399820327759
0.159754854,0,0,1.316810965538025,0,0,0.9172800183296204
0.160091666,0,0,1.316810965538025,0,0,0.5350799560546875
0.160424718,0,0,1.316810965538025,0,0,0.6879600286483765
0.160754586,0,0,1.316810965538025,0,0,0.7644000053405762
0.161092138,0,0,1.316810965538025,0,0,0.6879600286483765
0.161424968,0,0,1.316810965538025,0,0,0.8408399820327759
0.161754595,0,0,1.2689268589019775,0,0,0.8408399820327759
0.162092148,0,0,1.2689268589019775,0,0,0.6879600286483765
0.162425015,0,0,1.2689268589019775,0,0,0.611519992351532
0.162754901,0,0,1.2689268589019775,0,0,0.611519992351532
0.163091935,0,0,1.2689268589019775,0,0,0.9172800183296204
0.163424895,0,0,1.2689268589019775,0,0,1.1466000080108643
0.163754762,0,0,1.2689268589019775,0,0,0.6879600286483765
0.164091889,0,0,1.2090718746185303,0,0,0.152879998087883
0.164424812,0,0,1.2090718746185303,0,0,0.4586400091648102
0.164754475,0,0,1.2090718746185303,0,0,0.6879600286483765
0.165098509,0,0,1.2090718746185303,0,0,0.6879600286483765
0.165433599,0,0,1.2090718746185303,0,0,0.9937199950218201
0.165754633,0,0,1.2090718746185303,0,0,0.5350799560546875
0.166088482,0,0,1.2090718746185303,0,0,0.305759996175766
0.166425849,0,0,1.0438719987869263,0,0,0.8408399820327759
0.166754531,0,0,1.0438719987869263,0,0,0.3822000026702881
0.167092417,0,0,1.0438719987869263,0,0,0.6879600286483765
0.167425451,0,0,1.0438719987869263,0,0,0.4586400091648102
0.167754874,0,0,1.0438719987869263,0,0,1.1466000080108643
0.168091742,0,0,1.0438719987869263,0,0,1.070159912109375
0.168425424,0,0,1.0438719987869263,0,0,1.070159912109375
0.168754921,0,0,1.0462661981582642,0,0,0.4586400091648102
0.169092029,0,0,1.0462661981582642,0,0,0.305759996175766
0.169425174,0,0,1.0462661981582642,0,0,1.5288000106811523
0.169754653,0,0,1.0462661981582642,0,0,1.2994799613952637
0.170091835,0,0,1.0462661981582642,0,0,1.5288000106811523
0.170426572,0,0,1.0462661981582642,0,0,0.3822000026702881
0.170754718,0,0,1.0462661981582642,0,0,1.758120059967041
0.171129048,0,0,1.2449848651885986,0,0,0.305759996175766
0.171427249,0,0,1.2449848651885986,0,0,0.152879998087883
0.171760357,0,0,1.2449848651885986,0,0,0.8408399820327759
0.172087928,0,0,1.2449848651885986,0,0,0.5350799560546875
0.172425758,0,0,1.2449848651885986,0,0,1.1466000080108643
0.17275894,0,0,1.2449848651885986,0,0,0.6879600286483765
0.173088011,0,0,1.2449848651885986,0,0,0.6879600286483765
0.173425545,0,0,1.4413094520568848,0,0,0.611519992351532
0.173758746,0,0,1.4413094520568848,0,0,1.070159912109375
0.174088336,0,0,1.4413094520568848,0,0,1.1466000080108643
0.174425258,0,0,1.4413094520568848,0,0,0.2293200045824051
0.174759089,0,0,1.4413094520568848,0,0,0
0.175088049,0,0,1.4413094520568848,0,0,0.6879600286483765
0.175425379,0,0,1.4413094520568848,0,0,0.9937199950218201
0.175760969,0,0,1.4413094520568848,0,0,0.5350799560546875
0.176088225,0,0,1.4413094520568848,0,0,0.8408399820327759
0.176425981,0,0,1.4413094520568848,0,0,0.7644000053405762
0.176772089,0,0,1.4413094520568848,0,0,0.6879600286483765
0.177112493,0,0,1.4413094520568848,0,0,0.3822000026702881
0.177427102,0,0,1.4413094520568848,0,0,0.8408399820327759
0.177756765,0,0,1.4413094520568848,0,0,0.4586400091648102
0.178102614,0,0,1.3503297567367554,0,0,0.9172800183296204
0.17938814,0,0,1.3503297567367554,0,0,0.9172800183296204
0.179412065,0,0,1.3503297567367554,0,0,0.9172800183296204
0.179434954,0,0,1.3503297567367554,0,0,0.9172800183296204
0.179472065,0,0,1.3503297567367554,0,0,0.9172800183296204
0.179792766,0,0,1.3503297567367554,0,0,0.9172800183296204
0.180101911,0,0,1.3503297567367554,0,0,0.5350799560546875
0.180443278,0,0,1.5322890281677246,0,0,1.070159912109375
0.180757849,0,0,1.5322890281677246,0,0,0
0.181136087,0,0,1.5322890281677246,0,0,1.375920057296753
0.181452195,0,0,1.5322890281677246,0,0,9.631440162658691
0.181779322,0,0,1.5322890281677246,0,0,0.7644000053405762
0.182366502,0,0,1.5322890281677246,0,0,0.7644000053405762
0.182389927,0,0,1.5322890281677246,0,0,0.2293200045824051
0.182759239,0,0,1.479616641998291,0,0,0
0.183090143,0,0,1.479616641998291,0,0,-0.5350799560546875
0.183424751,0,0,1.479616641998291,0,0,0
0.183765748,0,0,1.479616641998291,0,0,0.6879600286483765
0.184090356,0,0,1.479616641998291,0,0,0.7644000053405762
0.184423465,0,0,1.479616641998291,0,0,1.452359914779663
0.18476411,0,0,1.479616641998291,0,0,0.611519992351532
0.185089514,0,0,1.2545616626739502,0,0,0
0.185422511,0,0,1.2545616626739502,0,0,0.5350799560546875
0.185766841,0,0,1.2545616626739502,0,0,0.7644000053405762
0.186095875,0,0,1.2545616626739502,0,0,0.611519992351532
0.186423706,0,0,1.2545616626739502,0,0,0.8408399820327759
0.186760332,0,0,1.2545616626739502,0,0,0.9937199950218201
0.1870992,0,0,1.2545616626739502,0,0,0.5350799560546875
0.187422678,0,0,1.2449848651885986,0,0,0.4586400091648102
0.187756157,0,0,1.161187767982483,0,0,0.611519992351532
0.188099061,0,0,1.161187767982483,0,0,0.4586400091648102
0.188422373,0,0,1.05105459690094,0,0,0.8408399820327759
0.188761333,0,0,1.05105459690094,0,0,0.9937199950218201
0.189105367,0,0,1.05105459690094,0,0,0.4586400091648102
0.18943603,0,0,1.05105459690094,0,0,0.6879600286483765
0.189758194,0,0,1.05105459690094,0,0,1.1466000080108643
0.190090228,0,0,1.05105459690094,0,0,0.8408399820327759
0.19043267,0,0,1.05105459690094,0,0,0.611519992351532
0.190757352,0,0,1.1755530834197998,0,0,0.8408399820327759
0.191089701,0,0,1.1755530834197998,0,0,0.5350799560546875
0.191430568,0,0,1.1755530834197998,0,0,1.452359914779663
0.191755361,0,0,1.1755530834197998,0,0,1.2994799613952637
0.192090506,0,0,1.1755530834197998,0,0,1.2994799613952637
0.192432929,0,0,1.1755530834197998,0,0,0.2293200045824051
0.19282924,0,0,1.1755530834197998,0,0,1.605239987373352
0.193090849,0,0,1.235408067703247,0,0,1.1466000080108643
0.193424717,0,0,1.235408067703247,0,0,0.4586400091648102
0.193764843,0,0,1.235408067703247,0,0,0.8408399820327759
0.194108155,0,0,1.235408067703247,0,0,-0.152879998087883
0.194428504,0,0,1.235408067703247,0,0,0.5350799560546875
0.194764908,0,0,1.235408067703247,0,0,0.305759996175766
0.195106275,0,0,1.235408067703247,0,0,0
0.195424069,0,0,1.434126853942871,0,0,1.8345600366592407
0.195757955,0,0,1.434126853942871,0,0,0.2293200045824051
0.196112266,0,0,1.434126853942871,0,0,0.611519992351532
0.196433023,0,0,1.434126853942871,0,0,0.9172800183296204
0.196762353,0,0,1.434126853942871,0,0,0.305759996175766
0.197095072,0,0,1.434126853942871,0,0,0.8408399820327759
0.197435569,0,0,1.434126853942871,0,0,0.9937199950218201
0.197758511,0,0,1.534683346748352,0,0,0.9172800183296204
0.198089674,0,0,1.534683346748352,0,0,0.3822000026702881
0.198441893,0,0,1.534683346748352,0,0,0.5350799560546875
0.198757465,0,0,1.534683346748352,0,0,0.7644000053405762
0.199091091,0,0,1.534683346748352,0,0,0.5350799560546875
0.19943531,0,0,1.534683346748352,0,0,0.611519992351532
0.199754974,0,0,1.534683346748352,0,0,0.9937199950218201
0.200089527,0,0,1.5394717454910278,0,0,0.9937199950218201
0.200449061,0,0,1.5394717454910278,0,0,0.611519992351532
0.200760984,0,0,1.5394717454910278,0,0,0.9172800183296204
0.201088221,0,0,1.5394717454910278,0,0,0.5350799560546875
0.201433978,0,0,1.5394717454910278,0,0,0.7644000053405762
0.20175566,0,0,1.5394717454910278,0,0,1.223039984703064
0.202087805,0,0,1.5394717454910278,0,0,1.2994799613952637
0.202433061,0,0,1.6879122257232666,0,0,1.070159912109375
0.202754762,0,0,1.6879122257232666,0,0,0.6879600286483765
0.20308787,0,0,1.6879122257232666,0,0,0.4586400091648102
0.203430367,0,0,1.6879122257232666,0,0,0.152879998087883
0.203755012,0,0,1.6879122257232666,0,0,0.2293200045824051
0.204087898,0,0,1.6879122257232666,0,0,0.8408399820327759
0.204424173,0,0,1.6879122257232666,0,0,0.0764399990439415
0.204754725,0,0,1.3431471586227417,0,0,0.8408399820327759
0.205091741,0,0,1.3431471586227417,0,0,1.375920057296753
0.205424219,0,0,1.3431471586227417,0,0,1.070159912109375
0.205754624,0,0,1.3431471586227417,0,0,0.7644000053405762
0.206091787,0,0,1.3431471586227417,0,0,0.2293200045824051
0.206426044,0,0,1.3431471586227417,0,0,0.6879600286483765
0.2067593,0,0,1.3431471586227417,0,0,-0.305759996175766
0.207092112,0,0,1.357512354850769,0,0,1.2994799613952637
0.20742509,0,0,1.357512354850769,0,0,-0.611519992351532
0.207754772,0,0,1.357512354850769,0,0,1.9109998941421509
0.208092603,0,0,1.357512354850769,0,0,0.7644000053405762
0.208435711,0,0,1.357512354850769,0,0,0.6879600286483765
0.210303749,0,0,1.357512354850769,0,0,0.6879600286483765
0.210327453,0,0,1.357512354850769,0,0,0.6879600286483765
0.21035049,0,0,1.2737152576446533,0,0,2.2932000160217285
0.210372952,0,0,1.2737152576446533,0,0,2.2932000160217285
0.2103961,0,0,1.2737152576446533,0,0,2.2932000160217285
0.210418933,0,0,1.2737152576446533,0,0,0.8408399820327759
0.210772356,0,0,1.2737152576446533,0,0,1.1466000080108643
0.211111983,0,0,1.2737152576446533,0,0,1.223039984703064
0.211429221,0,0,1.2737152576446533,0,0,0.9172800183296204
0.211758569,0,0,1.1635819673538208,0,0,0.9937199950218201
0.212096437,0,0,1.1635819673538208,0,0,1.223039984703064
0.21242823,0,0,1.1635819673538208,0,0,0.8408399820327759
0.212769301,0,0,1.1635819673538208,0,0,0.7644000053405762
0.213217519,0,0,1.1635819673538208,0,0,1.375920057296753
0.213426869,0,0,1.1635819673538208,0,0,0.4586400091648102
0.213754051,0,0,1.1635819673538208,0,0,0.611519992351532
0.214087789,0,0,1.1851298809051514,0,0,0.4586400091648102
0.214420953,0,0,1.1851298809051514,0,0,0.5350799560546875
0.214794283,0,0,1.1851298809051514,0,0,1.223039984703064
0.215101891,0,0,1.1851298809051514,0,0,0.9172800183296204
0.215425685,0,0,1.1851298809051514,0,0,0.3822000026702881
0.215754719,0,0,1.1851298809051514,0,0,1.070159912109375
0.216090104,0,0,1.1851298809051514,0,0,1.605239987373352
0.216423694,0,0,1.2090718746185303,0,0,0.4586400091648102
0.216754728,0,0,1.2090718746185303,0,0,-0.2293200045824051
0.217096669,0,0,1.2090718746185303,0,0,-0.305759996175766
0.21742287,0,0,1.2090718746185303,0,0,0.2293200045824051
0.217754201,0,0,1.2090718746185303,0,0,1.070159912109375
0.218088068,0,0,1.2090718746185303,0,0,1.2994799613952637
0.218429194,0,0,1.3455413579940796,0,0,0.0764399990439415
0.218755358,0,0,1.3455413579940796,0,0,0.305759996175766
0.2190943,0,0,1.3455413579940796,0,0,0.6879600286483765
0.219432037,0,0,1.3455413579940796,0,0,-0.7644000053405762
0.21976346,0,0,1.3455413579940796,0,0,1.758120059967041
0.220102939,0,0,1.3455413579940796,0,0,0.9937199950218201
0.220424602,0,0,1.3455413579940796,0,0,0.9172800183296204
0.220756192,0,0,1.4676456451416016,0,0,0.611519992351532
0.221090226,0,0,1.4676456451416016,0,0,0.9172800183296204
0.221421927,0,0,1.4676456451416016,0,0,1.070159912109375
0.221753701,0,0,1.4676456451416016,0,0,1.070159912109375
0.222088384,0,0,1.4676456451416016,0,0,0.8408399820327759
0.222427232,0,0,1.4676456451416016,0,0,0.8408399820327759
0.222758748,0,0,1.4676456451416016,0,0,0.8408399820327759
0.223096523,0,0,1.4915876388549805,0,0,0.7644000053405762
0.223430242,0,0,1.4915876388549805,0,0,0.8408399820327759
0.223761072,0,0,1.4915876388549805,0,0,0.9937199950218201
0.224090014,0,0,1.4915876388549805,0,0,0.6879600286483765
0.224427566,0,0,1.4915876388549805,0,0,0.611519992351532
0.224760174,0,0,1.4915876388549805,0,0,0.7644000053405762
0.225095523,0,0,1.4915876388549805,0,0,0.8408399820327759
0.225435187,0,0,1.558625340461731,0,0,0.611519992351532
0.225762887,0,0,1.558625340461731,0,0,0.4586400091648102
0.226094773,0,0,1.558625340461731,0,0,0.5350799560546875
0.226439067,0,0,1.558625340461731,0,0,0.4586400091648102
0.226766064,0,0,1.558625340461731,0,0,0.9172800183296204
0.227096375,0,0,1.558625340461731,0,0,0.2293200045824051
0.227431946,0,0,1.558625340461731,0,0,0.152879998087883
0.22776648,0,0,1.3934253454208374,0,0,0
0.228094366,0,0,1.3934253454208374,0,0,0.4586400091648102
0.228430808,0,0,1.3934253454208374,0,0,0.8408399820327759
0.228757675,0,0,1.3934253454208374,0,0,0.305759996175766
0.229087154,0,0,1.3934253454208374,0,0,1.070159912109375
0.229421003,0,0,1.3934253454208374,0,0,0.7644000053405762
0.229752592,0,0,1.3934253454208374,0,0,-0.152879998087883
0.230085645,0,0,1.2617442607879639,0,0,0.2293200045824051
0.230420401,0,0,1.2617442607879639,0,0,0.2293200045824051
0.23075262,0,0,1.2617442607879639,0,0,1.1466000080108643
0.231085617,0,0,1.2617442607879639,0,0,1.6816799640655518
0.231418725,0,0,1.2617442607879639,0,0,1.375920057296753
0.2317525,0,0,1.2617442607879639,0,0,0.3822000026702881
0.232085515,0,0,1.2617442607879639,0,0,1.605239987373352
0.232418587,0,0,1.3048399686813354,0,0,0
0.23275238,0,0,1.3048399686813354,0,0,0.6879600286483765
0.233085284,0,0,1.3048399686813354,0,0,1.070159912109375
0.233418837,0,0,1.3048399686813354,0,0,0.7644000053405762
0.233752149,0,0,1.3048399686813354,0,0,0.8408399820327759
0.234085331,0,0,1.3048399686813354,0,0,0.7644000053405762
0.23442055,0,0,1.3048399686813354,0,0,0.6879600286483765
0.234752121,0,0,1.1779472827911377,0,0,0.7644000053405762
0.235086599,0,0,1.1779472827911377,0,0,0.5350799560546875
0.235419411,0,0,1.1779472827911377,0,0,0.6879600286483765
0.235752316,0,0,1.1779472827911377,0,0,0.611519992351532
0.236085905,0,0,1.1779472827911377,0,0,0.5350799560546875
0.236418736,0,0,1.1779472827911377,0,0,0.6879600286483765
0.236752103,0,0,1.1779472827911377,0,0,0.8408399820327759
0.237085915,0,0,1.1085153818130493,0,0,1.070159912109375
0.237418764,0,0,1.1085153818130493,0,0,0.5350799560546875
0.23775652,0,0,1.1085153818130493,0,0,0.2293200045824051
0.238086535,0,0,1.1085153818130493,0,0,0.2293200045824051
0.238419236,0,0,1.1085153818130493,0,0,0.6879600286483765
0.238752215,0,0,1.1085153818130493,0,0,0.9937199950218201
0.239086082,0,0,1.1085153818130493,0,0,0.9172800183296204
0.239418727,0,0,1.2066776752471924,0,0,0.3822000026702881
0.239752224,0,0,1.2066776752471924,0,0,0.8408399820327759
0.240086054,0,0,1.2066776752471924,0,0,0.305759996175766
0.240418959,0,0,1.2066776752471924,0,0,0.305759996175766
0.240752178,0,0,1.2066776752471924,0,0,1.1466000080108643
0.241085693,0,0,1.2066776752471924,0,0,1.070159912109375
0.241419024,0,0,1.2066776752471924,0,0,1.2994799613952637
0.241751947,0,0,1.2665326595306396,0,0,1.1466000080108643
0.242085444,0,0,1.2665326595306396,0,0,0.3822000026702881
0.242420644,0,0,1.2665326595306396,0,0,0.7644000053405762
0.242752438,0,0,1.2665326595306396,0,0,0.6879600286483765
0.243085509,0,0,1.2665326595306396,0,0,0.4586400091648102
0.243419135,0,0,1.2665326595306396,0,0,0.6879600286483765
0.243780447,0,0,1.2665326595306396,0,0,-0.5350799560546875
0.244092851,0,0,1.434126853942871,0,0,0.2293200045824051
0.244427274,0,0,1.434126853942871,0,0,0.152879998087883
0.244753938,0,0,1.434126853942871,0,0,1.9874399900436401
0.245086139,0,0,1.434126853942871,0,0,0.7644000053405762
0.245419488,0,0,1.434126853942871,0,0,0.9937199950218201
0.24575504,0,0,1.434126853942871,0,0,0.7644000053405762
0.246183703,0,0,1.434126853942871,0,0,0.6879600286483765
0.246421886,0,0,1.4724340438842773,0,0,0.5350799560546875
0.246752457,0,0,1.4724340438842773,0,0,0.611519992351532
0.247085695,0,0,1.4724340438842773,0,0,0.7644000053405762
0.247419525,0,0,1.4724340438842773,0,0,1.070159912109375
0.247752318,0,0,1.4724340438842773,0,0,1.070159912109375
0.248090908,0,0,1.4724340438842773,0,0,0.2293200045824051
0.24841922,0,0,1.4724340438842773,0,0,0.0764399990439415
0.248752569,0,0,1.479616641998291,0,0,0.9172800183296204
0.249085751,0,0,1.479616641998291,0,0,0.611519992351532
0.249418729,0,0,1.479616641998291,0,0,0.9172800183296204
0.249753004,0,0,1.479616641998291,0,0,0.7644000053405762
0.250103612,0,0,1.479616641998291,0,0,0.5350799560546875
0.250423868,0,0,1.479616641998291,0,0,1.070159912109375
0.250754569,0,0,1.479616641998291,0,0,0.5350799560546875
0.251087085,0,0,1.6615760326385498,0,0,0.5350799560546875
0.25142047,0,0,1.6615760326385498,0,0,0.6879600286483765
0.251754171,0,0,1.6615760326385498,0,0,0.8408399820327759
0.252086964,0,0,1.6615760326385498,0,0,0.7644000053405762
0.252420184,0,0,1.6615760326385498,0,0,1.070159912109375
0.252754292,0,0,1.6615760326385498,0,0,1.375920057296753
0.253087029,0,0,1.6615760326385498,0,0,0.7644000053405762
0.253420249,0,0,1.3287819623947144,0,0,0.8408399820327759
0.253754246,0,0,1.3287819623947144,0,0,0.152879998087883
0.254086946,0,0,1.3287819623947144,0,0,0.305759996175766
0.254420351,0,0,1.3287819623947144,0,0,0.9937199950218201
0.254754014,0,0,1.3287819623947144,0,0,1.1466000080108643
0.255086882,0,0,1.3287819623947144,0,0,1.5288000106811523
0.255420249,0,0,1.3192051649093628,0,0,0.3822000026702881
0.255753598,0,0,1.3192051649093628,0,0,0.152879998087883
0.256087132,0,0,1.3192051649093628,0,0,0
0.256425388,0,0,1.3192051649093628,0,0,1.8345600366592407
0.256767496,0,0,1.3192051649093628,0,0,0
0.257092567,0,0,1.3192051649093628,0,0,0.7644000053405762
0.257427435,0,0,1.3192051649093628,0,0,0.4586400091648102
0.257762895,0,0,1.3311761617660522,0,0,0.611519992351532
0.25809304,0,0,1.3311761617660522,0,0,0.9172800183296204
0.25843837,0,0,1.3311761617660522,0,0,0.6879600286483765
0.258758923,0,0,1.3311761617660522,0,0,0.0764399990439415
0.259092975,0,0,1.3311761617660522,0,0,0.6879600286483765
0.259425917,0,0,1.3311761617660522,0,0,0.3822000026702881
0.259758988,0,0,1.094150185585022,0,0,0.5350799560546875
0.260089226,0,0,1.094150185585022,0,0,1.070159912109375
0.260424278,0,0,1.094150185585022,0,0,0.9172800183296204
0.260755071,0,0,1.094150185585022,0,0,0.8408399820327759
0.261089161,0,0,1.094150185585022,0,0,0.8408399820327759
0.261423806,0,0,1.094150185585022,0,0,0.7644000053405762
0.261758007,0,0,1.094150185585022,0,0,0.9937199950218201
0.262093615,0,0,1.1659762859344482,0,0,0.611519992351532
0.262425001,0,0,1.1659762859344482,0,0,0.4586400091648102
0.26275659,0,0,1.1659762859344482,0,0,0.9172800183296204
0.263091328,0,0,1.1659762859344482,0,0,0.9937199950218201
0.263425918,0,0,1.1659762859344482,0,0,0.9937199950218201
0.263757378,0,0,1.1659762859344482,0,0,1.223039984703064
0.264097134,0,0,1.256955862045288,0,0,1.070159912109375
0.264424927,0,0,1.256955862045288,0,0,0.8408399820327759
0.264755572,0,0,1.256955862045288,0,0,0.3822000026702881
0.265089106,0,0,1.256955862045288,0,0,1.2994799613952637
0.265423622,0,0,1.256955862045288,0,0,0.4586400091648102
0.2657566,0,0,1.256955862045288,0,0,0.7644000053405762
0.266089486,0,0,1.256955862045288,0,0,0.9937199950218201
0.266423446,0,0,1.256955862045288,0,0,1.375920057296753
0.266758702,0,0,1.4413094520568848,0,0,0.9172800183296204
0.267092181,0,0,1.4413094520568848,0,0,0.7644000053405762
0.267432659,0,0,1.4413094520568848,0,0,0.0764399990439415
0.267796619,0,0,1.4413094520568848,0,0,0.0764399990439415
0.268098061,0,0,1.4413094520568848,0,0,1.6816799640655518
0.268426724,0,0,1.4413094520568848,0,0,0
0.268763592,0,0,1.5203180313110352,0,0,2.2932000160217285
0.269091811,0,0,1.5203180313110352,0,0,1.9109998941421509
0.26942416,0,0,1.5203180313110352,0,0,0.6879600286483765
0.269757768,0,0,1.5203180313110352,0,0,0.9937199950218201
0.270095802,0,0,1.5203180313110352,0,0,0.7644000053405762
0.270434317,0,0,1.5203180313110352,0,0,0.9172800183296204
0.27076387,0,0,1.5203180313110352,0,0,0.7644000053405762
0.271094404,0,0,1.3862427473068237,0,0,0.7644000053405762
0.271435012,0,0,1.3862427473068237,0,0,0.8408399820327759
0.271773694,0,0,1.3862427473068237,0,0,0.9937199950218201
0.272103395,0,0,1.3862427473068237,0,0,0.8408399820327759
0.272439077,0,0,1.3862427473068237,0,0,1.070159912109375
0.272778185,0,0,1.3862427473068237,0,0,0.8408399820327759
0.273105997,0,0,1.3862427473068237,0,0,0.5350799560546875
0.273434661,0,0,1.5275006294250488,0,0,0.9172800183296204
0.273766602,0,0,1.5275006294250488,0,0,1.2994799613952637
0.274100192,0,0,1.5275006294250488,0,0,0.9172800183296204
0.274440688,0,0,1.5275006294250488,0,0,0.9172800183296204
0.274769445,0,0,1.5275006294250488,0,0,0.6879600286483765
0.275101368,0,0,1.5275006294250488,0,0,0.9172800183296204
0.275432865,0,0,1.5275006294250488,0,0,0.7644000053405762
0.275757251,0,0,1.4628572463989258,0,0,0.3822000026702881
0.276087766,0,0,1.4628572463989258,0,0,1.223039984703064
0.276421059,0,0,1.4628572463989258,0,0,0.8408399820327759
0.276756316,0,0,1.4628572463989258,0,0,0.9172800183296204
0.277088757,0,0,1.4628572463989258,0,0,0.5350799560546875
0.277419587,0,0,1.4628572463989258,0,0,0.611519992351532
0.277753881,0,0,1.2665326595306396,0,0,0
0.278090304,0,0,1.2665326595306396,0,0,0.0764399990439415
0.278425134,0,0,1.2665326595306396,0,0,0
0.278756205,0,0,1.2665326595306396,0,0,0.9172800183296204
0.279094109,0,0,1.2665326595306396,0,0,1.8345600366592407
0.279424088,0,0,1.2665326595306396,0,0,0.8408399820327759
0.279754511,0,0,1.2665326595306396,0,0,0.2293200045824051
0.280087156,0,0,1.381454348564148,0,0,0.0764399990439415
0.280419338,0,0,1.381454348564148,0,0,0.9172800183296204
0.280753057,0,0,1.381454348564148,0,0,1.5288000106811523
0.281086851,0,0,1.381454348564148,0,0,0.0764399990439415
0.281419496,0,0,1.381454348564148,0,0,2.06387996673584
0.281752937,0,0,1.381454348564148,0,0,0.611519992351532
0.28208686,0,0,1.381454348564148,0,0,0.3822000026702881
0.282421172,0,0,1.1851298809051514,0,0,0.611519992351532
0.282753428,0,0,1.1851298809051514,0,0,0.6879600286483765
0.283087277,0,0,1.1851298809051514,0,0,0.611519992351532
0.283419052,0,0,1.1851298809051514,0,0,0.611519992351532
0.283759789,0,0,1.1851298809051514,0,0,0.4586400091648102
0.284093638,0,0,1.1851298809051514,0,0,0.8408399820327759
0.284419561,0,0,1.1851298809051514,0,0,0.6879600286483765
0.28475278,0,0,1.0247182846069336,0,0,0.8408399820327759
0.285086444,0,0,1.0247182846069336,0,0,0.9172800183296204
0.285419941,0,0,1.0247182846069336,0,0,0.6879600286483765
0.285752808,0,0,1.0247182846069336,0,0,0.8408399820327759
0.286086009,0,0,1.0247182846069336,0,0,0.7644000053405762
0.286423006,0,0,1.0247182846069336,0,0,0.8408399820327759
0.286761985,0,0,1.0247182846069336,0,0,0.9172800183296204
0.287091019,0,0,1.1180921792984009,0,0,0.8408399820327759
0.287445904,0,0,1.1180921792984009,0,0,1.223039984703064
0.287776253,0,0,1.1180921792984009,0,0,0.9172800183296204
0.288091361,0,0,1.1180921792984009,0,0,0.4586400091648102
0.288426395,0,0,1.1180921792984009,0,0,1.070159912109375
0.288757392,0,0,1.1180921792984009,0,0,0.3822000026702881
0.289088408,0,0,1.1180921792984009,0,0,0.6879600286483765
0.289429572,0,0,1.2497732639312744,0,0,0.9937199950218201
0.289757717,0,0,1.2497732639312744,0,0,1.5288000106811523
0.290089899,0,0,1.2497732639312744,0,0,1.452359914779663
0.290431414,0,0,1.2497732639312744,0,0,-0.611519992351532
0.290759115,0,0,1.2497732639312744,0,0,0.9172800183296204
0.291089371,0,0,1.2497732639312744,0,0,0.4586400091648102
0.29142198,0,0,1.2497732639312744,0,0,0.2293200045824051
0.291755217,0,0,1.4413094520568848,0,0,1.1466000080108643
0.292087973,0,0,1.4413094520568848,0,0,1.758120059967041
0.292422156,0,0,1.4413094520568848,0,0,1.9109998941421509
0.292769264,0,0,1.4413094520568848,0,0,0.2293200045824051
0.293091242,0,0,1.4413094520568848,0,0,2.14031982421875
0.29342235,0,0,1.4413094520568848,0,0,0.5350799560546875
0.293755162,0,0,1.4413094520568848,0,0,0.7644000053405762
0.294090659,0,0,1.4915876388549805,0,0,0.7644000053405762
0.294428489,0,0,1.4915876388549805,0,0,0.7644000053405762
0.294758616,0,0,1.4915876388549805,0,0,0.8408399820327759
0.295089317,0,0,1.4915876388549805,0,0,1.223039984703064
0.295424277,0,0,1.4915876388549805,0,0,1.375920057296753
0.295759126,0,0,1.4915876388549805,0,0,0.9172800183296204
0.296090178,0,0,1.4915876388549805,0,0,0.9172800183296204
0.29642499,0,0,1.3527239561080933,0,0,0.7644000053405762
0.296757783,0,0,1.3527239561080933,0,0,0.7644000053405762
0.297088206,0,0,1.3527239561080933,0,0,0.5350799560546875
0.297421481,0,0,1.3527239561080933,0,0,0.8408399820327759
0.297756015,0,0,1.3527239561080933,0,0,0.9172800183296204
0.298088827,0,0,1.3527239561080933,0,0,0.7644000053405762
0.298429157,0,0,1.3527239561080933,0,0,1.070159912109375
0.298755395,0,0,1.580173134803772,0,0,0.4586400091648102
0.299088818,0,0,1.580173134803772,0,0,0.305759996175766
0.299422981,0,0,1.580173134803772,0,0,0.3822000026702881
0.299759682,0,0,1.580173134803772,0,0,1.070159912109375
0.300090012,0,0,1.580173134803772,0,0,1.070159912109375
0.300420676,0,0,1.580173134803772,0,0,0.305759996175766
0.300754673,0,0,1.580173134803772,0,0,0.152879998087883
0.301089466,0,0,1.3192051649093628,0,0,0.2293200045824051
0.301420445,0,0,1.3192051649093628,0,0,0.3822000026702881
0.301755016,0,0,1.3192051649093628,0,0,0.2293200045824051
0.302089161,0,0,1.3192051649093628,0,0,0.2293200045824051
0.302425658,0,0,1.3192051649093628,0,0,1.223039984703064
0.302755877,0,0,1.3192051649093628,0,0,1.605239987373352
0.303088893,0,0,1.3192051649093628,0,0,1.223039984703064
0.303420945,0,0,1.2306196689605713,0,0,0.5350799560546875
0.303755387,0,0,1.2306196689605713,0,0,0.3822000026702881
0.304089328,0,0,1.2306196689605713,0,0,0
0.304422158,0,0,1.2306196689605713,0,0,-0.2293200045824051
0.304756433,0,0,1.2306196689605713,0,0,0
0.305088615,0,0,1.2306196689605713,0,0,1.5288000106811523
0.305420686,0,0,1.2306196689605713,0,0,1.758120059967041
0.305754998,0,0,1.292868971824646,0,0,0.611519992351532
0.306090106,0,0,1.292868971824646,0,0,0.8408399820327759
0.30642627,0,0,1.292868971824646,0,0,0.7644000053405762
0.306758841,0,0,1.292868971824646,0,0,0.6879600286483765
0.307090245,0,0,1.292868971824646,0,0,0.5350799560546875
0.307424631,0,0,1.292868971824646,0,0,0.4586400091648102
0.307755591,0,0,1.292868971824646,0,0,0.6879600286483765
0.308219476,0,0,1.1324573755264282,0,0,0.5350799560546875
0.308425789,0,0,1.1324573755264282,0,0,1.070159912109375
0.30875586,0,0,1.1324573755264282,0,0,1.1466000080108643
0.309091227,0,0,1.1324573755264282,0,0,0.8408399820327759
0.309426761,0,0,1.1324573755264282,0,0,0.3822000026702881
0.309756277,0,0,1.1324573755264282,0,0,0.2293200045824051
0.310094052,0,0,1.1324573755264282,0,0,0.6879600286483765
0.310433863,0,0,1.192312479019165,0,0,1.452359914779663
0.310756823,0,0,1.192312479019165,0,0,0.9937199950218201
0.311092487,0,0,1.192312479019165,0,0,0.8408399820327759
0.311426762,0,0,1.192312479019165,0,0,0.2293200045824051
0.311754444,0,0,1.192312479019165,0,0,0.4586400091648102
0.312088015,0,0,1.192312479019165,0,0,0.305759996175766
0.312422919,0,0,1.192312479019165,0,0,0.3822000026702881
0.312754102,0,0,1.2521674633026123,0,0,1.070159912109375
0.313088821,0,0,1.2521674633026123,0,0,0.8408399820327759
0.313424225,0,0,1.2521674633026123,0,0,1.223039984703064
0.313755815,0,0,1.2521674633026123,0,0,0.8408399820327759
0.314102886,0,0,1.2521674633026123,0,0,0.5350799560546875
0.314428235,0,0,1.2521674633026123,0,0,1.070159912109375
0.314757658,0,0,1.2521674633026123,0,0,0.7644000053405762
0.315091636,0,0,1.460463047027588,0,0,0.611519992351532
0.315424652,0,0,1.460463047027588,0,0,0.0764399990439415
0.315759612,0,0,1.460463047027588,0,0,-0.2293200045824051
0.316093905,0,0,1.460463047027588,0,0,0.3822000026702881
0.316422994,0,0,1.460463047027588,0,0,1.5288000106811523
0.316755584,0,0,1.460463047027588,0,0,0.305759996175766
0.317090266,0,0,1.460463047027588,0,0,0.5350799560546875
0.3174233,0,0,1.4724340438842773,0,0,0.9172800183296204
0.317757316,0,0,1.4724340438842773,0,0,9.554999351501465
0.318090053,0,0,1.4724340438842773,0,0,0.611519992351532
0.318427143,0,0,1.4724340438842773,0,0,0.8408399820327759
0.318756603,0,0,1.4724340438842773,0,0,0.9937199950218201
0.319088137,0,0,1.4724340438842773,0,0,0.8408399820327759
0.319421245,0,0,1.4724340438842773,0,0,0.611519992351532
0.319756316,0,0,1.4053963422775269,0,0,0.6879600286483765
0.320089424,0,0,1.4053963422775269,0,0,0.6879600286483765
0.320425829,0,0,1.4053963422775269,0,0,0.4586400091648102
0.320756511,0,0,1.4053963422775269,0,0,0.611519992351532
0.3210896,0,0,1.4053963422775269,0,0,1.223039984703064
0.321422227,0,0,1.4053963422775269,0,0,1.1466000080108643
0.321754965,0,0,1.4053963422775269,0,0,0
0.32208874,0,0,1.53707754611969,0,0,0
0.322424496,0,0,1.53707754611969,0,0,0.9937199950218201
0.322755289,0,0,1.53707754611969,0,0,0.6879600286483765
0.323088286,0,0,1.53707754611969,0,0,0.8408399820327759
0.323421265,0,0,1.53707754611969,0,0,0.9172800183296204
0.32375491,0,0,1.53707754611969,0,0,0.7644000053405762
0.324091314,0,0,1.53707754611969,0,0,1.223039984703064
0.324424033,0,0,1.5634137392044067,0,0,0.7644000053405762
0.324757419,0,0,1.5634137392044067,0,0,0.8408399820327759
0.325090361,0,0,1.5634137392044067,0,0,0.611519992351532
0.325424098,0,0,1.5634137392044067,0,0,0.8408399820327759
0.325755466,0,0,1.5634137392044067,0,0,0.3822000026702881
0.326090926,0,0,1.5634137392044067,0,0,0.2293200045824051
0.326432645,0,0,1.5634137392044067,0,0,1.070159912109375
0.326757105,0,0,1.235408067703247,0,0,1.2994799613952637
0.327089713,0,0,1.235408067703247,0,0,0.6879600286483765
0.327421914,0,0,1.235408067703247,0,0,0.6879600286483765
0.327755077,0,0,1.235408067703247,0,0,0
0.328087556,0,0,1.235408067703247,0,0,0
0.328422071,0,0,1.235408067703247,0,0,0.8408399820327759
0.328754365,0,0,1.235408067703247,0,0,1.605239987373352
0.329090843,0,0,1.278503656387329,0,0,1.1466000080108643
0.329422247,0,0,1.278503656387329,0,0,1.8345600366592407
0.329754467,0,0,1.278503656387329,0,0,0
0.330088927,0,0,1.278503656387329,0,0,0.5350799560546875
0.330426109,0,0,1.278503656387329,0,0,0.3822000026702881
0.330760532,0,0,1.278503656387329,0,0,0.5350799560546875
0.331088788,0,0,1.278503656387329,0,0,0.6879600286483765
0.331421303,0,0,1.2234370708465576,0,0,1.375920057296753
0.331756134,0,0,1.2234370708465576,0,0,1.1466000080108643
0.33208726,0,0,1.2234370708465576,0,0,0
0.332421146,0,0,1.2234370708465576,0,0,0
0.332754977,0,0,1.2234370708465576,0,0,0.7644000053405762
0.333086696,0,0,1.2234370708465576,0,0,0.5350799560546875
0.333421248,0,0,1.2234370708465576,0,0,0.5350799560546875
0.33375493,0,0,1.0965443849563599,0,0,0.8408399820327759
0.334089501,0,0,1.0965443849563599,0,0,0.9172800183296204
0.334427091,0,0,1.0965443849563599,0,0,0.611519992351532
0.334753255,0,0,1.0965443849563599,0,0,0.4586400091648102
0.3350869,0,0,1.0965443849563599,0,0,0.305759996175766
0.335450526,0,0,1.0965443849563599,0,0,1.223039984703064
0.335784708,0,0,1.0965443849563599,0,0,1.1466000080108643
0.336110242,0,0,1.1540051698684692,0,0,0.8408399820327759
0.33643761,0,0,1.1540051698684692,0,0,0.6879600286483765
0.336793551,0,0,1.1540051698684692,0,0,0.9172800183296204
0.337223436,0,0,1.1540051698684692,0,0,2.14031982421875
0.337504341,0,0,1.1540051698684692,0,0,1.8345600366592407
0.337804486,0,0,1.1540051698684692,0,0,0.152879998087883
0.338120095,0,0,1.1540051698684692,0,0,0.6879600286483765
0.338432647,0,0,1.2665326595306396,0,0,0.305759996175766
0.338760941,0,0,1.2665326595306396,0,0,1.2994799613952637
0.339098067,0,0,1.2665326595306396,0,0,1.223039984703064
0.33943199,0,0,1.2665326595306396,0,0,1.1466000080108643
0.339778376,0,0,1.2665326595306396,0,0,1.223039984703064
0.340092725,0,0,1.2665326595306396,0,0,0.4586400091648102
0.340425426,0,0,1.2665326595306396,0,0,1.1466000080108643
0.340761997,0,0,1.4508862495422363,0,0,0.305759996175766
0.341111086,0,0,1.4508862495422363,0,0,2.14031982421875
0.341426083,0,0,1.4508862495422363,0,0,0.152879998087883
0.341858728,0,0,1.4508862495422363,0,0,0
0.342093448,0,0,1.4508862495422363,0,0,9.402119636535645
0.342426648,0,0,1.4508862495422363,0,0,0.6879600286483765
0.342769034,0,0,1.4508862495422363,0,0,0.0764399990439415
0.343101494,0,0,1.5298948287963867,0,0,0.6879600286483765
0.343438399,0,0,1.5298948287963867,0,0,0.9937199950218201
0.343756785,0,0,1.5298948287963867,0,0,0.8408399820327759
0.344090874,0,0,1.5298948287963867,0,0,0.6879600286483765
0.34443263,0,0,1.5298948287963867,0,0,0.8408399820327759
0.344764701,0,0,1.5298948287963867,0,0,0.8408399820327759
0.345095661,0,0,1.5298948287963867,0,0,0.5350799560546875
0.345442603,0,0,1.5059528350830078,0,0,0.6879600286483765
0.345761544,0,0,1.5059528350830078,0,0,1.2994799613952637
0.346096597,0,0,1.5059528350830078,0,0,0.9172800183296204
0.346438001,0,0,1.5059528350830078,0,0,0.7644000053405762
0.346768183,0,0,1.5059528350830078,0,0,0.5350799560546875
0.347108236,0,0,1.5059528350830078,0,0,1.1466000080108643
0.347424066,0,0,1.6376339197158813,0,0,0.9172800183296204
0.347761082,0,0,1.6376339197158813,0,0,0.9172800183296204
0.34810669,0,0,1.6376339197158813,0,0,0.7644000053405762
0.348426316,0,0,1.6376339197158813,0,0,1.1466000080108643
0.348761387,0,0,1.6376339197158813,0,0,1.070159912109375
0.349120699,0,0,1.6376339197158813,0,0,0.611519992351532
0.349429307,0,0,1.6376339197158813,0,0,0.9172800183296204
0.34977023,0,0,1.381454348564148,0,0,0.3822000026702881
0.350110283,0,0,1.381454348564148,0,0,0.4586400091648102
0.350440132,0,0,1.381454348564148,0,0,0.5350799560546875
0.350779721,0,0,1.381454348564148,0,0,0.8408399820327759
0.351122051,0,0,1.381454348564148,0,0,1.2994799613952637
0.35146127,0,0,1.381454348564148,0,0,1.223039984703064
0.351792101,0,0,1.381454348564148,0,0,0.5350799560546875
0.352120042,0,0,1.292868971824646,0,0,1.1466000080108643
0.352439576,0,0,1.292868971824646,0,0,0.3822000026702881
0.352764796,0,0,1.292868971824646,0,0,2.06387996673584
0.353111033,0,0,1.292868971824646,0,0,1.6816799640655518
0.353441641,0,0,1.292868971824646,0,0,0.6879600286483765
0.353764361,0,0,1.292868971824646,0,0,0.5350799560546875
0.354108043,0,0,1.292868971824646,0,0,0.9937199950218201
0.354426114,0,0,1.256955862045288,0,0,0.2293200045824051
0.354754759,0,0,1.256955862045288,0,0,0.9172800183296204
0.355099682,0,0,1.256955862045288,0,0,0.5350799560546875
0.355423179,0,0,1.256955862045288,0,0,0.5350799560546875
0.355755584,0,0,1.256955862045288,0,0,0.9172800183296204
0.35609684,0,0,1.256955862045288,0,0,0.611519992351532
0.356422263,0,0,1.256955862045288,0,0,0.7644000053405762
0.356760537,0,0,1.0797849893569946,0,0,0.8408399820327759
0.357094794,0,0,1.0797849893569946,0,0,0.8408399820327759
0.35742218,0,0,1.0797849893569946,0,0,0.611519992351532
0.35776051,0,0,1.0797849893569946,0,0,0.8408399820327759
0.358192636,0,0,1.0797849893569946,0,0,1.2994799613952637
0.358466596,0,0,1.0797849893569946,0,0,0.9172800183296204
0.358759686,0,0,1.0797849893569946,0,0,0.7644000053405762
0.359091683,0,0,1.1420341730117798,0,0,1.1466000080108643
0.359432958,0,0,1.1420341730117798,0,0,0.9172800183296204
0.359755714,0,0,1.1420341730117798,0,0,0.6879600286483765
0.360087341,0,0,1.1420341730117798,0,0,0.611519992351532
0.360424745,0,0,1.1420341730117798,0,0,0.3822000026702881
0.360753631,0,0,1.1420341730117798,0,0,0.8408399820327759
0.361087961,0,0,1.1420341730117798,0,0,0.9937199950218201
0.361421143,0,0,1.292868971824646,0,0,0.8408399820327759
0.361759159,0,0,1.292868971824646,0,0,0.611519992351532
0.362090712,0,0,1.292868971824646,0,0,0.5350799560546875
0.36243156,0,0,1.292868971824646,0,0,0.3822000026702881
0.36275678,0,0,1.292868971824646,0,0,0.5350799560546875
0.363094814,0,0,1.292868971824646,0,0,0.6879600286483765
0.363428903,0,0,1.292868971824646,0,0,1.452359914779663
0.363756104,0,0,1.4508862495422363,0,0,0.9172800183296204
0.364093842,0,0,1.4508862495422363,0,0,0.152879998087883
0.364427672,0,0,1.4508862495422363,0,0,-29.582279205322266
0.364756613,0,0,1.4508862495422363,0,0,1.758120059967041
0.365094555,0,0,1.4508862495422363,0,0,0.0764399990439415
0.365433441,0,0,1.4508862495422363,0,0,0.5350799560546875
0.365755586,0,0,1.4508862495422363,0,0,-0.3822000026702881
0.366089249,0,0,1.4628572463989258,0,0,-0.3822000026702881
0.36643058,0,0,1.4628572463989258,0,0,1.605239987373352
0.366756151,0,0,1.4628572463989258,0,0,1.070159912109375
0.36708887,0,0,1.4628572463989258,0,0,1.070159912109375
0.367427348,0,0,1.4628572463989258,0,0,0.611519992351532
0.36775566,0,0,1.4628572463989258,0,0,0.4586400091648102
0.368093083,0,0,1.4628572463989258,0,0,0.611519992351532
0.368426895,0,0,1.314416766166687,0,0,0.9172800183296204
0.368755337,0,0,1.314416766166687,0,0,0.9172800183296204
0.369093796,0,0,1.314416766166687,0,0,0.8408399820327759
0.369427497,0,0,1.314416766166687,0,0,0.6879600286483765
0.36975542,0,0,1.314416766166687,0,0,0.9937199950218201
0.370089417,0,0,1.314416766166687,0,0,0.7644000053405762
0.370428118,0,0,1.314416766166687,0,0,0.611519992351532
0.37075593,0,0,1.4844050407409668,0,0,0.5350799560546875
0.371094038,0,0,1.4844050407409668,0,0,0.611519992351532
0.371429535,0,0,1.4844050407409668,0,0,0.611519992351532
0.371756346,0,0,1.4844050407409668,0,0,0.8408399820327759
0.37209764,0,0,1.4844050407409668,0,0,0.7644000053405762
0.372434563,0,0,1.4844050407409668,0,0,0.8408399820327759
0.372755949,0,0,1.4844050407409668,0,0,0.8408399820327759
0.373088742,0,0,1.460463047027588,0,0,0.2293200045824051
0.373428424,0,0,1.460463047027588,0,0,0.9172800183296204
0.373756828,0,0,1.460463047027588,0,0,0.9937199950218201
0.374093622,0,0,1.460463047027588,0,0,0.611519992351532
0.374434822,0,0,1.460463047027588,0,0,-0.3822000026702881
0.374756449,0,0,1.460463047027588,0,0,0.5350799560546875
0.375088464,0,0,1.460463047027588,0,0,1.375920057296753
0.37542935,0,0,1.2761094570159912,0,0,0.4586400091648102
0.375756514,0,0,1.2761094570159912,0,0,0.6879600286483765
0.376094252,0,0,1.2761094570159912,0,0,0.4586400091648102
0.37642923,0,0,1.2761094570159912,0,0,1.2994799613952637
0.376756005,0,0,1.2761094570159912,0,0,0
0.37708852,0,0,1.2761094570159912,0,0,1.1466000080108643
0.37742724,0,0,1.2761094570159912,0,0,0.152879998087883
0.377756255,0,0,1.2425906658172607,0,0,0.9172800183296204
0.378093308,0,0,1.2425906658172607,0,0,1.8345600366592407
0.378431453,0,0,1.2425906658172607,0,0,9.325679779052734
0.378770283,0,0,1.2425906658172607,0,0,0.8408399820327759
0.379089243,0,0,1.2425906658172607,0,0,0.8408399820327759
0.379426518,0,0,1.2425906658172607,0,0,0.9172800183296204
0.379754422,0,0,1.2425906658172607,0,0,0.8408399820327759
0.380091475,0,0,1.2665326595306396,0,0,1.070159912109375
0.380424935,0,0,1.2665326595306396,0,0,0.8408399820327759
0.380754006,0,0,1.2665326595306396,0,0,0.6879600286483765
0.381088299,0,0,1.2665326595306396,0,0,0.6879600286483765
0.381432037,0,0,1.2665326595306396,0,0,0.611519992351532
0.381755089,0,0,1.2665326595306396,0,0,0.6879600286483765
0.382091698,0,0,1.2665326595306396,0,0,0.7644000053405762
0.38243475,0,0,1.1348515748977661,0,0,0.6879600286483765
0.382757266,0,0,1.1348515748977661,0,0,0.6879600286483765
0.38309167,0,0,1.1348515748977661,0,0,0.7644000053405762
0.383431593,0,0,1.1348515748977661,0,0,0.6879600286483765
0.383890033,0,0,1.1348515748977661,0,0,0.152879998087883
0.384182142,0,0,1.1348515748977661,0,0,0.611519992351532
0.384456584,0,0,1.1348515748977661,0,0,0.9937199950218201
0.384852413,0,0,1.2018892765045166,0,0,0
0.385098319,0,0,1.2018892765045166,0,0,0.2293200045824051
0.385535685,0,0,1.2018892765045166,0,0,0.0764399990439415
0.385833738,0,0,1.2018892765045166,0,0,1.1466000080108643
0.386109291,0,0,1.2018892765045166,0,0,0.9172800183296204
0.386471788,0,0,1.2018892765045166,0,0,0.9172800183296204
0.386764303,0,0,1.2018892765045166,0,0,0.305759996175766
0.387096263,0,0,1.3072341680526733,0,0,1.375920057296753
0.387435927,0,0,1.3072341680526733,0,0,0.8408399820327759
0.387763406,0,0,1.3072341680526733,0,0,1.070159912109375
0.388115699,0,0,1.3072341680526733,0,0,0.152879998087883
0.388427863,0,0,1.3072341680526733,0,0,0.9172800183296204
0.38875886,0,0,1.3072341680526733,0,0,1.605239987373352
0.389091653,0,0,1.3072341680526733,0,0,1.605239987373352
0.389423539,0,0,1.4724340438842773,0,0,0.2293200045824051
0.389753554,0,0,1.4724340438842773,0,0,0.2293200045824051
0.390087422,0,0,1.4724340438842773,0,0,1.2994799613952637
0.390421363,0,0,1.4724340438842773,0,0,1.5288000106811523
0.390753304,0,0,1.4724340438842773,0,0,1.8345600366592407
0.391088505,0,0,1.4724340438842773,0,0,0.5350799560546875
0.391420743,0,0,1.4724340438842773,0,0,0.8408399820327759
0.391753147,0,0,1.501164436340332,0,0,0.5350799560546875
0.392089737,0,0,1.501164436340332,0,0,0.611519992351532
0.392421734,0,0,1.501164436340332,0,0,0.611519992351532
0.392757435,0,0,1.501164436340332,0,0,0.9172800183296204
0.393090487,0,0,1.501164436340332,0,0,0.9937199950218201
0.393421114,0,0,1.501164436340332,0,0,0.8408399820327759
0.393753333,0,0,1.501164436340332,0,0,0.5350799560546875
0.394090311,0,0,1.4676456451416016,0,0,0.5350799560546875
0.394421216,0,0,1.4676456451416016,0,0,0.9172800183296204
0.394753213,0,0,1.4676456451416016,0,0,1.375920057296753
0.395090284,0,0,1.4676456451416016,0,0,0.4586400091648102
0.395421318,0,0,1.4676456451416016,0,0,0.152879998087883
0.395753241,0,0,1.4676456451416016,0,0,0.7644000053405762
0.396090293,0,0,1.4676456451416016,0,0,0.9172800183296204
0.396421142,0,0,1.7477672100067139,0,0,0.9937199950218201
0.396753213,0,0,1.7477672100067139,0,0,0.5350799560546875
0.397090895,0,0,1.7477672100067139,0,0,0.5350799560546875
0.397422003,0,0,1.7477672100067139,0,0,0.5350799560546875
0.397753241,0,0,1.7477672100067139,0,0,0.6879600286483765
0.398090497,0,0,1.7477672100067139,0,0,0.611519992351532
0.398424254,0,0,1.7477672100067139,0,0,0.5350799560546875
0.39875338,0,0,1.45806884765625,0,0,1.070159912109375
0.399087081,0,0,1.45806884765625,0,0,0.6879600286483765
0.399419856,0,0,1.45806884765625,0,0,0.4586400091648102
0.399753112,0,0,1.45806884765625,0,0,0.0764399990439415
0.400087405,0,0,1.45806884765625,0,0,0.611519992351532
0.400419439,0,0,1.45806884765625,0,0,1.2994799613952637
0.400753362,0,0,1.2832920551300049,0,0,1.375920057296753
0.401107174,0,0,1.3000515699386597,0,0,1.9109998941421509
0.401420856,0,0,1.3000515699386597,0,0,1.9874399900436401
0.401753446,0,0,1.3000515699386597,0,0,0.3822000026702881
0.402105887,0,0,1.3000515699386597,0,0,0.611519992351532
0.402420088,0,0,1.3000515699386597,0,0,-29.888038635253906
0.402753233,0,0,1.3000515699386597,0,0,9.249239921569824
0.403101989,0,0,1.0989385843276978,0,0,0.6879600286483765
0.403420264,0,0,1.0989385843276978,0,0,0.9172800183296204
0.403753298,0,0,1.0989385843276978,0,0,0.6879600286483765
0.40408824,0,0,1.0989385843276978,0,0,0.6879600286483765
0.4044197,0,0,1.0989385843276978,0,0,0.5350799560546875
0.404774919,0,0,1.0989385843276978,0,0,0.611519992351532
0.405086823,0,0,1.0989385843276978,0,0,0.9937199950218201
0.405419728,0,0,1.0295066833496094,0,0,0.9172800183296204
0.405768187,0,0,1.0295066833496094,0,0,0.152879998087883
0.406086666,0,0,1.0295066833496094,0,0,0.3822000026702881
0.40641983,0,0,1.0295066833496094,0,0,0.7644000053405762
0.406754512,0,0,1.2306196689605713,0,0,0.6879600286483765
0.407086472,0,0,1.2306196689605713,0,0,0.8408399820327759
0.407441524,0,0,1.2306196689605713,0,0,1.1466000080108643
0.407753299,0,0,1.2306196689605713,0,0,0.8408399820327759
0.408086426,0,0,1.2306196689605713,0,0,0.3822000026702881
0.408433404,0,0,1.2306196689605713,0,0,0.4586400091648102
0.408753346,0,0,1.2306196689605713,0,0,1.223039984703064
0.409086694,0,0,1.357512354850769,0,0,1.1466000080108643
0.409421525,0,0,1.357512354850769,0,0,0.6879600286483765
0.409753077,0,0,1.357512354850769,0,0,0.611519992351532
0.41011113,0,0,1.357512354850769,0,0,0.7644000053405762
0.410422979,0,0,1.357512354850769,0,0,1.070159912109375
0.410754809,0,0,1.357512354850769,0,0,0.9172800183296204
0.411108991,0,0,1.357512354850769,0,0,0.8408399820327759
0.411421321,0,0,1.525106430053711,0,0,0.8408399820327759
0.41175467,0,0,1.525106430053711,0,0,0.9172800183296204
0.412101612,0,0,1.525106430053711,0,0,0.152879998087883
0.412421516,0,0,1.525106430053711,0,0,0.9937199950218201
0.412754661,0,0,1.525106430053711,0,0,1.1466000080108643
0.413092843,0,0,1.525106430053711,0,0,0.9937199950218201
0.413424026,0,0,1.525106430053711,0,0,0.6879600286483765
0.413776485,0,0,1.556231141090393,0,0,0.305759996175766
0.414088279,0,0,1.556231141090393,0,0,0
0.414421276,0,0,1.556231141090393,0,0,1.2994799613952637
0.414777236,0,0,1.556231141090393,0,0,1.375920057296753
0.41508827,0,0,1.556231141090393,0,0,2.446079969406128
0.415421545,0,0,1.556231141090393,0,0,1.223039984703064
0.415775578,0,0,1.556231141090393,0,0,0.8408399820327759
0.416088057,0,0,1.5514427423477173,0,0,0.4586400091648102
0.416421313,0,0,1.5514427423477173,0,0,0.2293200045824051
0.416768755,0,0,1.5514427423477173,0,0,0.305759996175766
0.417088141,0,0,1.5514427423477173,0,0,0.6879600286483765
0.417421341,0,0,1.5514427423477173,0,0,0.7644000053405762
0.417763338,0,0,1.5514427423477173,0,0,0.9172800183296204
0.418088409,0,0,1.4939818382263184,0,0,0.8408399820327759
0.418421536,0,0,1.4939818382263184,0,0,0.6879600286483765
0.418759181,0,0,1.4939818382263184,0,0,0.8408399820327759
0.419087974,0,0,1.4939818382263184,0,0,0.9172800183296204
0.419444082,0,0,1.4939818382263184,0,0,0.8408399820327759
0.419754802,0,0,1.4939818382263184,0,0,1.070159912109375
0.420087817,0,0,1.4939818382263184,0,0,0.9172800183296204
0.420444481,0,0,1.194706678390503,0,0,0.9172800183296204
0.420754626,0,0,1.194706678390503,0,0,0.611519992351532
0.42108816,0,0,1.194706678390503,0,0,0.8408399820327759
0.421442879,0,0,1.194706678390503,0,0,0.6879600286483765
0.421754876,0,0,1.194706678390503,0,0,0.9172800183296204
0.422088095,0,0,1.194706678390503,0,0,1.223039984703064
0.422434018,0,0,1.194706678390503,0,0,0.611519992351532
0.422754793,0,0,1.316810965538025,0,0,0.8408399820327759
0.423087864,0,0,1.316810965538025,0,0,1.1466000080108643
0.423428065,0,0,1.316810965538025,0,0,0.0764399990439415
0.423757062,0,0,1.316810965538025,0,0,0.5350799560546875
0.424088207,0,0,1.316810965538025,0,0,0.8408399820327759
0.424441574,0,0,1.316810965538025,0,0,0.4586400091648102
0.424755868,0,0,1.316810965538025,0,0,0.152879998087883
0.42511192,0,0,1.2042834758758545,0,0,0.5350799560546875
0.425421028,0,0,1.2042834758758545,0,0,1.452359914779663
0.42575484,0,0,1.2042834758758545,0,0,1.1466000080108643
0.426110374,0,0,1.2042834758758545,0,0,0.611519992351532
0.426421575,0,0,1.2042834758758545,0,0,0.5350799560546875
0.426754572,0,0,1.2042834758758545,0,0,9.554999351501465
0.427106921,0,0,1.2042834758758545,0,0,0
0.427421455,0,0,1.0797849893569946,0,0,1.1466000080108643
0.427755285,0,0,1.0797849893569946,0,0,0.6879600286483765
0.428107245,0,0,1.0797849893569946,0,0,0.8408399820327759
0.428421909,0,0,1.0797849893569946,0,0,0.9172800183296204
0.428754609,0,0,1.0797849893569946,0,0,0.6879600286483765
0.42909894,0,0,1.0797849893569946,0,0,0.5350799560546875
0.429421455,0,0,1.0797849893569946,0,0,0.6879600286483765
0.429754674,0,0,1.2234370708465576,0,0,0.9172800183296204
0.430092653,0,0,1.2234370708465576,0,0,1.070159912109375
0.430421557,0,0,1.2234370708465576,0,0,0.6879600286483765
0.430776536,0,0,1.2234370708465576,0,0,0.611519992351532
0.431087736,0,0,1.2234370708465576,0,0,0.7644000053405762
0.431421289,0,0,1.2234370708465576,0,0,0.611519992351532
0.431776508,0,0,1.2234370708465576,0,0,0.9172800183296204
0.432088301,0,0,1.2689268589019775,0,0,0.7644000053405762
0.43242128,0,0,1.2689268589019775,0,0,0.5350799560546875
0.432776036,0,0,1.2689268589019775,0,0,0.8408399820327759
0.433088163,0,0,1.2689268589019775,0,0,0.9172800183296204
0.433421252,0,0,1.2689268589019775,0,0,1.1466000080108643
0.433768286,0,0,1.2689268589019775,0,0,0.8408399820327759
0.434091117,0,0,1.3407529592514038,0,0,0.611519992351532
0.43442128,0,0,1.3407529592514038,0,0,0.4586400091648102
0.434763018,0,0,1.3407529592514038,0,0,0.9937199950218201
0.435088626,0,0,1.3407529592514038,0,0,1.1466000080108643
0.435421197,0,0,1.3407529592514038,0,0,1.070159912109375
0.435756565,0,0,1.3407529592514038,0,0,0.8408399820327759
0.436087895,0,0,1.4676456451416016,0,0,0.9937199950218201
0.436444762,0,0,1.4676456451416016,0,0,0.8408399820327759
0.43675363,0,0,1.4676456451416016,0,0,0.2293200045824051
0.437087923,0,0,1.4676456451416016,0,0,-0.305759996175766
0.437443753,0,0,1.4676456451416016,0,0,0
0.437754806,0,0,1.4676456451416016,0,0,0.4586400091648102
0.438087766,0,0,1.4676456451416016,0,0,1.070159912109375
0.438454929,0,0,1.3407529592514038,0,0,0.9172800183296204
0.438755056,0,0,1.3407529592514038,0,0,1.5288000106811523
0.439087923,0,0,1.3407529592514038,0,0,0.3822000026702881
0.439433754,0,0,1.3407529592514038,0,0,1.758120059967041
0.439754769,0,0,1.3407529592514038,0,0,8.867039680480957
0.440087748,0,0,1.3407529592514038,0,0,0.6879600286483765
0.440425504,0,0,1.3407529592514038,0,0,0.9172800183296204
0.440754631,0,0,1.5753847360610962,0,0,0.8408399820327759
0.441109868,0,0,1.5753847360610962,0,0,0.9937199950218201
0.441421013,0,0,1.5753847360610962,0,0,0.9172800183296204
0.441754696,0,0,1.5753847360610962,0,0,0.6879600286483765
0.442109878,0,0,1.5753847360610962,0,0,0.5350799560546875
0.442421949,0,0,1.5753847360610962,0,0,0.9172800183296204
0.442754538,0,0,1.5753847360610962,0,0,0.9172800183296204
0.443109276,0,0,1.3862427473068237,0,0,0.611519992351532
0.443421421,0,0,1.3862427473068237,0,0,0.7644000053405762
0.443754548,0,0,1.3862427473068237,0,0,0.9172800183296204
0.444100397,0,0,1.3862427473068237,0,0,1.070159912109375
0.444423912,0,0,1.3862427473068237,0,0,0.9937199950218201
0.444754872,0,0,1.3862427473068237,0,0,0.9172800183296204
0.445092388,0,0,1.3862427473068237,0,0,0.9172800183296204
0.445421311,0,0,1.2737152576446533,0,0,0.6879600286483765
0.445776363,0,0,1.2737152576446533,0,0,0.6879600286483765
0.446088453,0,0,1.2737152576446533,0,0,0.5350799560546875
0.446421339,0,0,1.2737152576446533,0,0,1.070159912109375
0.446776835,0,0,1.2737152576446533,0,0,0.5350799560546875
0.44708811,0,0,1.2737152576446533,0,0,1.1466000080108643
0.447421293,0,0,1.2737152576446533,0,0,1.223039984703064
0.447775623,0,0,1.2880805730819702,0,0,0
0.448088157,0,0,1.2880805730819702,0,0,0
0.448421154,0,0,1.2880805730819702,0,0,0.6879600286483765
0.448767929,0,0,1.2880805730819702,0,0,0.3822000026702881
0.449088037,0,0,1.2880805730819702,0,0,1.452359914779663
0.449421386,0,0,1.2880805730819702,0,0,1.070159912109375
0.449761068,0,0,1.2880805730819702,0,0,0.305759996175766
0.450087991,0,0,1.115697979927063,0,0,0.4586400091648102
0.450421284,0,0,1.115697979927063,0,0,0.0764399990439415
0.450756966,0,0,1.115697979927063,0,0,0.2293200045824051
0.451088037,0,0,1.115697979927063,0,0,1.2994799613952637
0.451443386,0,0,1.115697979927063,0,0,2.2167599201202393
0.451752772,0,0,1.115697979927063,0,0,0.2293200045824051
0.452087899,0,0,1.115697979927063,0,0,0.305759996175766
0.452443414,0,0,1.015141487121582,0,0,0.9172800183296204
0.452754596,0,0,1.015141487121582,0,0,0.8408399820327759
0.453087945,0,0,1.015141487121582,0,0,1.2994799613952637
0.453440886,0,0,1.015141487121582,0,0,1.070159912109375
0.453754754,0,0,1.015141487121582,0,0,0.8408399820327759
0.454088177,0,0,1.015141487121582,0,0,0.7644000053405762
0.454432396,0,0,1.015141487121582,0,0,0.9172800183296204
0.454755597,0,0,1.1061211824417114,0,0,0.4586400091648102
0.455087075,0,0,1.1061211824417114,0,0,0.7644000053405762
0.455439961,0,0,1.1061211824417114,0,0,0.5350799560546875
0.455753051,0,0,1.1061211824417114,0,0,0.9172800183296204
0.456106288,0,0,1.1061211824417114,0,0,0.7644000053405762
0.456420008,0,0,1.1061211824417114,0,0,0.9937199950218201
0.45675306,0,0,1.1061211824417114,0,0,0.5350799560546875
0.457099816,0,0,1.2952631711959839,0,0,0.8408399820327759
0.457419832,0,0,1.2952631711959839,0,0,0.611519992351532
0.457753014,0,0,1.2952631711959839,0,0,0.5350799560546875
0.458087437,0,0,1.2952631711959839,0,0,0.305759996175766
0.458421934,0,0,1.2952631711959839,0,0,0.305759996175766
0.458776912,0,0,1.2952631711959839,0,0,0.4586400091648102
0.459088058,0,0,1.2952631711959839,0,0,1.070159912109375
0.459421258,0,0,1.4867992401123047,0,0,0.9937199950218201
0.459775644,0,0,1.4867992401123047,0,0,0.7644000053405762
0.460088049,0,0,1.4867992401123047,0,0,0.152879998087883
0.460422175,0,0,1.4867992401123047,0,0,0.611519992351532
0.46077432,0,0,1.4867992401123047,0,0,0.305759996175766
0.461091539,0,0,1.4867992401123047,0,0,0.2293200045824051
0.461421481,0,0,1.4867992401123047,0,0,0.9937199950218201
0.461765478,0,0,1.3886369466781616,0,0,1.2994799613952637
0.46208866,0,0,1.3886369466781616,0,0,1.5288000106811523
0.46242399,0,0,1.3886369466781616,0,0,1.5288000106811523
0.462781561,0,0,1.3886369466781616,0,0,0
0.463086633,0,0,1.3886369466781616,0,0,0
0.463420296,0,0,1.3886369466781616,0,0,1.375920057296753
0.463764089,0,0,1.3886369466781616,0,0,1.8345600366592407
0.464086512,0,0,1.6065093278884888,0,0,1.9874399900436401
0.464419898,0,0,1.6065093278884888,0,0,0.8408399820327759
0.464776154,0,0,1.6065093278884888,0,0,0.4586400091648102
0.465090651,0,0,1.6065093278884888,0,0,0.8408399820327759
0.465439982,0,0,1.6065093278884888,0,0,0.6879600286483765
0.46575346,0,0,1.6065093278884888,0,0,0.5350799560546875
0.46608642,0,0,1.6065093278884888,0,0,1.070159912109375
0.466434436,0,0,1.5849615335464478,0,0,0.7644000053405762
0.466754636,0,0,1.5849615335464478,0,0,0.611519992351532
0.467087559,0,0,1.5849615335464478,0,0,0.4586400091648102
0.46742813,0,0,1.292868971824646,0,0,0.4586400091648102
0.467754442,0,0,1.2042834758758545,0,0,0.305759996175766
0.468087624,0,0,1.2042834758758545,0,0,1.2994799613952637
0.468441251,0,0,1.2042834758758545,0,0,0.8408399820327759
0.468754415,0,0,1.2042834758758545,0,0,0.0764399990439415
0.46910993,0,0,1.2042834758758545,0,0,0
0.469421186,0,0,1.2042834758758545,0,0,0.5350799560546875
0.469755461,0,0,1.2042834758758545,0,0,0.8408399820327759
0.470109514,0,0,1.192312479019165,0,0,0.7644000053405762
0.470421048,0,0,1.192312479019165,0,0,0.7644000053405762
0.470754952,0,0,1.192312479019165,0,0,0.9172800183296204
0.471100412,0,0,1.192312479019165,0,0,0.5350799560546875
0.471421205,0,0,1.192312479019165,0,0,0.3822000026702881
0.471754388,0,0,1.192312479019165,0,0,0.7644000053405762
0.472093903,0,0,1.192312479019165,0,0,0.8408399820327759
0.472421289,0,0,1.1348515748977661,0,0,1.375920057296753
0.472776156,0,0,1.1348515748977661,0,0,0.4586400091648102
0.473088264,0,0,1.1348515748977661,0,0,0.2293200045824051
0.473421132,0,0,1.1348515748977661,0,0,0.305759996175766
0.473776962,0,0,1.1348515748977661,0,0,0.0764399990439415
0.474087922,0,0,1.1348515748977661,0,0,1.223039984703064
0.474420882,0,0,1.1348515748977661,0,0,1.6816799640655518
0.474775212,0,0,1.1659762859344482,0,0,0.8408399820327759
0.475087895,0,0,1.1659762859344482,0,0,1.6816799640655518
0.475423558,0,0,1.1659762859344482,0,0,0.9937199950218201
0.475767074,0,0,1.1659762859344482,0,0,1.9109998941421509
0.476087848,0,0,1.1659762859344482,0,0,0.305759996175766
0.476420994,0,0,1.1659762859344482,0,0,9.554999351501465
0.476762694,0,0,1.1659762859344482,0,0,0.5350799560546875
0.477087673,0,0,1.2521674633026123,0,0,0.6879600286483765
0.477420948,0,0,1.2521674633026123,0,0,0.8408399820327759
0.477756685,0,0,1.2521674633026123,0,0,0.611519992351532
0.478088219,0,0,1.2521674633026123,0,0,0.611519992351532
0.478442031,0,0,1.2521674633026123,0,0,0.4586400091648102
0.478753269,0,0,1.2521674633026123,0,0,0.8408399820327759
0.479087599,0,0,1.2521674633026123,0,0,0.3822000026702881
0.479443374,0,0,1.460463047027588,0,0,0.0764399990439415
0.479754408,0,0,1.460463047027588,0,0,0.6879600286483765
0.480087497,0,0,1.460463047027588,0,0,0.9937199950218201
0.480441642,0,0,1.460463047027588,0,0,0.4586400091648102
0.480754529,0,0,1.460463047027588,0,0,0.6879600286483765
0.481087637,0,0,1.460463047027588,0,0,0.6879600286483765
0.481433541,0,0,1.460463047027588,0,0,0.9172800183296204
0.481754371,0,0,1.5131354331970215,0,0,0.4586400091648102
0.482087646,0,0,1.5131354331970215,0,0,0.5350799560546875
0.482429791,0,0,1.5131354331970215,0,0,0.9172800183296204
0.482754566,0,0,1.5131354331970215,0,0,0.9937199950218201
0.483087619,0,0,1.5131354331970215,0,0,0.8408399820327759
0.483424078,0,0,1.5131354331970215,0,0,0.9937199950218201
0.48375439,0,0,1.5131354331970215,0,0,0.5350799560546875
0.484108757,0,0,1.4891934394836426,0,0,0.5350799560546875
0.484420625,0,0,1.4891934394836426,0,0,0.3822000026702881
0.484761603,0,0,1.4891934394836426,0,0,1.1466000080108643
0.485110193,0,0,1.4891934394836426,0,0,0.305759996175766
0.485421431,0,0,1.4891934394836426,0,0,0.8408399820327759
0.485756502,0,0,1.4891934394836426,0,0,1.375920057296753
0.486108184,0,0,1.4891934394836426,0,0,0.8408399820327759
0.486421218,0,0,1.7477672100067139,0,0,0.4586400091648102
0.486754382,0,0,1.7477672100067139,0,0,0.6879600286483765
0.487100156,0,0,1.7477672100067139,0,0,0
0.487421135,0,0,1.7477672100067139,0,0,0
0.487754354,0,0,1.7477672100067139,0,0,1.1466000080108643
0.48809174,0,0,1.7477672100067139,0,0,-0.611519992351532
0.488421107,0,0,1.7477672100067139,0,0,1.8345600366592407
0.488775567,0,0,1.4676456451416016,0,0,0
0.48908749,0,0,1.4676456451416016,0,0,1.2994799613952637
0.489420969,0,0,1.4676456451416016,0,0,0.8408399820327759
0.489776428,0,0,1.4676456451416016,0,0,0
0.490087981,0,0,1.4676456451416016,0,0,0.152879998087883
0.490420941,0,0,1.4676456451416016,0,0,0.6879600286483765
0.490777012,0,0,1.4676456451416016,0,0,0.7644000053405762
0.491088231,0,0,1.3048399686813354,0,0,0.8408399820327759
0.491421006,0,0,1.3048399686813354,0,0,0.9172800183296204
0.491767725,0,0,1.3048399686813354,0,0,0.8408399820327759
0.492087852,0,0,1.3048399686813354,0,0,0.611519992351532
0.492420775,0,0,1.3048399686813354,0,0,0.7644000053405762
0.492760346,0,0,1.3048399686813354,0,0,0.9172800183296204
0.493088047,0,0,1.3048399686813354,0,0,0.9937199950218201
0.493444562,0,0,1.2449848651885986,0,0,1.070159912109375
0.49375517,0,0,1.2449848651885986,0,0,0.8408399820327759
0.49408763,0,0,1.2449848651885986,0,0,0.6879600286483765
0.494421238,0,0,1.2449848651885986,0,0,0.8408399820327759
0.494759235,0,0,1.2449848651885986,0,0,1.5288000106811523
0.495095973,0,0,1.2449848651885986,0,0,0.6879600286483765
0.495443044,0,0,1.2449848651885986,0,0,1.070159912109375
0.495755337,0,0,1.1037269830703735,0,0,0.9937199950218201
0.496090594,0,0,1.1037269830703735,0,0,1.2994799613952637
0.496443628,0,0,1.1037269830703735,0,0,1.070159912109375
0.496754569,0,0,1.1037269830703735,0,0,0.4586400091648102
0.497087714,0,0,1.1037269830703735,0,0,0.6879600286483765
0.497441989,0,0,1.1037269830703735,0,0,0.6879600286483765
0.497754505,0,0,1.1037269830703735,0,0,0.305759996175766
0.498088131,0,0,1.1492167711257935,0,0,0.305759996175766
0.498434776,0,0,1.1492167711257935,0,0,-0.3822000026702881
0.498754459,0,0,1.1492167711257935,0,0,1.223039984703064
0.499088159,0,0,1.1492167711257935,0,0,1.223039984703064
0.499425934,0,0,1.1492167711257935,0,0,1.375920057296753
0.499754357,0,0,1.1492167711257935,0,0,0.6879600286483765
0.500109798,0,0,1.1492167711257935,0,0,-0.305759996175766
0.500420999,0,0,1.1803414821624756,0,0,-0.3822000026702881
0.500754218,0,0,1.1803414821624756,0,0,0.7644000053405762
0.501109845,0,0,1.1803414821624756,0,0,0.9172800183296204
0.501421305,0,0,1.1803414821624756,0,0,0.7644000053405762
0.501754154,0,0,1.1803414821624756,0,0,0.6879600286483765
0.502108095,0,0,1.280897855758667,0,0,0.8408399820327759
0.502421148,0,0,1.280897855758667,0,0,0.9172800183296204
0.502754311,0,0,1.280897855758667,0,0,0.5350799560546875
0.503099882,0,0,1.280897855758667,0,0,0.9172800183296204
0.503421324,0,0,1.280897855758667,0,0,0.9937199950218201
0.503754265,0,0,1.280897855758667,0,0,0.9172800183296204
0.504091688,0,0,1.280897855758667,0,0,0.5350799560546875
0.504421,0,0,1.381454348564148,0,0,1.1466000080108643
0.504776034,0,0,1.381454348564148,0,0,1.070159912109375
0.505087401,0,0,1.381454348564148,0,0,1.070159912109375
0.505420991,0,0,1.381454348564148,0,0,0.9172800183296204
0.505776562,0,0,1.381454348564148,0,0,0.6879600286483765
0.506093763,0,0,1.381454348564148,0,0,0.8408399820327759
0.506423778,0,0,1.381454348564148,0,0,0.9172800183296204
0.506775108,0,0,1.50355863571167,0,0,1.223039984703064
0.50708768,0,0,1.50355863571167,0,0,0.8408399820327759
0.507420899,0,0,1.50355863571167,0,0,0.3822000026702881
0.507766859,0,0,1.50355863571167,0,0,0.8408399820327759
0.5080878,0,0,1.50355863571167,0,0,0.611519992351532
0.508420964,0,0,1.4963760375976563,0,0,0.611519992351532
0.50875885,0,0,1.4963760375976563,0,0,0.4586400091648102
0.509087569,0,0,1.4963760375976563,0,0,0.8408399820327759
0.50944214,0,0,1.4963760375976563,0,0,0.9937199950218201
0.509754174,0,0,1.4963760375976563,0,0,0.9172800183296204
0.51008756,0,0,1.4963760375976563,0,0,0.6879600286483765
0.51044226,0,0,1.4963760375976563,0,0,1.605239987373352
0.510753906,0,0,1.5394717454910278,0,0,0.0764399990439415
0.511087662,0,0,1.5394717454910278,0,0,-0.7644000053405762
0.511443474,0,0,1.5394717454910278,0,0,0.9937199950218201
0.511754397,0,0,1.5394717454910278,0,0,1.5288000106811523
0.512087579,0,0,1.5394717454910278,0,0,1.8345600366592407
0.51244189,0,0,1.5394717454910278,0,0,0.4586400091648102
0.512754536,0,0,1.5394717454910278,0,0,0.9172800183296204
0.513087625,0,0,1.2521674633026123,0,0,0.611519992351532
0.513433474,0,0,1.2521674633026123,0,0,0.611519992351532
0.513754934,0,0,1.2521674633026123,0,0,0.8408399820327759
0.51408745,0,0,1.2521674633026123,0,0,0.9937199950218201
0.514425298,0,0,1.2521674633026123,0,0,0.7644000053405762
0.514754573,0,0,1.2521674633026123,0,0,0.611519992351532
0.515108903,0,0,1.2521674633026123,0,0,0.611519992351532
0.515422197,0,0,1.3096283674240112,0,0,0.9937199950218201
0.515754286,0,0,1.3096283674240112,0,0,1.223039984703064
0.516110042,0,0,1.3096283674240112,0,0,0.9172800183296204
0.51642104,0,0,1.3096283674240112,0,0,0.611519992351532
0.516756426,0,0,1.3096283674240112,0,0,0.9172800183296204
0.517108311,0,0,1.3096283674240112,0,0,1.1466000080108643
0.51742142,0,0,1.3096283674240112,0,0,1.070159912109375
0.517754287,0,0,1.2689268589019775,0,0,0.8408399820327759
0.518100284,0,0,1.2689268589019775,0,0,1.070159912109375
0.51842104,0,0,1.2689268589019775,0,0,0.6879600286483765
0.518754352,0,0,1.2689268589019775,0,0,0.9172800183296204
0.519092164,0,0,1.2689268589019775,0,0,0.4586400091648102
0.519420938,0,0,1.2689268589019775,0,0,1.1466000080108643
0.519776991,0,0,1.2689268589019775,0,0,0.7644000053405762
0.520087155,0,0,1.0582371950149536,0,0,0.8408399820327759
0.520421022,0,0,1.0582371950149536,0,0,0.7644000053405762
0.520776741,0,0,1.0582371950149536,0,0,1.1466000080108643
0.521087794,0,0,1.0582371950149536,0,0,0.5350799560546875
0.521421013,0,0,1.0582371950149536,0,0,-0.4586400091648102
0.521774658,0,0,1.0582371950149536,0,0,0
0.522087766,0,0,1.0582371950149536,0,0,0.9937199950218201
0.522420819,0,0,1.0582371950149536,0,0,0.9172800183296204
0.522766945,0,0,1.173158884048462,0,0,0.8408399820327759
0.523087683,0,0,1.173158884048462,0,0,0.9937199950218201
0.523420865,0,0,1.173158884048462,0,0,0.5350799560546875
0.523759288,0,0,1.173158884048462,0,0,0.9937199950218201
0.524087915,0,0,1.173158884048462,0,0,0.5350799560546875
0.524421171,0,0,1.173158884048462,0,0,0
0.524759742,0,0,1.173158884048462,0,0,1.6816799640655518
0.525087832,0,0,1.2713210582733154,0,0,1.223039984703064
0.525442866,0,0,1.2713210582733154,0,0,2.3696401119232178
0.525753678,0,0,1.2713210582733154,0,0,0.9172800183296204
0.526087582,0,0,1.2713210582733154,0,0,0.9172800183296204
0.526422153,0,0,1.2713210582733154,0,0,0.9172800183296204
0.526759428,0,0,1.2713210582733154,0,0,0.9172800183296204
0.527090036,0,0,1.2713210582733154,0,0,0.6879600286483765
0.527449755,0,0,1.403002142906189,0,0,0.9172800183296204
0.527755104,0,0,1.403002142906189,0,0,0.9937199950218201
0.528087527,0,0,1.403002142906189,0,0,0.9172800183296204
0.52844382,0,0,1.403002142906189,0,0,0.8408399820327759
0.528754354,0,0,1.403002142906189,0,0,0.4586400091648102
0.529087499,0,0,1.403002142906189,0,0,0.611519992351532
0.529442033,0,0,1.403002142906189,0,0,0.5350799560546875
0.529754401,0,0,1.5155296325683594,0,0,0.5350799560546875
0.530087435,0,0,1.5155296325683594,0,0,0.611519992351532
0.530433283,0,0,1.5155296325683594,0,0,0.5350799560546875
0.530754151,0,0,1.5155296325683594,0,0,0.9172800183296204
0.531087611,0,0,1.5155296325683594,0,0,1.5288000106811523
0.53142483,0,0,1.5155296325683594,0,0,1.375920057296753
0.531754364,0,0,1.5155296325683594,0,0,0.4586400091648102
0.532108639,0,0,1.4508862495422363,0,0,-0.5350799560546875
0.532420099,0,0,1.4508862495422363,0,0,0
0.532754133,0,0,1.4508862495422363,0,0,1.070159912109375
0.533110407,0,0,1.4508862495422363,0,0,1.2994799613952637
0.533421164,0,0,1.4508862495422363,0,0,0.7644000053405762
0.533754253,0,0,1.4508862495422363,0,0,1.375920057296753
0.534108621,0,0,1.4508862495422363,0,0,1.375920057296753
0.534421173,0,0,1.6160861253738403,0,0,0.3822000026702881
0.534754781,0,0,1.6160861253738403,0,0,0.4586400091648102
0.535099964,0,0,1.6160861253738403,0,0,0.6879600286483765
0.535420905,0,0,1.6160861253738403,0,0,0.305759996175766
0.535754846,0,0,1.6160861253738403,0,0,0.9172800183296204
0.536092418,0,0,1.6160861253738403,0,0,0.611519992351532
0.536420952,0,0,1.6160861253738403,0,0,1.8345600366592407
0.536776226,0,0,1.6160861253738403,0,0,0.305759996175766
0.537087371,0,0,1.4221558570861816,0,0,0.0764399990439415
0.53742422,0,0,1.4221558570861816,0,0,0.5350799560546875
0.537777828,0,0,1.4221558570861816,0,0,0.9172800183296204
0.538088085,0,0,1.4221558570861816,0,0,0.9172800183296204
0.538420934,0,0,1.4221558570861816,0,0,0.9172800183296204
0.538775097,0,0,1.4221558570861816,0,0,0.5350799560546875
0.539087705,0,0,1.4221558570861816,0,0,0.8408399820327759
0.539420924,0,0,1.3311761617660522,0,0,0.8408399820327759
0.539768088,0,0,1.3311761617660522,0,0,1.070159912109375
0.540087678,0,0,1.3311761617660522,0,0,0.9937199950218201
0.540421008,0,0,1.3311761617660522,0,0,0.8408399820327759
0.540763005,0,0,1.3311761617660522,0,0,0.7644000053405762
0.541087835,0,0,1.3311761617660522,0,0,0.7644000053405762
0.541420962,0,0,1.3311761617660522,0,0,0.7644000053405762
0.541758385,0,0,1.3431471586227417,0,0,1.1466000080108643
0.542087586,0,0,1.3431471586227417,0,0,0.4586400091648102
0.542442675,0,0,1.3431471586227417,0,0,0.2293200045824051
0.542754487,0,0,1.3431471586227417,0,0,0.4586400091648102
0.543088151,0,0,1.3431471586227417,0,0,0.611519992351532
0.543443407,0,0,1.3431471586227417,0,0,0.4586400091648102
0.543754256,0,0,1.3431471586227417,0,0,0.7644000053405762
0.544087456,0,0,1.216254472732544,0,0,1.1466000080108643
0.544441453,0,0,1.216254472732544,0,0,0.5350799560546875
0.544754654,0,0,1.216254472732544,0,0,0.9172800183296204
0.545087614,0,0,1.216254472732544,0,0,0.611519992351532
0.545433574,0,0,1.216254472732544,0,0,1.1466000080108643
0.545754386,0,0,1.216254472732544,0,0,0.6879600286483765
0.546087494,0,0,1.216254472732544,0,0,0.3822000026702881
0.546428343,0,0,1.1180921792984009,0,0,1.375920057296753
0.546754414,0,0,1.1180921792984009,0,0,0.8408399820327759
0.547087503,0,0,1.1180921792984009,0,0,1.605239987373352
0.547441296,0,0,1.1180921792984009,0,0,1.375920057296753
0.547756368,0,0,1.1180921792984009,0,0,0.611519992351532
0.548109753,0,0,1.1180921792984009,0,0,0.5350799560546875
0.548421177,0,0,1.1180921792984009,0,0,0.5350799560546875
0.548762673,0,0,1.1324573755264282,0,0,0
0.549109337,0,0,1.1324573755264282,0,0,1.070159912109375
0.549420964,0,0,1.1324573755264282,0,0,1.2994799613952637
0.549754294,0,0,1.1324573755264282,0,0,0.6879600286483765
0.55010155,0,0,1.1324573755264282,0,0,0.7644000053405762
0.550420973,0,0,1.1324573755264282,0,0,0.5350799560546875
0.550754341,0,0,1.1324573755264282,0,0,0.611519992351532
0.551096523,0,0,1.3120225667953491,0,0,0.611519992351532
0.551421001,0,0,1.3120225667953491,0,0,0.5350799560546875
0.551754146,0,0,1.3120225667953491,0,0,0.611519992351532
0.552095458,0,0,1.3120225667953491,0,0,0.5350799560546875
0.552421381,0,0,1.3120225667953491,0,0,1.1466000080108643
0.552776285,0,0,1.3120225667953491,0,0,0.4586400091648102
0.553086412,0,0,1.3120225667953491,0,0,0
0.553420817,0,0,1.3120225667953491,0,0,0.5350799560546875
0.553776499,0,0,1.4700398445129395,0,0,0.9172800183296204
0.554087662,0,0,1.4700398445129395,0,0,0.4586400091648102
0.554420974,0,0,1.4700398445129395,0,0,0.5350799560546875
0.55477386,0,0,1.4700398445129395,0,0,0.7644000053405762
0.55508769,0,0,1.4700398445129395,0,0,0.9172800183296204
0.555420836,0,0,1.4700398445129395,0,0,0.6879600286483765
0.555766962,0,0,1.4700398445129395,0,0,0.6879600286483765
0.5560877,0,0,1.5107412338256836,0,0,0.9172800183296204
0.556420901,0,0,1.5107412338256836,0,0,0.6879600286483765
0.556758972,0,0,1.5107412338256836,0,0,1.223039984703064
0.557087561,0,0,1.5107412338256836,0,0,0.8408399820327759
0.557442262,0,0,1.5107412338256836,0,0,1.070159912109375
0.557753759,0,0,1.5107412338256836,0,0,1.452359914779663
0.558090423,0,0,1.5107412338256836,0,0,1.223039984703064
0.558442956,0,0,1.4460978507995605,0,0,1.1466000080108643
0.558754379,0,0,1.4460978507995605,0,0,0.5350799560546875
0.559087765,0,0,1.4460978507995605,0,0,0.9172800183296204
0.559443336,0,0,1.4460978507995605,0,0,0.5350799560546875
0.559754445,0,0,1.4460978507995605,0,0,0.152879998087883
0.560087553,0,0,1.4460978507995605,0,0,1.1466000080108643
0.560441938,0,0,1.4460978507995605,0,0,1.6816799640655518
0.560754269,0,0,1.4915876388549805,0,0,1.8345600366592407
0.561087525,0,0,1.4915876388549805,0,0,0.2293200045824051
0.561434726,0,0,1.4915876388549805,0,0,2.06387996673584
0.561754519,0,0,1.4915876388549805,0,0,9.478560447692871
0.562087646,0,0,1.4915876388549805,0,0,0.305759996175766
0.56243005,0,0,1.4915876388549805,0,0,0.8408399820327759
0.562754269,0,0,1.4915876388549805,0,0,1.452359914779663
0.563115136,0,0,1.235408067703247,0,0,0.5350799560546875
0.563662391,0,0,1.235408067703247,0,0,-0.8408399820327759
0.563782741,0,0,1.235408067703247,0,0,0.5350799560546875
0.564099665,0,0,1.235408067703247,0,0,0.9937199950218201
0.564422402,0,0,1.235408067703247,0,0,0.611519992351532
0.564776066,0,0,1.235408067703247,0,0,0.9172800183296204
0.565087952,0,0,1.235408067703247,0,0,0.9172800183296204
0.565421208,0,0,1.2545616626739502,0,0,0.5350799560546875
0.565768557,0,0,1.2545616626739502,0,0,0.5350799560546875
0.566087758,0,0,1.2545616626739502,0,0,0.8408399820327759
0.566421051,0,0,1.2545616626739502,0,0,1.1466000080108643
0.566764622,0,0,1.2545616626739502,0,0,0.9172800183296204
0.567087804,0,0,1.2545616626739502,0,0,0.6879600286483765
0.567421042,0,0,1.2545616626739502,0,0,0.5350799560546875
0.567758669,0,0,1.2282254695892334,0,0,0.6879600286483765
0.568087777,0,0,1.2282254695892334,0,0,1.1466000080108643
0.568448218,0,0,1.2282254695892334,0,0,1.223039984703064
0.568756345,0,0,1.2282254695892334,0,0,1.2994799613952637
0.569087694,0,0,1.2282254695892334,0,0,0.6879600286483765
0.569443061,0,0,1.2282254695892334,0,0,0.9172800183296204
0.569753447,0,0,1.2282254695892334,0,0,0.305759996175766
0.570103555,0,0,1.2282254695892334,0,0,0.611519992351532
0.570421719,0,0,1.039083480834961,0,0,0.611519992351532
0.570759327,0,0,1.039083480834961,0,0,0.5350799560546875
0.571087805,0,0,1.039083480834961,0,0,1.452359914779663
0.571442894,0,0,1.039083480834961,0,0,1.605239987373352
0.571754836,0,0,1.039083480834961,0,0,0.4586400091648102
0.5720875,0,0,1.039083480834961,0,0,0.6879600286483765
0.572443941,0,0,1.039083480834961,0,0,9.631440162658691
0.572754568,0,0,1.091755986213684,0,0,0
0.57308775,0,0,1.091755986213684,0,0,1.452359914779663
0.57344258,0,0,1.091755986213684,0,0,2.3696401119232178
0.573754374,0,0,1.091755986213684,0,0,2.2932000160217285
0.574087704,0,0,1.091755986213684,0,0,0.0764399990439415
0.574434756,0,0,1.091755986213684,0,0,0.7644000053405762
0.574754328,0,0,1.091755986213684,0,0,0.3822000026702881
0.575087621,0,0,1.1803414821624756,0,0,0.611519992351532
0.575429747,0,0,1.1803414821624756,0,0,0.611519992351532
0.575754411,0,0,1.1803414821624756,0,0,0.6879600286483765
0.576087686,0,0,1.1803414821624756,0,0,0.8408399820327759
0.576423238,0,0,1.1803414821624756,0,0,0.7644000053405762
0.576754272,0,0,1.1803414821624756,0,0,0.9172800183296204
0.57710901,0,0,1.1803414821624756,0,0,0.9937199950218201
0.577420211,0,0,1.434126853942871,0,0,0.8408399820327759
0.577754263,0,0,1.434126853942871,0,0,0.9172800183296204
0.578109686,0,0,1.434126853942871,0,0,0.5350799560546875
0.578420646,0,0,1.434126853942871,0,0,0.8408399820327759
0.579025345,0,0,1.434126853942871,0,0,0.8408399820327759
0.579048696,0,0,1.434126853942871,0,0,0.9172800183296204
0.579438341,0,0,1.434126853942871,0,0,0.6879600286483765
0.579753245,0,0,1.482010841369629,0,0,0.7644000053405762
0.580086465,0,0,1.482010841369629,0,0,0.7644000053405762
0.58042285,0,0,1.482010841369629,0,0,0.611519992351532
0.580753144,0,0,1.482010841369629,0,0,0.8408399820327759
0.581105529,0,0,1.482010841369629,0,0,0.9937199950218201
0.581419971,0,0,1.482010841369629,0,0,1.1466000080108643
0.581753135,0,0,1.482010841369629,0,0,0.4586400091648102
0.582107131,0,0,1.4389152526855469,0,0,0.6879600286483765
0.582419999,0,0,1.4389152526855469,0,0,0.2293200045824051
0.582753052,0,0,1.4389152526855469,0,0,0.305759996175766
0.583095882,0,0,1.4389152526855469,0,0,1.1466000080108643
0.583419879,0,0,1.4389152526855469,0,0,1.1466000080108643
0.583775079,0,0,1.4389152526855469,0,0,1.5288000106811523
0.58408728,0,0,1.4389152526855469,0,0,1.223039984703064
0.584419685,0,0,1.6112977266311646,0,0,0
0.584771459,0,0,1.6112977266311646,0,0,0.4586400091648102
0.585086605,0,0,1.6112977266311646,0,0,-0.3822000026702881
0.58541975,0,0,1.6112977266311646,0,0,-0.152879998087883
0.585763932,0,0,1.6112977266311646,0,0,1.223039984703064
0.586087596,0,0,1.6112977266311646,0,0,1.5288000106811523
0.586425815,0,0,1.6112977266311646,0,0,0.6879600286483765
0.586770071,0,0,1.4532804489135742,0,0,0.4586400091648102
0.587094383,0,0,1.4532804489135742,0,0,0.611519992351532
0.587430935,0,0,1.4532804489135742,0,0,0.6879600286483765
0.587771636,0,0,1.4532804489135742,0,0,1.070159912109375
0.588094559,0,0,1.4532804489135742,0,0,0.9172800183296204
0.588427926,0,0,1.4532804489135742,0,0,0.5350799560546875
0.588779627,0,0,1.4532804489135742,0,0,0.6879600286483765
0.58909255,0,0,1.2737152576446533,0,0,0.9172800183296204
0.589420325,0,0,1.2737152576446533,0,0,1.070159912109375
0.589759803,0,0,1.2737152576446533,0,0,0.7644000053405762
0.590086411,0,0,1.2737152576446533,0,0,1.1466000080108643
0.590421705,0,0,1.2737152576446533,0,0,0.7644000053405762
0.59076909,0,0,1.2737152576446533,0,0,0.9172800183296204
0.591086606,0,0,1.2737152576446533,0,0,1.070159912109375
0.591456288,0,0,1.3934253454208374,0,0,0.4586400091648102
0.591758785,0,0,1.3934253454208374,0,0,0.3822000026702881
0.592086652,0,0,1.3934253454208374,0,0,0.9937199950218201
0.592440149,0,0,1.3934253454208374,0,0,0.7644000053405762
0.592753313,0,0,1.3934253454208374,0,0,0.6879600286483765
0.593086106,0,0,1.3934253454208374,0,0,0.6879600286483765
0.593440214,0,0,1.3934253454208374,0,0,0.152879998087883
0.593753193,0,0,1.3934253454208374,0,0,0.8408399820327759
0.594086134,0,0,1.2282254695892334,0,0,1.452359914779663
0.594427465,0,0,1.2282254695892334,0,0,1.070159912109375
0.59475361,0,0,1.2282254695892334,0,0,0.611519992351532
0.595107977,0,0,1.2282254695892334,0,0,0
0.595420567,0,0,1.2282254695892334,0,0,0.305759996175766
0.595752971,0,0,1.2282254695892334,0,0,0.152879998087883
0.596104024,0,0,1.2282254695892334,0,0,1.2994799613952637
0.596419854,0,0,1.1516109704971313,0,0,1.375920057296753
0.596753073,0,0,1.1516109704971313,0,0,0.9937199950218201
0.5970967,0,0,1.1516109704971313,0,0,1.9109998941421509
0.59741966,0,0,1.1516109704971313,0,0,0.3822000026702881
0.597753009,0,0,1.1516109704971313,0,0,0.3822000026702881
0.598106154,0,0,1.1516109704971313,0,0,0.9172800183296204
0.598419688,0,0,1.1516109704971313,0,0,0.2293200045824051
0.598771777,0,0,1.192312479019165,0,0,0.8408399820327759
0.599086571,0,0,1.192312479019165,0,0,0.5350799560546875
0.599422031,0,0,1.192312479019165,0,0,1.070159912109375
0.599765713,0,0,1.192312479019165,0,0,1.1466000080108643
0.600086339,0,0,1.192312479019165,0,0,1.1466000080108643
0.600419614,0,0,1.192312479019165,0,0,0.6879600286483765
0.600754167,0,0,1.192312479019165,0,0,0.8408399820327759
0.601086164,0,0,1.357512354850769,0,0,0.8408399820327759
0.601440068,0,0,1.357512354850769,0,0,0.7644000053405762
0.601753195,0,0,1.357512354850769,0,0,0.611519992351532
0.602086284,0,0,1.357512354850769,0,0,1.070159912109375
0.602434522,0,0,1.357512354850769,0,0,0.4586400091648102
0.602754352,0,0,1.357512354850769,0,0,0.9172800183296204
0.603087664,0,0,1.357512354850769,0,0,0.9172800183296204
0.603427735,0,0,1.5107412338256836,0,0,1.1466000080108643
0.603754343,0,0,1.5107412338256836,0,0,0.4586400091648102
0.604087507,0,0,1.5107412338256836,0,0,0.4586400091648102
0.604440763,0,0,1.5107412338256836,0,0,0.9172800183296204
0.604754223,0,0,1.5107412338256836,0,0,1.2994799613952637
0.605109701,0,0,1.5107412338256836,0,0,1.070159912109375
0.605421199,0,0,1.5107412338256836,0,0,0.2293200045824051
0.605753955,0,0,1.6112977266311646,0,0,0.152879998087883
0.606108359,0,0,1.6112977266311646,0,0,0.305759996175766
0.606420986,0,0,1.6112977266311646,0,0,0.2293200045824051
0.606754168,0,0,1.6112977266311646,0,0,0.5350799560546875
0.607100258,0,0,1.6112977266311646,0,0,0.305759996175766
0.607420847,0,0,1.6112977266311646,0,0,0.9172800183296204
0.607754104,0,0,1.6112977266311646,0,0,1.070159912109375
0.60809436,0,0,1.6735470294952393,0,0,0.2293200045824051
0.608421023,0,0,1.6735470294952393,0,0,0.3822000026702881
0.608775668,0,0,1.6735470294952393,0,0,0.8408399820327759
0.609093925,0,0,1.6735470294952393,0,0,0.305759996175766
0.609421144,0,0,1.6735470294952393,0,0,-0.305759996175766
0.609778326,0,0,1.6735470294952393,0,0,0.305759996175766
0.610088342,0,0,1.6735470294952393,0,0,1.5288000106811523
0.610421024,0,0,1.6615760326385498,0,0,0.4586400091648102
0.61077591,0,0,1.6615760326385498,0,0,0.4586400091648102
0.611087499,0,0,1.6615760326385498,0,0,0.8408399820327759
0.61142083,0,0,1.6615760326385498,0,0,0.9172800183296204
0.611767938,0,0,1.6615760326385498,0,0,0.5350799560546875
0.612087564,0,0,1.6615760326385498,0,0,0.611519992351532
0.612420747,0,0,1.6615760326385498,0,0,1.070159912109375
0.612768355,0,0,1.2617442607879639,0,0,0.5350799560546875
0.613087611,0,0,1.2617442607879639,0,0,1.070159912109375
0.6134212,0,0,1.2617442607879639,0,0,0.9937199950218201
0.613773808,0,0,1.2617442607879639,0,0,0.5350799560546875
0.614087324,0,0,1.2617442607879639,0,0,0.5350799560546875
0.614421488,0,0,1.2617442607879639,0,0,0.305759996175766
0.614774114,0,0,1.2617442607879639,0,0,0.9937199950218201
0.61508763,0,0,1.2737152576446533,0,0,0.9937199950218201
0.615443404,0,0,1.2737152576446533,0,0,1.1466000080108643
0.615754365,0,0,1.2737152576446533,0,0,0.6879600286483765
0.616087454,0,0,1.2737152576446533,0,0,0
0.616441951,0,0,1.2737152576446533,0,0,0.5350799560546875
0.616754411,0,0,1.2737152576446533,0,0,0.5350799560546875
0.617087612,0,0,1.2737152576446533,0,0,0.3822000026702881
0.617434627,0,0,1.3096283674240112,0,0,0.7644000053405762
0.617754124,0,0,1.3096283674240112,0,0,1.070159912109375
0.618087381,0,0,1.3096283674240112,0,0,0.9172800183296204
0.618429415,0,0,1.3096283674240112,0,0,0.3822000026702881
0.618754356,0,0,1.3096283674240112,0,0,0.305759996175766
0.619087483,0,0,1.3096283674240112,0,0,0.6879600286483765
0.619422461,0,0,1.3096283674240112,0,0,0.9172800183296204
0.619754273,0,0,1.1420341730117798,0,0,0.3822000026702881
0.620110936,0,0,1.1420341730117798,0,0,1.070159912109375
0.620423304,0,0,1.1420341730117798,0,0,0.3822000026702881
0.620754153,0,0,1.1420341730117798,0,0,1.9109998941421509
0.621109853,0,0,1.1420341730117798,0,0,1.070159912109375
0.621421054,0,0,1.1420341730117798,0,0,0.611519992351532
0.62175457,0,0,1.0821791887283325,0,0,0.3822000026702881
0.622107289,0,0,1.0821791887283325,0,0,-0.305759996175766
0.622420953,0,0,1.0821791887283325,0,0,-0.3822000026702881
0.622754172,0,0,1.0821791887283325,0,0,0.9172800183296204
0.623099039,0,0,1.0821791887283325,0,0,0.9172800183296204
0.623420943,0,0,1.0821791887283325,0,0,0.6879600286483765
0.623754107,0,0,1.0821791887283325,0,0,0.8408399820327759
0.62409203,0,0,1.2641384601593018,0,0,0.6879600286483765
0.624421046,0,0,1.2641384601593018,0,0,0.5350799560546875
0.624775487,0,0,1.2641384601593018,0,0,0.4586400091648102
0.625087595,0,0,1.2641384601593018,0,0,0.2293200045824051
0.625420999,0,0,1.2641384601593018,0,0,0.9172800183296204
0.625776219,0,0,1.2641384601593018,0,0,1.452359914779663
0.626087734,0,0,1.2641384601593018,0,0,0.611519992351532
0.626421009,0,0,1.381454348564148,0,0,0
0.626775784,0,0,1.381454348564148,0,0,0.3822000026702881
0.627087614,0,0,1.381454348564148,0,0,0.9172800183296204
0.627420926,0,0,1.381454348564148,0,0,0.2293200045824051
0.627767738,0,0,1.381454348564148,0,0,0.611519992351532
0.628087475,0,0,1.381454348564148,0,0,1.1466000080108643
0.628420769,0,0,1.381454348564148,0,0,0.9937199950218201
0.62876271,0,0,1.5490485429763794,0,0,0.4586400091648102
0.629088133,0,0,1.5490485429763794,0,0,0.7644000053405762
0.629420741,0,0,1.5490485429763794,0,0,0.6879600286483765
0.629758405,0,0,1.5490485429763794,0,0,0.9172800183296204
0.630087494,0,0,1.5490485429763794,0,0,0.5350799560546875
0.630444862,0,0,1.5490485429763794,0,0,0.8408399820327759
0.630754266,0,0,1.5490485429763794,0,0,1.070159912109375
0.631087504,0,0,1.5107412338256836,0,0,1.1466000080108643
0.631442797,0,0,1.5107412338256836,0,0,1.375920057296753
0.631754202,0,0,1.5107412338256836,0,0,1.1466000080108643
0.632087421,0,0,1.5107412338256836,0,0,0.611519992351532
0.632441288,0,0,1.5107412338256836,0,0,0.6879600286483765
0.632754396,0,0,1.5107412338256836,0,0,0.2293200045824051
0.633087523,0,0,1.5107412338256836,0,0,0.0764399990439415
0.633433205,0,0,1.5753847360610962,0,0,0
0.633754387,0,0,1.5753847360610962,0,0,1.605239987373352
0.634117606,0,0,1.5753847360610962,0,0,1.758120059967041
0.63442914,0,0,1.5753847360610962,0,0,0.152879998087883
0.634754378,0,0,1.5753847360610962,0,0,0.305759996175766
0.635087412,0,0,1.5753847360610962,0,0,9.019920349121094
0.635422835,0,0,1.5753847360610962,0,0,0.3822000026702881
0.635754147,0,0,1.4413094520568848,0,0,0.7644000053405762
0.636108607,0,0,1.4413094520568848,0,0,1.1466000080108643
0.636419752,0,0,1.4413094520568848,0,0,1.223039984703064
0.636754101,0,0,1.4413094520568848,0,0,0.0764399990439415
0.637108079,0,0,1.4413094520568848,0,0,0
0.637420891,0,0,1.4413094520568848,0,0,0.611519992351532
0.637754258,0,0,1.4413094520568848,0,0,0.8408399820327759
0.638104107,0,0,1.2449848651885986,0,0,0.8408399820327759
0.638420586,0,0,1.2449848651885986,0,0,0.9172800183296204
0.638753879,0,0,1.2449848651885986,0,0,0.9172800183296204
0.639096969,0,0,1.2449848651885986,0,0,1.070159912109375
0.639580501,0,0,1.2449848651885986,0,0,-0.5350799560546875
0.639756055,0,0,1.2449848651885986,0,0,0.7644000053405762
0.6400877,0,0,1.2449848651885986,0,0,0.8408399820327759
0.640426827,0,0,1.3479355573654175,0,0,0.9937199950218201
0.640757139,0,0,1.3479355573654175,0,0,0.2293200045824051
0.641109636,0,0,1.3479355573654175,0,0,0.9172800183296204
0.641421188,0,0,1.3479355573654175,0,0,1.1466000080108643
0.641754222,0,0,1.3479355573654175,0,0,1.2994799613952637
0.642109089,0,0,1.3479355573654175,0,0,1.1466000080108643
0.642421068,0,0,1.3479355573654175,0,0,0.5350799560546875
0.642754917,0,0,1.194706678390503,0,0,0.9937199950218201
0.643106043,0,0,1.194706678390503,0,0,0.5350799560546875
0.643420967,0,0,1.194706678390503,0,0,0.4586400091648102
0.643754519,0,0,1.194706678390503,0,0,0.5350799560546875
0.644103238,0,0,1.194706678390503,0,0,0.3822000026702881
0.644420957,0,0,1.194706678390503,0,0,1.452359914779663
0.64476514,0,0,1.194706678390503,0,0,0.5350799560546875
0.64510197,0,0,1.161187767982483,0,0,1.1466000080108643
0.645421152,0,0,1.161187767982483,0,0,0.611519992351532
0.645753908,0,0,1.161187767982483,0,0,0
0.646096498,0,0,1.161187767982483,0,0,1.2994799613952637
0.646421051,0,0,1.161187767982483,0,0,1.1466000080108643
0.646754399,0,0,1.161187767982483,0,0,1.6816799640655518
0.647092119,0,0,1.161187767982483,0,0,0
0.647421671,0,0,1.170764684677124,0,0,1.605239987373352
0.647754261,0,0,1.170764684677124,0,0,0.5350799560546875
0.648100035,0,0,1.170764684677124,0,0,0.8408399820327759
0.648421051,0,0,1.170764684677124,0,0,0.7644000053405762
0.648754326,0,0,1.170764684677124,0,0,0.611519992351532
0.649092193,0,0,1.170764684677124,0,0,0.9172800183296204
0.649421098,0,0,1.2282254695892334,0,0,0.6879600286483765
0.64977552,0,0,1.2282254695892334,0,0,0.8408399820327759
0.65008774,0,0,1.2282254695892334,0,0,0.6879600286483765
0.650420514,0,0,1.2282254695892334,0,0,0.5350799560546875
0.650776011,0,0,1.2282254695892334,0,0,0.9172800183296204
0.651091212,0,0,1.2282254695892334,0,0,0.6879600286483765
0.651420691,0,0,1.2282254695892334,0,0,0.3822000026702881
0.651911242,0,0,1.2282254695892334,0,0,0.7644000053405762
0.652089573,0,0,1.45806884765625,0,0,0.9172800183296204
0.652421311,0,0,1.45806884765625,0,0,1.223039984703064
0.652759938,0,0,1.45806884765625,0,0,0.8408399820327759
0.653087879,0,0,1.45806884765625,0,0,0.7644000053405762
0.653442839,0,0,1.45806884765625,0,0,0.6879600286483765
0.653754762,0,0,1.45806884765625,0,0,0.7644000053405762
0.654087796,0,0,1.4963760375976563,0,0,0.6879600286483765
0.654421349,0,0,1.4963760375976563,0,0,0.6879600286483765
0.654763031,0,0,1.4963760375976563,0,0,0.8408399820327759
0.655087676,0,0,1.4963760375976563,0,0,0.7644000053405762
0.655451136,0,0,1.4963760375976563,0,0,0.8408399820327759
0.655759207,0,0,1.4963760375976563,0,0,0.9172800183296204
0.656087963,0,0,1.4963760375976563,0,0,0.611519992351532
0.656442997,0,0,1.4963760375976563,0,0,0
0.656753494,0,0,1.4197616577148438,0,0,1.070159912109375
0.657087862,0,0,1.4197616577148438,0,0,0.9937199950218201
0.657443803,0,0,1.4197616577148438,0,0,1.375920057296753
0.657754541,0,0,1.4197616577148438,0,0,1.452359914779663
0.658087778,0,0,1.4197616577148438,0,0,0
0.658443035,0,0,1.4197616577148438,0,0,1.5288000106811523
0.658754587,0,0,1.4197616577148438,0,0,0.3822000026702881
0.659087899,0,0,1.5682021379470825,0,0,9.096360206604004
0.659434414,0,0,1.5682021379470825,0,0,0.7644000053405762
0.659754541,0,0,1.5682021379470825,0,0,0.611519992351532
0.660087649,0,0,1.5682021379470825,0,0,0.6879600286483765
0.66042922,0,0,1.5682021379470825,0,0,0.611519992351532
0.66075468,0,0,1.5682021379470825,0,0,0.8408399820327759
0.661087492,0,0,1.5682021379470825,0,0,0.7644000053405762
0.661427045,0,0,1.3503297567367554,0,0,0.5350799560546875
0.661754912,0,0,1.3503297567367554,0,0,0.6879600286483765
0.662108909,0,0,1.3503297567367554,0,0,0.7644000053405762
0.662419925,0,0,1.3503297567367554,0,0,0.9937199950218201
0.662754347,0,0,1.3503297567367554,0,0,1.2994799613952637
0.663109641,0,0,1.3503297567367554,0,0,1.375920057296753
0.663421267,0,0,1.3503297567367554,0,0,1.070159912109375
0.663754375,0,0,1.3048399686813354,0,0,0.7644000053405762
0.664107483,0,0,1.3048399686813354,0,0,0.611519992351532
0.664421092,0,0,1.3048399686813354,0,0,0.4586400091648102
0.664754978,0,0,1.3048399686813354,0,0,0.3822000026702881
0.665101419,0,0,1.3048399686813354,0,0,0.5350799560546875
0.665421472,0,0,1.3048399686813354,0,0,0.6879600286483765
0.665754339,0,0,1.3048399686813354,0,0,0.9937199950218201
0.66609341,0,0,1.2976573705673218,0,0,0.5350799560546875
0.666421111,0,0,1.2976573705673218,0,0,0.6879600286483765
0.666775959,0,0,1.2976573705673218,0,0,0.4586400091648102
0.667086734,0,0,1.2976573705673218,0,0,0.3822000026702881
0.667421305,0,0,1.2976573705673218,0,0,0.0764399990439415
0.667776691,0,0,1.2976573705673218,0,0,1.2994799613952637
0.668087984,0,0,1.2976573705673218,0,0,1.5288000106811523
0.668421093,0,0,1.139639973640442,0,0,0.7644000053405762
0.668775108,0,0,1.139639973640442,0,0,-0.2293200045824051
0.669088031,0,0,1.139639973640442,0,0,0.0764399990439415
0.669421028,0,0,1.139639973640442,0,0,0.611519992351532
0.669766895,0,0,1.139639973640442,0,0,0.305759996175766
0.670087874,0,0,1.139639973640442,0,0,0.305759996175766
0.670421019,0,0,1.139639973640442,0,0,1.452359914779663
0.670759701,0,0,1.1276689767837524,0,0,0.305759996175766
0.671087846,0,0,1.1276689767837524,0,0,1.605239987373352
0.671442695,0,0,1.1276689767837524,0,0,1.758120059967041
0.671757044,0,0,1.1276689767837524,0,0,0.7644000053405762
0.672088263,0,0,1.1276689767837524,0,0,0.7644000053405762
0.672443001,0,0,1.1276689767837524,0,0,0.611519992351532
0.672754572,0,0,1.1276689767837524,0,0,0.7644000053405762
0.673087532,0,0,1.213860273361206,0,0,0.9937199950218201
0.673441621,0,0,1.213860273361206,0,0,1.1466000080108643
0.673754507,0,0,1.213860273361206,0,0,0.9172800183296204
0.674087764,0,0,1.213860273361206,0,0,1.070159912109375
0.674433668,0,0,1.213860273361206,0,0,1.070159912109375
0.674754554,0,0,1.213860273361206,0,0,0.9172800183296204
0.675087792,0,0,1.213860273361206,0,0,0.5350799560546875
0.675425529,0,0,1.213860273361206,0,0,0.8408399820327759
0.675754489,0,0,1.213860273361206,0,0,0.9937199950218201
0.676108912,0,0,1.213860273361206,0,0,0.6879600286483765
0.67642078,0,0,1.213860273361206,0,0,0.9172800183296204
0.676760665,0,0,1.213860273361206,0,0,0.7644000053405762
0.677110033,0,0,1.213860273361206,0,0,0.7644000053405762
0.677421141,0,0,1.213860273361206,0,0,0.4586400091648102
0.677754286,0,0,1.4269442558288574,0,0,0.152879998087883
0.678107838,0,0,1.4269442558288574,0,0,0.7644000053405762
0.678421299,0,0,1.4269442558288574,0,0,1.070159912109375
0.67875437,0,0,1.4269442558288574,0,0,0.7644000053405762
0.679100052,0,0,1.4269442558288574,0,0,0.611519992351532
0.679421493,0,0,1.4269442558288574,0,0,0.6879600286483765
0.679754286,0,0,1.4269442558288574,0,0,0.611519992351532
0.680091265,0,0,1.4245500564575195,0,0,1.375920057296753
0.680421132,0,0,1.4245500564575195,0,0,0.4586400091648102
0.680775074,0,0,1.4245500564575195,0,0,0.2293200045824051
0.681086256,0,0,1.4245500564575195,0,0,0.9172800183296204
0.681421049,0,0,1.4245500564575195,0,0,0.9937199950218201
0.681776676,0,0,1.4245500564575195,0,0,2.2932000160217285
0.682090191,0,0,1.4245500564575195,0,0,1.605239987373352
0.682419818,0,0,1.5179238319396973,0,0,0.611519992351532
0.682772185,0,0,1.5179238319396973,0,0,-0.5350799560546875
0.683227737,0,0,1.5179238319396973,0,0,0
0.683422124,0,0,1.5179238319396973,0,0,-0.4586400091648102
0.683761176,0,0,1.5179238319396973,0,0,2.2932000160217285
0.684086488,0,0,1.5179238319396973,0,0,2.06387996673584
0.684441022,0,0,1.5179238319396973,0,0,0.9937199950218201
0.684753612,0,0,1.3766659498214722,0,0,0.7644000053405762
0.685086183,0,0,1.3766659498214722,0,0,0.9937199950218201
0.685441105,0,0,1.3766659498214722,0,0,0.7644000053405762
0.685753177,0,0,1.3766659498214722,0,0,0.7644000053405762
0.6860861,0,0,1.3766659498214722,0,0,0.611519992351532
0.6864353,0,0,1.3766659498214722,0,0,0.7644000053405762
0.68675476,0,0,1.3766659498214722,0,0,1.1466000080108643
0.687087517,0,0,1.094150185585022,0,0,0.7644000053405762
0.687429606,0,0,1.094150185585022,0,0,0.3822000026702881
0.687754344,0,0,1.094150185585022,0,0,0.5350799560546875
0.688087507,0,0,1.094150185585022,0,0,0.7644000053405762
0.688422616,0,0,1.094150185585022,0,0,0.8408399820327759
0.68875415,0,0,1.094150185585022,0,0,1.1466000080108643
0.689108906,0,0,1.094150185585022,0,0,0.6879600286483765
0.689423181,0,0,1.2018892765045166,0,0,9.631440162658691
0.689754067,0,0,1.2018892765045166,0,0,0.611519992351532
0.690109174,0,0,1.2018892765045166,0,0,0.9172800183296204
0.690420912,0,0,1.2018892765045166,0,0,0.7644000053405762
0.690754243,0,0,1.2018892765045166,0,0,0.611519992351532
0.691106758,0,0,1.2018892765045166,0,0,0.5350799560546875
0.69142107,0,0,1.2018892765045166,0,0,0.3822000026702881
0.691754085,0,0,1.1971008777618408,0,0,0.9172800183296204
0.692100268,0,0,1.1971008777618408,0,0,0.2293200045824051
0.692423598,0,0,1.1971008777618408,0,0,0.5350799560546875
0.693421385,0,0,1.1971008777618408,0,0,0.5350799560546875
0.693444792,0,0,1.1971008777618408,0,0,0.5350799560546875
0.693467514,0,0,1.1971008777618408,0,0,0
0.693772141,0,0,1.1971008777618408,0,0,0.8408399820327759
0.694087824,0,0,1.1971008777618408,0,0,0
0.694420191,0,0,1.0342950820922852,0,0,1.452359914779663
0.694754336,0,0,1.0342950820922852,0,0,1.5288000106811523
0.695092259,0,0,1.0342950820922852,0,0,1.375920057296753
0.695427793,0,0,1.0342950820922852,0,0,0.9172800183296204
0.695790068,0,0,1.0342950820922852,0,0,0.9172800183296204
0.696093546,0,0,1.0342950820922852,0,0,1.9874399900436401
0.696424969,0,0,1.0342950820922852,0,0,1.070159912109375
0.696786947,0,0,1.0606313943862915,0,0,0.6879600286483765
0.697097815,0,0,1.0606313943862915,0,0,0.8408399820327759
0.69742346,0,0,1.0606313943862915,0,0,0.6879600286483765
0.697781809,0,0,1.0606313943862915,0,0,0.5350799560546875
0.69808888,0,0,1.0606313943862915,0,0,0.6879600286483765
0.698422507,0,0,1.0606313943862915,0,0,0.8408399820327759
0.698776244,0,0,1.0606313943862915,0,0,0.9172800183296204
0.69908976,0,0,1.1994950771331787,0,0,1.223039984703064
0.699422053,0,0,1.1994950771331787,0,0,0.3822000026702881
0.699777272,0,0,1.1994950771331787,0,0,0.2293200045824051
0.700088399,0,0,1.1994950771331787,0,0,0.5350799560546875
0.700421859,0,0,1.1994950771331787,0,0,0.7644000053405762
0.700772078,0,0,1.1994950771331787,0,0,0.8408399820327759
0.70108976,0,0,1.1994950771331787,0,0,0.9172800183296204
0.701422406,0,0,1.3982137441635132,0,0,0.8408399820327759
0.701777125,0,0,1.3982137441635132,0,0,0.611519992351532
0.702095603,0,0,1.3982137441635132,0,0,0.9172800183296204
0.702423619,0,0,1.3982137441635132,0,0,0.152879998087883
0.702784467,0,0,1.3982137441635132,0,0,0.9937199950218201
0.703089057,0,0,1.3982137441635132,0,0,1.223039984703064
