Time,AccelX1,AccelY1,AccelZ1,AccelX2,AccelY2,AccelZ2
0.000014222,0,0,1.5969325304031372,0,0,0.9937199950218201
0.008469182,0,0,1.5969325304031372,0,0,0.7644000053405762
0.008669125,0,0,1.5969325304031372,0,0,0.8408399820327759
0.008844327,0,0,1.4748282432556152,0,0,0.6879600286483765
0.009019622,0,0,1.4748282432556152,0,0,0.6879600286483765
0.009208417,0,0,1.4748282432556152,0,0,0.9937199950218201
0.009380657,0,0,1.4748282432556152,0,0,0.9937199950218201
0.009550304,0,0,1.4748282432556152,0,0,0.2293200045824051
0.009719692,0,0,1.4748282432556152,0,0,0.2293200045824051
0.009897598,0,0,1.4101848602294922,0,0,0
0.010239484,0,0,1.501164436340332,0,0,0.9172800183296204
0.011234662,0,0,1.4963760375976563,0,0,1.1466000080108643
0.012246952,0,0,1.4269442558288574,0,0,0.9172800183296204
0.013248796,0,0,1.5418659448623657,0,0,0.8408399820327759
0.014231364,0,0,1.5634137392044067,0,0,0.5350799560546875
0.015231505,0,0,1.5203180313110352,0,0,0.8408399820327759
0.016231905,0,0,1.5442601442337036,0,0,0.8408399820327759
0.017242176,0,0,1.5418659448623657,0,0,0.9172800183296204
0.018252187,0,0,1.5634137392044067,0,0,0.9937199950218201
0.019231347,0,0,1.5394717454910278,0,0,0.8408399820327759
0.020247951,0,0,1.4413094520568848,0,0,0.9937199950218201
0.021232444,0,0,1.414973258972168,0,0,0.6879600286483765
0.022231363,0,0,1.3503297567367554,0,0,0.8408399820327759
0.023231578,0,0,1.3910311460494995,0,0,0.7644000053405762
0.024231034,0,0,1.4891934394836426,0,0,0.9937199950218201
0.025232694,0,0,1.5729905366897583,0,0,0.611519992351532
0.026232002,0,0,1.6519991159439087,0,0,0.9172800183296204
0.027231291,0,0,1.6927006244659424,0,0,1.1466000080108643
0.02823171,0,0,1.6160861253738403,0,0,0.611519992351532
0.029237277,0,0,1.5514427423477173,0,0,0.7644000053405762
0.030232418,0,0,1.5298948287963867,0,0,0.8408399820327759
0.031231523,0,0,1.3670891523361206,0,0,0.8408399820327759
0.032231719,0,0,1.4748282432556152,0,0,0.9172800183296204
0.033250601,0,0,1.53707754611969,0,0,0.9937199950218201
0.034232539,0,0,1.4413094520568848,0,0,0.7644000053405762
0.035232309,0,0,1.5155296325683594,0,0,1.070159912109375
0.036231599,0,0,1.4460978507995605,0,0,0.6879600286483765
0.037232277,0,0,1.556231141090393,0,0,0.9172800183296204
0.038231862,0,0,1.601720929145813,0,0,0.8408399820327759
0.039231059,0,0,1.6112977266311646,0,0,0.8408399820327759
0.04023146,0,0,1.625662922859192,0,0,0.8408399820327759
0.041231897,0,0,1.599326729774475,0,0,0.9172800183296204
0.04223152,0,0,1.460463047027588,0,0,0.9172800183296204
0.043231827,0,0,1.381454348564148,0,0,0.8408399820327759
0.044231191,0,0,1.4245500564575195,0,0,0.9937199950218201
0.045242425,0,0,1.4245500564575195,0,0,0.9172800183296204
0.046257454,0,0,1.455674648284912,0,0,0.8408399820327759
0.047235411,0,0,1.5729905366897583,0,0,0.9172800183296204
0.048234774,0,0,1.6496049165725708,0,0,0.6879600286483765
0.049232897,0,0,1.6304513216018677,0,0,0.6879600286483765
0.050232556,0,0,1.580173134803772,0,0,1.070159912109375
0.051231179,0,0,1.5322890281677246,0,0,0.6879600286483765
0.052232468,0,0,1.5107412338256836,0,0,0.7644000053405762
0.053234961,0,0,1.534683346748352,0,0,0.7644000053405762
0.054234213,0,0,1.4676456451416016,0,0,1.070159912109375
0.055234058,0,0,1.4724340438842773,0,0,0.8408399820327759
0.056233662,0,0,1.4053963422775269,0,0,0.9937199950218201
0.057232007,0,0,1.4460978507995605,0,0,0.8408399820327759
0.058231019,0,0,1.45806884765625,0,0,0.9172800183296204
0.059230993,0,0,1.534683346748352,0,0,0.7644000053405762
0.060230894,0,0,1.5729905366897583,0,0,1.2994799613952637
0.061235183,0,0,1.656787633895874,0,0,0.6879600286483765
0.062282731,0,0,1.6519991159439087,0,0,0.9937199950218201
0.06323941,0,0,1.5729905366897583,0,0,0.7644000053405762
0.064350606,0,0,1.5298948287963867,0,0,0.611519992351532
0.065298599,0,0,1.50355863571167,0,0,0.9172800183296204
0.066238167,0,0,1.482010841369629,0,0,0.7644000053405762
0.067278437,0,0,1.5083470344543457,0,0,0.8408399820327759
0.068233208,0,0,1.3910311460494995,0,0,0.9937199950218201
0.069235368,0,0,1.4939818382263184,0,0,0.7644000053405762
0.070239768,0,0,1.5418659448623657,0,0,0.8408399820327759
0.071234409,0,0,1.6184803247451782,0,0,0.6879600286483765
0.072233514,0,0,1.601720929145813,0,0,0.7644000053405762
0.073233655,0,0,1.5538369417190552,0,0,0.5350799560546875
0.074233444,0,0,1.644816517829895,0,0,0.6879600286483765
0.075232715,0,0,1.5418659448623657,0,0,1.070159912109375
0.076233356,0,0,1.50355863571167,0,0,0.611519992351532
0.07723496,0,0,1.436521053314209,0,0,0.9172800183296204
0.078232916,0,0,1.5298948287963867,0,0,0.7644000053405762
0.079233298,0,0,1.5275006294250488,0,0,0.7644000053405762
0.080233513,0,0,1.460463047027588,0,0,1.070159912109375
0.081234525,0,0,1.5179238319396973,0,0,0.7644000053405762
0.082233221,0,0,1.5514427423477173,0,0,0.7644000053405762
0.083233474,0,0,1.6352397203445435,0,0,0.9937199950218201
0.084233263,0,0,1.5538369417190552,0,0,0.5350799560546875
0.085234367,0,0,1.4460978507995605,0,0,0.6879600286483765
0.086233267,0,0,1.5107412338256836,0,0,1.1466000080108643
0.087233372,0,0,1.3670891523361206,0,0,0.9937199950218201
0.088233402,0,0,1.4317326545715332,0,0,0.9172800183296204
0.089235321,0,0,1.5131354331970215,0,0,0.611519992351532
0.090233499,0,0,1.4389152526855469,0,0,0.8408399820327759
0.091233399,0,0,1.3718775510787964,0,0,0.9172800183296204
0.092233392,0,0,1.4628572463989258,0,0,0.5350799560546875
0.093234348,0,0,1.5418659448623657,0,0,0.6879600286483765
0.094233286,0,0,1.6304513216018677,0,0,1.070159912109375
0.095233297,0,0,1.6089035272598267,0,0,0.8408399820327759
0.096232994,0,0,1.5897499322891235,0,0,0.9937199950218201
0.097234413,0,0,1.50355863571167,0,0,1.1466000080108643
0.098233276,0,0,1.3838485479354858,0,0,0.8408399820327759
0.099233158,0,0,1.4317326545715332,0,0,0.7644000053405762
0.100232892,0,0,1.4173674583435059,0,0,1.223039984703064
0.101233829,0,0,1.414973258972168,0,0,0.9172800183296204
0.10223273,0,0,1.3551181554794312,0,0,0.8408399820327759
0.103232926,0,0,1.4676456451416016,0,0,0.9172800183296204
0.104246271,0,0,1.625662922859192,0,0,0.8408399820327759
0.105236746,0,0,1.5969325304031372,0,0,0.8408399820327759
0.106233887,0,0,1.5753847360610962,0,0,0.611519992351532
0.107233695,0,0,1.5682021379470825,0,0,1.070159912109375
0.108233243,0,0,1.599326729774475,0,0,0.9172800183296204
0.10923457,0,0,1.50355863571167,0,0,0.8408399820327759
0.110233192,0,0,1.4101848602294922,0,0,0.9937199950218201
0.111233389,0,0,1.4197616577148438,0,0,0.8408399820327759
0.112233178,0,0,1.4221558570861816,0,0,0.7644000053405762
0.113234245,0,0,1.479616641998291,0,0,0.9172800183296204
0.114233386,0,0,1.4939818382263184,0,0,0.6879600286483765
0.115233194,0,0,1.5179238319396973,0,0,0.6879600286483765
0.116233224,0,0,1.525106430053711,0,0,0.9172800183296204
0.117242125,0,0,1.580173134803772,0,0,0.7644000053405762
0.118234395,0,0,1.5753847360610962,0,0,0.7644000053405762
0.119234129,0,0,1.6424223184585571,0,0,0.9937199950218201
0.120234122,0,0,1.4915876388549805,0,0,0.9172800183296204
0.121234374,0,0,1.381454348564148,0,0,0.7644000053405762
0.12223346,0,0,1.4245500564575195,0,0,1.070159912109375
0.123233805,0,0,1.4245500564575195,0,0,0.9937199950218201
0.124233705,0,0,1.4053963422775269,0,0,0.611519992351532
0.125233328,0,0,1.3718775510787964,0,0,0.8408399820327759
0.126230821,0,0,1.5083470344543457,0,0,0.9172800183296204
0.127230833,0,0,1.5298948287963867,0,0,0.9172800183296204
0.128230992,0,0,1.4867992401123047,0,0,0.8408399820327759
0.13268672,0,0,1.4867992401123047,0,0,0.8408399820327759
0.132862941,0,0,1.4867992401123047,0,0,0.8408399820327759
0.133036773,0,0,1.4772224426269531,0,0,1.375920057296753
0.133209457,0,0,1.4772224426269531,0,0,1.375920057296753
0.13338266,0,0,1.5634137392044067,0,0,0.9172800183296204
0.134245043,0,0,1.4101848602294922,0,0,0.9172800183296204
0.135236573,0,0,1.4389152526855469,0,0,0.8408399820327759
0.136265436,0,0,1.4652514457702637,0,0,0.9937199950218201
0.137277207,0,0,1.4724340438842773,0,0,0.7644000053405762
0.13824507,0,0,1.4963760375976563,0,0,0.7644000053405762
0.139240656,0,0,1.5155296325683594,0,0,0.9937199950218201
0.140236186,0,0,1.522712230682373,0,0,0.611519992351532
0.141236883,0,0,1.5275006294250488,0,0,1.070159912109375
0.142235894,0,0,1.5682021379470825,0,0,1.070159912109375
0.143235332,0,0,1.3958195447921753,0,0,0.8408399820327759
0.144238047,0,0,1.434126853942871,0,0,0.6879600286483765
0.145238466,0,0,1.525106430053711,0,0,0.8408399820327759
0.146237718,0,0,1.434126853942871,0,0,1.223039984703064
0.147236767,0,0,1.4676456451416016,0,0,0.9937199950218201
0.148236741,0,0,1.460463047027588,0,0,0.7644000053405762
0.149237864,0,0,1.534683346748352,0,0,0.6879600286483765
0.150235412,0,0,1.5466543436050415,0,0,0.6879600286483765
0.151235831,0,0,1.5873557329177856,0,0,0.7644000053405762
0.152236269,0,0,1.556231141090393,0,0,0.6879600286483765
0.153237299,0,0,1.5179238319396973,0,0,0.5350799560546875
0.154236681,0,0,1.3958195447921753,0,0,0.7644000053405762
0.155235581,0,0,1.3886369466781616,0,0,0.9937199950218201
0.156236093,0,0,1.4867992401123047,0,0,0.9172800183296204
0.157236512,0,0,1.3934253454208374,0,0,0.7644000053405762
0.158236597,0,0,1.3742717504501343,0,0,0.6879600286483765
0.159236053,0,0,1.4652514457702637,0,0,0.9937199950218201
0.160235842,0,0,1.525106430053711,0,0,0.5350799560546875
0.161237372,0,0,1.601720929145813,0,0,0.8408399820327759
0.162236717,0,0,1.4915876388549805,0,0,0.6879600286483765
0.163236321,0,0,1.5179238319396973,0,0,1.1466000080108643
0.164235388,0,0,1.599326729774475,0,0,0.7644000053405762
0.165236863,0,0,1.4772224426269531,0,0,0.6879600286483765
0.166236189,0,0,1.4508862495422363,0,0,0.7644000053405762
0.167237034,0,0,1.403002142906189,0,0,0.9937199950218201
0.168252731,0,0,1.3742717504501343,0,0,0.9172800183296204
0.169308279,0,0,1.4652514457702637,0,0,0.8408399820327759
0.170515456,0,0,1.4772224426269531,0,0,0.7644000053405762
0.171341283,0,0,1.5682021379470825,0,0,0.611519992351532
0.172409109,0,0,1.625662922859192,0,0,0.9172800183296204
0.173327603,0,0,1.644816517829895,0,0,0.611519992351532
0.174347559,0,0,1.6089035272598267,0,0,0.6879600286483765
0.175326404,0,0,1.5873557329177856,0,0,1.1466000080108643
0.1763146,0,0,1.50355863571167,0,0,0.6879600286483765
0.177270334,0,0,1.4437036514282227,0,0,0.7644000053405762
0.178266994,0,0,1.479616641998291,0,0,0.9172800183296204
0.179260246,0,0,1.455674648284912,0,0,0.5350799560546875
0.18024411,0,0,1.4173674583435059,0,0,0.9172800183296204
0.181317158,0,0,1.4652514457702637,0,0,0.9937199950218201
0.182254781,0,0,1.6184803247451782,0,0,0.9172800183296204
0.183257589,0,0,1.50355863571167,0,0,0.6879600286483765
0.184267785,0,0,1.534683346748352,0,0,0.8408399820327759
0.18527663,0,0,1.580173134803772,0,0,0.4586400091648102
0.186235586,0,0,1.5418659448623657,0,0,0.9172800183296204
0.187232746,0,0,1.6328455209732056,0,0,0.611519992351532
0.188232332,0,0,1.4317326545715332,0,0,0.6879600286483765
0.189234195,0,0,1.3886369466781616,0,0,0.8408399820327759
0.19023241,0,0,1.3910311460494995,0,0,0.6879600286483765
0.191232329,0,0,1.403002142906189,0,0,0.8408399820327759
0.192232063,0,0,1.4676456451416016,0,0,0.9172800183296204
0.1932335,0,0,1.5275006294250488,0,0,1.1466000080108643
0.19423229,0,0,1.5514427423477173,0,0,0.8408399820327759
0.195238524,0,0,1.647210717201233,0,0,0.7644000053405762
0.196232183,0,0,1.556231141090393,0,0,0.9172800183296204
0.197239417,0,0,1.4532804489135742,0,0,0.9172800183296204
0.198235558,0,0,1.4939818382263184,0,0,0.8408399820327759
0.199235088,0,0,1.4269442558288574,0,0,0.6879600286483765
0.200235026,0,0,1.4628572463989258,0,0,0.8408399820327759
0.20123513,0,0,1.4987702369689941,0,0,0.9937199950218201
0.20223516,0,0,1.4437036514282227,0,0,0.9172800183296204
0.203234819,0,0,1.4293384552001953,0,0,0.9172800183296204
0.204234498,0,0,1.4963760375976563,0,0,0.5350799560546875
0.205234842,0,0,1.6089035272598267,0,0,0.6879600286483765
0.206235298,0,0,1.6112977266311646,0,0,0.8408399820327759
0.207235162,0,0,1.6208745241165161,0,0,0.9172800183296204
0.208235099,0,0,1.6041151285171509,0,0,0.6879600286483765
0.209235518,0,0,1.4891934394836426,0,0,0.9172800183296204
0.210235122,0,0,1.434126853942871,0,0,0.7644000053405762
0.211251356,0,0,1.3551181554794312,0,0,0.9937199950218201
0.212235645,0,0,1.4389152526855469,0,0,0.9172800183296204
0.213233638,0,0,1.479616641998291,0,0,0.6879600286483765
0.21423228,0,0,1.4437036514282227,0,0,1.070159912109375
0.215232032,0,0,1.5107412338256836,0,0,0.5350799560546875
0.216232191,0,0,1.556231141090393,0,0,0.9937199950218201
0.217236777,0,0,1.5322890281677246,0,0,1.070159912109375
0.218234789,0,0,1.5155296325683594,0,0,0.6879600286483765
0.219234948,0,0,1.460463047027588,0,0,0.8408399820327759
0.220234904,0,0,1.4772224426269531,0,0,0.8408399820327759
0.221236731,0,0,1.403002142906189,0,0,0.6879600286483765
0.222234594,0,0,1.4676456451416016,0,0,0.6879600286483765
0.22323492,0,0,1.4221558570861816,0,0,0.9172800183296204
0.224235154,0,0,1.3718775510787964,0,0,0.8408399820327759
0.225236166,0,0,1.4389152526855469,0,0,0.9172800183296204
0.226234751,0,0,1.5203180313110352,0,0,0.7644000053405762
0.227234892,0,0,1.625662922859192,0,0,0.4586400091648102
0.22823507,0,0,1.5729905366897583,0,0,0.9937199950218201
0.229235897,0,0,1.522712230682373,0,0,0.611519992351532
0.230235019,0,0,1.501164436340332,0,0,0.7644000053405762
0.231235031,0,0,1.5682021379470825,0,0,0.8408399820327759
0.23223495,0,0,1.4484920501708984,0,0,0.8408399820327759
0.233235906,0,0,1.4173674583435059,0,0,0.9172800183296204
0.234234936,0,0,1.4460978507995605,0,0,0.8408399820327759
0.235234836,0,0,1.45806884765625,0,0,0.4586400091648102
0.23623507,0,0,1.5275006294250488,0,0,0.7644000053405762
0.237235933,0,0,1.5298948287963867,0,0,0.7644000053405762
0.238235019,0,0,1.50355863571167,0,0,0.9937199950218201
0.23923479,0,0,1.5825673341751099,0,0,0.9937199950218201
0.240235024,0,0,1.5514427423477173,0,0,0.6879600286483765
0.241236165,0,0,1.5155296325683594,0,0,0.6879600286483765
0.242234806,0,0,1.5179238319396973,0,0,0.9172800183296204
0.243234854,0,0,1.4628572463989258,0,0,0.6879600286483765
0.244234699,0,0,1.4389152526855469,0,0,1.070159912109375
0.245236452,0,0,1.4987702369689941,0,0,0.9172800183296204
0.246235685,0,0,1.3982137441635132,0,0,0.9937199950218201
0.247234475,0,0,1.4437036514282227,0,0,0.7644000053405762
0.248234542,0,0,1.4748282432556152,0,0,1.070159912109375
0.249235424,0,0,1.5849615335464478,0,0,0.7644000053405762
0.250234935,0,0,1.5849615335464478,0,0,0.7644000053405762
0.251234965,0,0,1.5849615335464478,0,0,1.070159912109375
0.252234958,0,0,1.5921441316604614,0,0,0.4586400091648102
0.253234803,0,0,1.53707754611969,0,0,0.9172800183296204
0.254234926,0,0,1.5155296325683594,0,0,0.9172800183296204
0.255234919,0,0,1.5059528350830078,0,0,0.8408399820327759
0.256234819,0,0,1.436521053314209,0,0,0.9172800183296204
0.257257793,0,0,1.5083470344543457,0,0,0.7644000053405762
0.258238083,0,0,1.4676456451416016,0,0,0.9172800183296204
0.25923552,0,0,1.4963760375976563,0,0,0.7644000053405762
0.260237699,0,0,1.4915876388549805,0,0,0.7644000053405762
0.26123471,0,0,1.5514427423477173,0,0,0.6879600286483765
0.262234814,0,0,1.4413094520568848,0,0,0.5350799560546875
0.263235029,0,0,1.455674648284912,0,0,0.9937199950218201
0.264235393,0,0,1.237802267074585,0,0,0.611519992351532
0.265236367,0,0,1.2617442607879639,0,0,0.6879600286483765
0.266235101,0,0,1.4891934394836426,0,0,0.6879600286483765
0.267234872,0,0,1.7621324062347412,0,0,0.8408399820327759
0.268234828,0,0,1.7741034030914307,0,0,0.5350799560546875
0.269235487,0,0,1.0007762908935547,0,0,0.6879600286483765
0.270235147,0,0,0.05746084079146385,0,0,-0.152879998087883
0.27123501,0,0,0.629675030708313,0,0,0
0.272235041,0,0,1.1994950771331787,0,0,0.152879998087883
0.273235571,0,0,1.6041151285171509,0,0,0.2293200045824051
0.274235101,0,0,1.381454348564148,0,0,0.5350799560546875
0.275246408,0,0,1.2449848651885986,0,0,0.7644000053405762
0.276235105,0,0,1.1851298809051514,0,0,1.452359914779663
0.277236154,0,0,0.8954314589500427,0,0,0.4586400091648102
0.278234813,0,0,1.0462661981582642,0,0,0.9172800183296204
0.279234955,0,0,1.1109095811843872,0,0,1.070159912109375
0.280235096,0,0,1.3311761617660522,0,0,0.152879998087883
0.281235515,0,0,1.766920804977417,0,0,1.375920057296753
0.282235008,0,0,1.7094600200653076,0,0,0.9172800183296204
0.28323876,0,0,1.7693150043487549,0,0,1.070159912109375
0.284235142,0,0,1.5275006294250488,0,0,1.223039984703064
0.285236172,0,0,1.4077905416488647,0,0,0.5350799560546875
0.28623498,0,0,1.5107412338256836,0,0,0.5350799560546875
0.287234695,0,0,1.3886369466781616,0,0,0.611519992351532
0.288235058,0,0,1.4891934394836426,0,0,0.152879998087883
0.289235922,0,0,1.280897855758667,0,0,0.4586400091648102
0.290234711,0,0,1.213860273361206,0,0,0.3822000026702881
0.291234389,0,0,1.237802267074585,0,0,0.611519992351532
0.292235086,0,0,0.950498104095459,0,0,0.3822000026702881
0.293235708,0,0,0.933738648891449,0,0,0.5350799560546875
0.294234942,0,0,0.9840168952941895,0,0,0.152879998087883
0.295234898,0,0,1.213860273361206,0,0,0.3822000026702881
0.296234928,0,0,1.359906554222107,0,0,0.611519992351532
0.297234921,0,0,1.256955862045288,0,0,0.0764399990439415
0.298234748,0,0,1.3000515699386597,0,0,0.611519992351532
0.299234815,0,0,1.2521674633026123,0,0,0.6879600286483765
0.300234882,0,0,1.2473790645599365,0,0,0.611519992351532
0.301236078,0,0,1.213860273361206,0,0,0.9172800183296204
0.302235034,0,0,1.359906554222107,0,0,0.611519992351532
0.303234935,0,0,1.3527239561080933,0,0,0.7644000053405762
0.304234817,0,0,1.2952631711959839,0,0,1.070159912109375
0.305235902,0,0,1.3694833517074585,0,0,0.5350799560546875
0.306234969,0,0,1.4317326545715332,0,0,0.6879600286483765
0.307234944,0,0,1.4844050407409668,0,0,0.6879600286483765
0.308234937,0,0,1.5538369417190552,0,0,0.7644000053405762
0.309235634,0,0,1.5298948287963867,0,0,0.8408399820327759
0.310234701,0,0,1.455674648284912,0,0,0.4586400091648102
0.311235046,0,0,1.3694833517074585,0,0,0.6879600286483765
0.312234353,0,0,1.2497732639312744,0,0,0.5350799560546875
0.313236754,0,0,1.194706678390503,0,0,0.4586400091648102
0.314234636,0,0,1.1659762859344482,0,0,0.611519992351532
0.315234814,0,0,1.1468225717544556,0,0,0.4586400091648102
0.316234992,0,0,1.1204863786697388,0,0,0.4586400091648102
0.317235689,0,0,1.1971008777618408,0,0,0.2293200045824051
0.318234867,0,0,1.1827356815338135,0,0,0.3822000026702881
0.319234915,0,0,1.1755530834197998,0,0,0.305759996175766
0.32023489,0,0,1.1563993692398071,0,0,0.611519992351532
0.321236105,0,0,1.1899182796478271,0,0,0.9172800183296204
0.32223508,0,0,1.314416766166687,0,0,0.5350799560546875
0.323234887,0,0,1.4077905416488647,0,0,0.9937199950218201
0.324235121,0,0,1.403002142906189,0,0,0.9937199950218201
0.325235892,0,0,1.455674648284912,0,0,0.6879600286483765
0.326234885,0,0,1.601720929145813,0,0,1.1466000080108643
0.327234804,0,0,1.5729905366897583,0,0,1.1466000080108643
0.328235038,0,0,1.5298948287963867,0,0,0.8408399820327759
0.329235753,0,0,1.414973258972168,0,0,0.8408399820327759
0.330234579,0,0,1.4700398445129395,0,0,0.2293200045824051
0.331234943,0,0,1.292868971824646,0,0,0.0764399990439415
0.332234769,0,0,1.335964560508728,0,0,0.305759996175766
0.333235855,0,0,1.3479355573654175,0,0,0
0.334234366,0,0,1.0534487962722778,0,0,0.3822000026702881
0.335234896,0,0,0.8858546018600464,0,0,0.305759996175766
0.336234871,0,0,0.9265560507774353,0,0,0.305759996175766
0.337235956,0,0,0.9002198576927185,0,0,0.152879998087883
0.338234931,0,0,0.9911994934082031,0,0,0.611519992351532
0.33923485,0,0,1.2090718746185303,0,0,0.6879600286483765
0.340235102,0,0,1.3455413579940796,0,0,0.8408399820327759
0.341235965,0,0,1.460463047027588,0,0,1.070159912109375
0.342234995,0,0,1.522712230682373,0,0,0.7644000053405762
0.343234803,0,0,1.5658079385757446,0,0,0.9172800183296204
0.344234833,0,0,1.4221558570861816,0,0,0.3822000026702881
0.345235937,0,0,1.192312479019165,0,0,0.3822000026702881
0.346234875,0,0,1.216254472732544,0,0,0.5350799560546875
0.347235053,0,0,1.3431471586227417,0,0,0.152879998087883
0.348234935,0,0,1.3934253454208374,0,0,0.5350799560546875
0.349235835,0,0,1.3742717504501343,0,0,0.7644000053405762
0.35023481,0,0,1.4077905416488647,0,0,0.6879600286483765
0.351235136,0,0,1.292868971824646,0,0,0.7644000053405762
0.352234555,0,0,1.2880805730819702,0,0,0.7644000053405762
0.353236215,0,0,1.3838485479354858,0,0,0.6879600286483765
0.354235097,0,0,1.3670891523361206,0,0,0.9172800183296204
0.355234478,0,0,1.3838485479354858,0,0,0.5350799560546875
0.356234509,0,0,1.3287819623947144,0,0,0.305759996175766
0.357235946,0,0,1.3096283674240112,0,0,0.5350799560546875
0.358234846,0,0,1.3886369466781616,0,0,0.5350799560546875
0.359234839,0,0,1.4317326545715332,0,0,0.7644000053405762
0.360234814,0,0,1.4317326545715332,0,0,0.7644000053405762
0.36123564,0,0,1.4891934394836426,0,0,1.1466000080108643
0.362234967,0,0,1.4221558570861816,0,0,1.070159912109375
0.363234997,0,0,1.3263877630233765,0,0,1.223039984703064
0.364234897,0,0,1.256955862045288,0,0,0.6879600286483765
0.365235816,0,0,1.1420341730117798,0,0,0.4586400091648102
0.366234865,0,0,1.1659762859344482,0,0,0.2293200045824051
0.36723495,0,0,1.2473790645599365,0,0,0
0.368235054,0,0,1.3982137441635132,0,0,0.305759996175766
0.369236029,0,0,1.625662922859192,0,0,0.611519992351532
0.370234911,0,0,1.742978811264038,0,0,1.070159912109375
0.371247144,0,0,1.5969325304031372,0,0,1.070159912109375
0.372235952,0,0,1.2617442607879639,0,0,1.070159912109375
0.373235704,0,0,0.9720458984375,0,0,0.8408399820327759
0.374236197,0,0,0.8619126081466675,0,0,0.5350799560546875
0.375234765,0,0,0.8092401623725891,0,0,0
0.376235109,0,0,0.912190854549408,0,0,-0.152879998087883
0.377233917,0,0,1.280897855758667,0,0,0.305759996175766
0.378232336,0,0,1.6543933153152466,0,0,0
0.379231959,0,0,1.6136919260025024,0,0,1.1466000080108643
0.380232193,0,0,1.5969325304031372,0,0,1.070159912109375
0.381237204,0,0,1.1755530834197998,0,0,1.2994799613952637
0.382235123,0,0,0.6536170840263367,0,0,0.3822000026702881
0.383235153,0,0,0.49320554733276367,0,0,0.3822000026702881
0.384235109,0,0,0.5770025849342346,0,0,0.2293200045824051
0.385233806,0,0,1.070208191871643,0,0,0
0.386232391,0,0,1.6663644313812256,0,0,0.305759996175766
0.387231884,0,0,2.032677173614502,0,0,0.9937199950218201
0.388232396,0,0,2.1811177730560303,0,0,1.452359914779663
0.389232759,0,0,1.9345149993896484,0,0,1.375920057296753
0.390232178,0,0,1.4269442558288574,0,0,1.758120059967041
0.391232171,0,0,0.9433154463768005,0,0,1.223039984703064
0.392232127,0,0,0.6871358752250671,0,0,0.3822000026702881
0.393235139,0,0,1.091755986213684,0,0,0.4586400091648102
0.394234595,0,0,1.6927006244659424,0,0,0
0.395234088,0,0,1.965639591217041,0,0,0.611519992351532
0.396234432,0,0,1.9177556037902832,0,0,0.9937199950218201
0.397235037,0,0,1.5969325304031372,0,0,0.3822000026702881
0.398234567,0,0,1.072602391242981,0,0,0.5350799560546875
0.399234263,0,0,0.730231523513794,0,0,0.611519992351532
0.400235756,0,0,0.8643068075180054,0,0,0.2293200045824051
0.401234823,0,0,1.158793568611145,0,0,0.3822000026702881
0.40223552,0,0,1.577778935432434,0,0,0.6879600286483765
0.403235717,0,0,1.7741034030914307,0,0,0.6879600286483765
0.404234339,0,0,1.534683346748352,0,0,1.070159912109375
0.405236073,0,0,1.292868971824646,0,0,1.452359914779663
0.406234363,0,0,0.8834604024887085,0,0,0.8408399820327759
0.407234578,0,0,0.8619126081466675,0,0,0.4586400091648102
0.408234293,0,0,1.2665326595306396,0,0,0.5350799560546875
0.409235638,0,0,1.6304513216018677,0,0,0.0764399990439415
0.410234668,0,0,1.656787633895874,0,0,0.5350799560546875
0.411234402,0,0,1.4197616577148438,0,0,0.8408399820327759
0.412234506,0,0,0.8786720037460327,0,0,0.2293200045824051
0.413235554,0,0,0.646434485912323,0,0,0.152879998087883
0.414234473,0,0,0.7805097699165344,0,0,0
0.415234429,0,0,0.8834604024887085,0,0,0.3822000026702881
0.416234515,0,0,1.2832920551300049,0,0,0.611519992351532
0.417234749,0,0,1.4484920501708984,0,0,0.8408399820327759
0.418234501,0,0,1.4317326545715332,0,0,1.070159912109375
0.419234512,0,0,1.53707754611969,0,0,1.070159912109375
0.42023395,0,0,1.7812861204147339,0,0,0.9937199950218201
0.421235517,0,0,1.9847931861877441,0,0,1.452359914779663
0.423375206,0,0,1.6855180263519287,0,0,1.223039984703064
0.423557667,0,0,1.6855180263519287,0,0,0.9172800183296204
0.424239514,0,0,1.580173134803772,0,0,0.8408399820327759
0.425239952,0,0,1.1563993692398071,0,0,0.7644000053405762
0.426234463,0,0,1.0797849893569946,0,0,0
0.427234438,0,0,1.6136919260025024,0,0,0.5350799560546875
0.428234412,0,0,1.6065093278884888,0,0,0.5350799560546875
0.42923572,0,0,1.4173674583435059,0,0,0.152879998087883
0.430234472,0,0,1.1348515748977661,0,0,0.9172800183296204
0.43123454,0,0,0.730231523513794,0,0,0
0.43223457,0,0,0.629675030708313,0,0,0
0.433236229,0,0,0.9050082564353943,0,0,0.152879998087883
0.4342345,0,0,1.2066776752471924,0,0,0
0.435252585,0,0,1.1061211824417114,0,0,0.0764399990439415
0.436235208,0,0,0.9528923034667969,0,0,0.5350799560546875
0.437234738,0,0,0.8595184087753296,0,0,0.6879600286483765
0.438234157,0,0,1.0462661981582642,0,0,0.4586400091648102
0.439234502,0,0,1.1492167711257935,0,0,0.9172800183296204
0.440234495,0,0,1.5921441316604614,0,0,0.611519992351532
0.441235581,0,0,1.577778935432434,0,0,1.375920057296753
0.442234685,0,0,1.5466543436050415,0,0,0.8408399820327759
0.443234659,0,0,1.886630892753601,0,0,1.070159912109375
0.444234393,0,0,1.965639591217041,0,0,1.9109998941421509
0.445235849,0,0,1.8626888990402222,0,0,0.9172800183296204
0.446237138,0,0,1.5658079385757446,0,0,1.1466000080108643
0.447234483,0,0,1.0630255937576294,0,0,1.375920057296753
0.448234476,0,0,1.139639973640442,0,0,0
0.449235377,0,0,1.4077905416488647,0,0,0
0.450234129,0,0,1.5610195398330688,0,0,0.7644000053405762
0.451234289,0,0,1.577778935432434,0,0,0.0764399990439415
0.452234448,0,0,1.1468225717544556,0,0,0.305759996175766
0.453234941,0,0,0.7757213711738586,0,0,0.5350799560546875
0.45423586,0,0,0.8307880163192749,0,0,-0.2293200045824051
0.455234835,0,0,0.7469909191131592,0,0,0
0.45623492,0,0,0.950498104095459,0,0,0.2293200045824051
0.457235061,0,0,0.7038952708244324,0,0,-0.152879998087883
0.458234499,0,0,0.6344634294509888,0,0,0
0.459234603,0,0,1.1300631761550903,0,0,0.611519992351532
0.460234003,0,0,1.3886369466781616,0,0,0.4586400091648102
0.461234719,0,0,1.7381904125213623,0,0,1.5288000106811523
0.462234323,0,0,1.4652514457702637,0,0,1.6816799640655518
0.463234131,0,0,1.479616641998291,0,0,0.8408399820327759
0.464234198,0,0,1.9943699836730957,0,0,1.8345600366592407
0.465235117,0,0,1.9560627937316895,0,0,1.1466000080108643
0.466234424,0,0,2.078166961669922,0,0,1.223039984703064
0.467234362,0,0,1.5897499322891235,0,0,1.5288000106811523
0.468234244,0,0,1.3431471586227417,0,0,0
0.469234663,0,0,1.623268723487854,0,0,0.3822000026702881
0.470246822,0,0,1.5658079385757446,0,0,0.4586400091648102
0.471241704,0,0,1.6615760326385498,0,0,0.4586400091648102
0.472234493,0,0,1.1109095811843872,0,0,0.5350799560546875
0.473235357,0,0,0.8786720037460327,0,0,0
0.474234257,0,0,1.1492167711257935,0,0,0.305759996175766
0.475236269,0,0,0.6560112833976746,0,0,0
0.47623591,0,0,0.6200982332229614,0,0,-0.305759996175766
0.477234681,0,0,0.4381389021873474,0,0,0
0.47823447,0,0,0.5674257874488831,0,0,0
0.479234407,0,0,1.280897855758667,0,0,0.0764399990439415
0.480234512,0,0,1.7621324062347412,0,0,0.9172800183296204
0.481234671,0,0,1.7860745191574097,0,0,1.5288000106811523
0.482234498,0,0,1.7908629179000854,0,0,1.605239987373352
0.483236509,0,0,1.4317326545715332,0,0,1.9109998941421509
0.484234613,0,0,1.3096283674240112,0,0,1.070159912109375
0.485234069,0,0,1.3000515699386597,0,0,1.375920057296753
0.486234544,0,0,1.3072341680526733,0,0,0.4586400091648102
0.4872345,0,0,2.0159177780151367,0,0,0.611519992351532
0.488234326,0,0,2.118868589401245,0,0,0.305759996175766
0.489235615,0,0,2.070984363555908,0,0,0.4586400091648102
0.490234331,0,0,1.5131354331970215,0,0,0.9172800183296204
0.491234342,0,0,0.8738836050033569,0,0,0.152879998087883
0.492234372,0,0,0.811634361743927,0,0,0.7644000053405762
0.493235717,0,0,0.45010992884635925,0,0,0.4586400091648102
0.494234303,0,0,0.16998831927776337,0,0,-0.4586400091648102
0.495238221,0,0,0.4213795065879822,0,0,0
0.496234511,0,0,0.7661445140838623,0,0,-0.5350799560546875
0.497234541,0,0,1.6160861253738403,0,0,0.4586400091648102
0.498234349,0,0,1.6855180263519287,0,0,1.070159912109375
0.499246897,0,0,1.7932571172714233,0,0,0.8408399820327759
0.500236335,0,0,1.5945383310317993,0,0,2.2932000160217285
0.50123568,0,0,1.2186486721038818,0,0,1.1466000080108643
0.502234376,0,0,1.113303780555725,0,0,1.375920057296753
0.503234203,0,0,0.950498104095459,0,0,0.9172800183296204
0.504234436,0,0,1.525106430053711,0,0,0.2293200045824051
0.505235318,0,0,1.9369091987609863,0,0,0.8408399820327759
0.506234126,0,0,1.8483237028121948,0,0,0.6879600286483765
0.507234063,0,0,1.886630892753601,0,0,0.611519992351532
0.508234297,0,0,1.4437036514282227,0,0,0.611519992351532
0.509235272,0,0,1.0558429956436157,0,0,0.2293200045824051
0.510234543,0,0,0.31364041566848755,0,0,-0.152879998087883
0.511234443,0,0,0.16998831927776337,0,0,-0.2293200045824051
0.512234714,0,0,0.6368576288223267,0,0,0
0.513264836,0,0,1.2832920551300049,0,0,0
0.514236385,0,0,1.5107412338256836,0,0,0.611519992351532
0.515234526,0,0,1.8195933103561401,0,0,1.2994799613952637
0.516234334,0,0,1.580173134803772,0,0,1.452359914779663
0.517236179,0,0,1.3215993642807007,0,0,1.6816799640655518
0.518234357,0,0,0.7972691655158997,0,0,1.5288000106811523
0.519234591,0,0,1.070208191871643,0,0,0.305759996175766
0.520234232,0,0,1.6328455209732056,0,0,0.9172800183296204
0.521235336,0,0,1.9919757843017578,0,0,0.2293200045824051
0.522234496,0,0,2.140416383743286,0,0,0.4586400091648102
0.52323434,0,0,2.169146776199341,0,0,0.5350799560546875
0.524234408,0,0,1.4915876388549805,0,0,0.8408399820327759
0.525235401,0,0,0.706289529800415,0,0,0.3822000026702881
0.526234338,0,0,0.2106897532939911,0,0,0.4586400091648102
0.527234127,0,0,0.2561795711517334,0,0,-0.305759996175766
0.528234139,0,0,0.7972691655158997,0,0,0.0764399990439415
0.529235428,0,0,1.0678139925003052,0,0,0.305759996175766
0.530234569,0,0,1.7310078144073486,0,0,0
0.531234266,0,0,1.9919757843017578,0,0,1.452359914779663
0.532234481,0,0,1.4389152526855469,0,0,1.452359914779663
0.5332349,0,0,1.113303780555725,0,0,1.223039984703064
0.534233838,0,0,1.1037269830703735,0,0,1.223039984703064
0.535234034,0,0,1.3311761617660522,0,0,0.5350799560546875
0.536234138,0,0,1.5682021379470825,0,0,0.611519992351532
0.537312316,0,0,1.6831238269805908,0,0,0.305759996175766
0.538308717,0,0,1.8794482946395874,0,0,0.8408399820327759
0.540326221,0,0,1.4748282432556152,0,0,0.9172800183296204
0.540549534,0,0,0.6655880808830261,0,0,0.6879600286483765
0.541239122,0,0,0.5099649429321289,0,0,0.2293200045824051
0.542235541,0,0,0.8212111592292786,0,0,-0.152879998087883
0.543235256,0,0,1.4987702369689941,0,0,0.4586400091648102
0.544235879,0,0,1.900996208190918,0,0,0.3822000026702881
0.545234983,0,0,2.1499931812286377,0,0,1.070159912109375
0.546234754,0,0,1.5705963373184204,0,0,1.8345600366592407
0.547235099,0,0,0.9481038451194763,0,0,1.070159912109375
0.548235832,0,0,0.9409212470054626,0,0,0.9172800183296204
0.549236307,0,0,1.335964560508728,0,0,0.4586400091648102
0.550234948,0,0,1.6065093278884888,0,0,0.6879600286483765
0.551235367,0,0,1.525106430053711,0,0,0.305759996175766
0.552235212,0,0,1.6136919260025024,0,0,0.152879998087883
0.553235279,0,0,1.278503656387329,0,0,0.6879600286483765
0.554235198,0,0,0.933738648891449,0,0,0.5350799560546875
0.555234968,0,0,0.9433154463768005,0,0,0.5350799560546875
0.556235202,0,0,0.9744400978088379,0,0,0.8408399820327759
0.557235492,0,0,0.8834604024887085,0,0,0.611519992351532
0.558235207,0,0,1.3431471586227417,0,0,0
0.559236459,0,0,1.2617442607879639,0,0,0.611519992351532
0.560235989,0,0,1.534683346748352,0,0,0.6879600286483765
0.561236927,0,0,1.2018892765045166,0,0,0.611519992351532
0.562234975,0,0,1.3958195447921753,0,0,0.6879600286483765
0.563234968,0,0,1.5705963373184204,0,0,0.611519992351532
0.564235294,0,0,1.4628572463989258,0,0,0.9172800183296204
0.565236139,0,0,1.3024457693099976,0,0,0.152879998087883
0.566235206,0,0,1.2234370708465576,0,0,0.3822000026702881
0.567235218,0,0,1.0438719987869263,0,0,0.5350799560546875
0.568234878,0,0,1.1540051698684692,0,0,0.2293200045824051
0.569236371,0,0,1.3934253454208374,0,0,0.9937199950218201
0.570234919,0,0,1.414973258972168,0,0,1.2994799613952637
0.571234671,0,0,1.3886369466781616,0,0,1.1466000080108643
0.572234942,0,0,1.4484920501708984,0,0,1.070159912109375
0.573235139,0,0,1.216254472732544,0,0,1.605239987373352
0.574236021,0,0,1.0749965906143188,0,0,0.5350799560546875
0.575241329,0,0,1.3120225667953491,0,0,0.0764399990439415
0.576235044,0,0,1.7501614093780518,0,0,0.9937199950218201
0.577236907,0,0,1.50355863571167,0,0,0.9172800183296204
0.578235048,0,0,1.4724340438842773,0,0,0.152879998087883
0.579236319,0,0,1.290474772453308,0,0,0.8408399820327759
0.580234997,0,0,0.8331822156906128,0,0,0.7644000053405762
0.581236231,0,0,1.072602391242981,0,0,-0.2293200045824051
0.582235872,0,0,1.414973258972168,0,0,1.223039984703064
0.58323705,0,0,1.2689268589019775,0,0,0.7644000053405762
0.584235377,0,0,1.6974890232086182,0,0,0.305759996175766
0.585236333,0,0,1.556231141090393,0,0,1.5288000106811523
0.586235122,0,0,1.1516109704971313,0,0,1.2994799613952637
0.587235356,0,0,1.1276689767837524,0,0,0.152879998087883
0.588234997,0,0,1.2641384601593018,0,0,0.0764399990439415
0.589235731,0,0,1.3407529592514038,0,0,0.6879600286483765
0.590235205,0,0,1.2617442607879639,0,0,9.402119636535645
0.591235272,0,0,1.4245500564575195,0,0,0.4586400091648102
0.59223508,0,0,1.0247182846069336,0,0,0.9172800183296204
0.593235573,0,0,0.9552865028381348,0,0,-0.4586400091648102
0.594235122,0,0,1.4628572463989258,0,0,1.5288000106811523
0.595235189,0,0,1.2473790645599365,0,0,1.758120059967041
0.596234997,0,0,1.4724340438842773,0,0,0.152879998087883
0.597235193,0,0,1.4891934394836426,0,0,1.375920057296753
0.598264834,0,0,1.015141487121582,0,0,1.9109998941421509
0.599238216,0,0,1.2114660739898682,0,0,0
0.600235061,0,0,1.7597382068634033,0,0,0.305759996175766
0.601238202,0,0,1.7764976024627686,0,0,1.2994799613952637
0.602234955,0,0,1.7142484188079834,0,0,-0.9172800183296204
0.603235188,0,0,1.5945383310317993,0,0,1.223039984703064
0.604235367,0,0,1.0079588890075684,0,0,0.9937199950218201
0.605236341,0,0,1.0749965906143188,0,0,-0.4586400091648102
0.606234964,0,0,1.3192051649093628,0,0,1.605239987373352
0.607235234,0,0,1.2737152576446533,0,0,1.6816799640655518
0.608234987,0,0,1.2976573705673218,0,0,9.631440162658691
0.609236257,0,0,0.9217676520347595,0,0,1.5288000106811523
0.610235195,0,0,0.6416460275650024,0,0,0.8408399820327759
0.611234595,0,0,1.0534487962722778,0,0,-1.2994799613952637
0.612235162,0,0,1.479616641998291,0,0,1.070159912109375
0.613237267,0,0,1.7501614093780518,0,0,-0.152879998087883
0.614234371,0,0,1.8291701078414917,0,0,0
0.615235012,0,0,1.4101848602294922,0,0,2.2932000160217285
0.616235264,0,0,1.3096283674240112,0,0,0.305759996175766
0.617236201,0,0,1.4389152526855469,0,0,0.7644000053405762
0.618235102,0,0,1.113303780555725,0,0,2.446079969406128
0.619234688,0,0,1.6304513216018677,0,0,0.5350799560546875
0.620235218,0,0,1.0127472877502441,0,0,0.6879600286483765
0.621236248,0,0,0.7565677165985107,0,0,1.223039984703064
0.622234852,0,0,1.3527239561080933,0,0,-0.611519992351532
0.623235048,0,0,1.2258312702178955,0,0,0.4586400091648102
0.624235004,0,0,1.5969325304031372,0,0,0
0.625236294,0,0,1.8986018896102905,0,0,0
0.626235064,0,0,1.3311761617660522,0,0,1.5288000106811523
0.627235076,0,0,1.4437036514282227,0,0,0.4586400091648102
0.628235069,0,0,1.4532804489135742,0,0,0.9172800183296204
0.629236155,0,0,1.1109095811843872,0,0,1.9109998941421509
0.630235166,0,0,1.599326729774475,0,0,0.9172800183296204
0.631235252,0,0,0.7972691655158997,0,0,0.5350799560546875
0.632235263,0,0,0.13407529890537262,0,0,1.1466000080108643
0.633236275,0,0,1.3479355573654175,0,0,-0.8408399820327759
0.63423499,0,0,0.8259995579719543,0,0,0
0.635235076,0,0,1.5825673341751099,0,0,-0.611519992351532
0.636234661,0,0,1.9297266006469727,0,0,0.152879998087883
0.637236062,0,0,1.0079588890075684,0,0,1.070159912109375
0.63823511,0,0,1.577778935432434,0,0,0.305759996175766
0.639235122,0,0,1.6663644313812256,0,0,1.9109998941421509
0.640235152,0,0,1.1013327836990356,0,0,1.605239987373352
0.641235885,0,0,2.0925323963165283,0,0,1.452359914779663
0.642235156,0,0,0.49320554733276367,0,0,1.758120059967041
0.643235186,0,0,0.5530605912208557,0,0,0.4586400091648102
0.644253883,0,0,1.8291701078414917,0,0,0.611519992351532
0.64523745,0,0,0.9433154463768005,0,0,-0.611519992351532
0.646237184,0,0,2.5019407272338867,0,0,-0.9172800183296204
0.647235344,0,0,2.2002713680267334,0,0,1.375920057296753
0.648234985,0,0,1.237802267074585,0,0,-0.3822000026702881
0.649235459,0,0,2.1739351749420166,0,0,1.605239987373352
0.6502351,0,0,1.0989385843276978,0,0,2.3696401119232178
0.651234964,0,0,1.1085153818130493,0,0,0.4586400091648102
0.652235309,0,0,0.8810662031173706,0,0,2.6754000186920166
0.65323519,0,0,-0.3232172429561615,0,0,0.152879998087883
0.654234795,0,0,0.7805097699165344,0,0,-0.5350799560546875
0.655235028,0,0,0.9409212470054626,0,0,-8.867039680480957
0.656234836,0,0,1.0678139925003052,0,0,-1.5288000106811523
0.65723544,0,0,2.233790159225464,0,0,2.2932000160217285
0.658234655,0,0,1.4053963422775269,0,0,-0.4586400091648102
0.65923526,0,0,1.9512743949890137,0,0,0.9172800183296204
0.660235179,0,0,1.9488801956176758,0,0,2.828279972076416
0.661235023,0,0,1.3431471586227417,0,0,1.223039984703064
0.662235035,0,0,1.1444283723831177,0,0,3.210479974746704
0.663234991,0,0,-0.1867477297782898,0,0,0.9937199950218201
0.664235299,0,0,0.3687070608139038,0,0,-0.8408399820327759
0.665236144,0,0,0.8619126081466675,0,0,0.9172800183296204
0.666235229,0,0,1.4437036514282227,0,0,-1.9109998941421509
0.667235259,0,0,2.070984363555908,0,0,1.2994799613952637
0.668235011,0,0,2.070984363555908,0,0,0
0.669236153,0,0,2.6144683361053467,0,0,1.605239987373352
0.670235109,0,0,2.315192937850952,0,0,2.751840114593506
0.671235083,0,0,1.8746598958969116,0,0,1.375920057296753
0.672238798,0,0,0.181959331035614,0,0,0
0.674405728,0,0,0.181959331035614,0,0,0
0.674579245,0,0,0.3208230137825012,0,0,0.305759996175766
0.675242074,0,0,0.5889736413955688,0,0,-0.4586400091648102
0.676235159,0,0,1.6496049165725708,0,0,-1.223039984703064
0.677240152,0,0,1.7908629179000854,0,0,0.8408399820327759
0.678236645,0,0,2.674323320388794,0,0,-0.4586400091648102
0.679234879,0,0,2.7030537128448486,0,0,2.446079969406128
0.680234872,0,0,2.2912509441375732,0,0,1.375920057296753
0.68123668,0,0,1.7286136150360107,0,0,1.8345600366592407
0.682235154,0,0,0.10773907601833344,0,0,2.828279972076416
0.683235073,0,0,-0.12210428714752197,0,0,0
0.6842349,0,0,-0.1149216815829277,0,0,0.6879600286483765
0.685236244,0,0,0.7709329724311829,0,0,-0.5350799560546875
0.686236515,0,0,1.845929503440857,0,0,-0.305759996175766
0.687237675,0,0,2.4444799423217773,0,0,0.5350799560546875
0.688234964,0,0,3.4189200401306152,0,0,0.3822000026702881
0.689236216,0,0,3.028665065765381,0,0,3.0576000213623047
0.690235191,0,0,2.6839001178741455,0,0,1.9874399900436401
0.69123661,0,0,1.647210717201233,0,0,3.2869198322296143
0.692236103,0,0,0.06464344263076782,0,0,1.452359914779663
0.693236003,0,0,0.2849099934101105,0,0,0
0.694237107,0,0,0.42616790533065796,0,0,0
0.69523536,0,0,1.3670891523361206,0,0,-1.758120059967041
0.696236279,0,0,1.7908629179000854,0,0,0.3822000026702881
0.697236197,0,0,2.387019157409668,0,0,-0.5350799560546875
0.698235098,0,0,2.715024709701538,0,0,1.375920057296753
0.699234795,0,0,2.1547815799713135,0,0,2.751840114593506
0.70023501,0,0,1.7884687185287476,0,0,1.6816799640655518
0.701235651,0,0,0.3878606855869293,0,0,2.904719829559326
0.702235014,0,0,0.15801730751991272,0,0,-0.2293200045824051
0.7032351,0,0,0.45250412821769714,0,0,0.6879600286483765
0.704234908,0,0,0.8690952062606812,0,0,-0.3822000026702881
0.70523753,0,0,1.7908629179000854,0,0,0
0.706235783,0,0,1.778891921043396,0,0,1.223039984703064
0.707235442,0,0,2.7700912952423096,0,0,0.305759996175766
0.708235287,0,0,2.715024709701538,0,0,2.751840114593506
0.709235039,0,0,2.52109432220459,0,0,2.14031982421875
0.710235162,0,0,1.6927006244659424,0,0,2.522519826889038
0.711235063,0,0,0.3519476354122162,0,0,1.5288000106811523
0.712234963,0,0,0.5602431893348694,0,0,-0.152879998087883
0.7132364,0,0,0.6153098344802856,0,0,0.3822000026702881
0.714235153,0,0,1.460463047027588,0,0,-1.1466000080108643
0.715234923,0,0,1.647210717201233,0,0,0.4586400091648102
0.716234972,0,0,1.8602946996688843,0,0,-0.152879998087883
0.717236243,0,0,2.535459518432617,0,0,1.070159912109375
0.718235106,0,0,2.1595699787139893,0,0,2.751840114593506
0.719234618,0,0,2.2409727573394775,0,0,1.2994799613952637
0.720235055,0,0,0.7565677165985107,0,0,3.3633599281311035
0.721236289,0,0,0.2298433631658554,0,0,1.070159912109375
0.722234782,0,0,0.6943184733390808,0,0,1.1466000080108643
0.723234812,0,0,0.8475474119186401,0,0,-0.2293200045824051
0.724235398,0,0,1.6424223184585571,0,0,-0.6879600286483765
0.725236279,0,0,1.4963760375976563,0,0,0.9172800183296204
0.726235347,0,0,2.4803929328918457,0,0,-0.3822000026702881
0.727235173,0,0,2.6791117191314697,0,0,2.2932000160217285
0.728234925,0,0,2.537853717803955,0,0,2.3696401119232178
0.729236288,0,0,2.075772762298584,0,0,2.446079969406128
0.730234985,0,0,0.395043283700943,0,0,2.2932000160217285
0.731234904,0,0,0.3256114423274994,0,0,0.2293200045824051
0.732235138,0,0,0.35673606395721436,0,0,1.2994799613952637
0.733235761,0,0,0.9600749015808105,0,0,-1.605239987373352
0.734235161,0,0,1.6184803247451782,0,0,0
0.735235117,0,0,1.9919757843017578,0,0,-0.4586400091648102
0.736235036,0,0,2.9735984802246094,0,0,0.5350799560546875
0.737235955,0,0,2.650381326675415,0,0,2.6754000186920166
0.738235077,0,0,2.7509377002716064,0,0,1.6816799640655518
0.739234904,0,0,1.3455413579940796,0,0,3.592679977416992
0.74023473,0,0,0.05985504388809204,0,0,2.2932000160217285
0.741235927,0,0,0.2561795711517334,0,0,0.305759996175766
0.742235105,0,0,0.19153612852096558,0,0,0.6879600286483765
0.743235042,0,0,1.0893617868423462,0,0,-1.5288000106811523
0.744234591,0,0,1.37906014919281,0,0,0.152879998087883
0.745236158,0,0,2.3343467712402344,0,0,-0.7644000053405762
0.746234892,0,0,3.002328872680664,0,0,1.9109998941421509
0.747235014,0,0,2.7102363109588623,0,0,2.14031982421875
0.748234989,0,0,2.559401512145996,0,0,2.2932000160217285
0.749236149,0,0,0.7876923680305481,0,0,3.7455599308013916
0.750236123,0,0,0.4692635238170624,0,0,0.9937199950218201
0.751235116,0,0,0.2801215946674347,0,0,1.1466000080108643
0.752235109,0,0,0.47644615173339844,0,0,-0.152879998087883
0.753236287,0,0,1.2234370708465576,0,0,-0.8408399820327759
0.754235003,0,0,1.6974890232086182,0,0,0.305759996175766
0.755257606,0,0,2.7293899059295654,0,0,9.249239921569824
0.756236303,0,0,2.671929121017456,0,0,2.3696401119232178
0.757236056,0,0,2.63362193107605,0,0,1.2994799613952637
0.758234938,0,0,1.8818424940109253,0,0,3.0576000213623047
0.759235264,0,0,0.3471592366695404,0,0,2.3696401119232178
0.760234849,0,0,0.42856210470199585,0,0,0
0.761236379,0,0,0.12210428714752197,0,0,1.1466000080108643
0.762234465,0,0,0.912190854549408,0,0,-0.7644000053405762
0.763235884,0,0,0.9983820915222168,0,0,0.305759996175766
0.764234692,0,0,2.027888774871826,0,0,-0.5350799560546875
0.765236277,0,0,2.846705913543701,0,0,0.611519992351532
0.766234622,0,0,2.535459518432617,0,0,2.828279972076416
0.76723493,0,0,2.7006595134735107,0,0,1.5288000106811523
0.76823496,0,0,1.1252747774124146,0,0,3.7455599308013916
0.769236027,0,0,0.7254431247711182,0,0,1.070159912109375
0.770234872,0,0,0.8044517636299133,0,0,0.7644000053405762
0.771234939,0,0,0.6416460275650024,0,0,-0.152879998087883
0.772235062,0,0,1.3862427473068237,0,0,-0.8408399820327759
0.773236055,0,0,1.3335703611373901,0,0,0.2293200045824051
0.774235085,0,0,2.233790159225464,0,0,-0.6879600286483765
0.775235041,0,0,2.252943754196167,0,0,1.758120059967041
0.776234793,0,0,2.1380221843719482,0,0,1.452359914779663
0.777235212,0,0,1.8339585065841675,0,0,1.1466000080108643
0.778235038,0,0,0.3447650372982025,0,0,2.751840114593506
0.77923505,0,0,0.7158663272857666,0,0,0
0.780235265,0,0,0.6033388376235962,0,0,1.070159912109375
0.781236332,0,0,1.3527239561080933,0,0,-0.611519992351532
0.782235677,0,0,1.6903064250946045,0,0,0.305759996175766
0.783234892,0,0,1.659181833267212,0,0,0.152879998087883
0.784234959,0,0,2.4827871322631836,0,0,0.5350799560546875
0.785236193,0,0,2.027888774871826,0,0,2.828279972076416
0.786234927,0,0,2.4157495498657227,0,0,1.375920057296753
0.787234549,0,0,1.6400281190872192,0,0,2.904719829559326
0.788235228,0,0,0.7182605266571045,0,0,2.446079969406128
0.78923611,0,0,1.1252747774124146,0,0,0.7644000053405762
0.790234973,0,0,0.8547300100326538,0,0,0.5350799560546875
0.791234947,0,0,1.3862427473068237,0,0,-0.7644000053405762
0.792235144,0,0,1.7812861204147339,0,0,0.6879600286483765
0.793236063,0,0,1.889025092124939,0,0,0.152879998087883
0.794235075,0,0,2.3989901542663574,0,0,1.452359914779663
0.795239623,0,0,2.099714994430542,0,0,1.2994799613952637
0.796235024,0,0,2.1380221843719482,0,0,1.452359914779663
0.797235831,0,0,0.646434485912323,0,0,3.134040117263794
0.798235398,0,0,0.5937620401382446,0,0,0.3822000026702881
0.799235188,0,0,0.47405192255973816,0,0,0.9172800183296204
0.800234903,0,0,0.790086567401886,0,0,-0.305759996175766
0.801236507,0,0,1.3766659498214722,0,0,-0.152879998087883
0.802235093,0,0,1.623268723487854,0,0,0.5350799560546875
0.803235271,0,0,2.43011474609375,0,0,0.5350799560546875
0.804235023,0,0,2.1284453868865967,0,0,2.2932000160217285
0.805235646,0,0,2.425326347351074,0,0,1.223039984703064
0.806234972,0,0,1.5945383310317993,0,0,2.751840114593506
0.80723491,0,0,0.6560112833976746,0,0,2.5989599227905273
0.80823481,0,0,0.9864110946655273,0,0,0.0764399990439415
0.809235692,0,0,0.8236053586006165,0,0,1.6816799640655518
0.810235203,0,0,1.534683346748352,0,0,-0.7644000053405762
0.811235048,0,0,1.3694833517074585,0,0,0.9937199950218201
0.812234912,0,0,1.8818424940109253,0,0,0
0.813234794,0,0,2.3032219409942627,0,0,1.1466000080108643
0.814235009,0,0,2.140416383743286,0,0,1.8345600366592407
0.815255965,0,0,2.4899697303771973,0,0,1.1466000080108643
0.816238143,0,0,1.139639973640442,0,0,3.8219997882843018
0.817236247,0,0,0.7445967197418213,0,0,0.9172800183296204
0.818235185,0,0,0.9026140570640564,0,0,0.5350799560546875
0.819241603,0,0,0.8403648138046265,0,0,0.7644000053405762
0.820235596,0,0,1.3862427473068237,0,0,-0.611519992351532
0.821235164,0,0,1.4867992401123047,0,0,0.8408399820327759
0.822234953,0,0,2.183511972427368,0,0,0
0.823234872,0,0,2.1068975925445557,0,0,2.14031982421875
0.824235198,0,0,2.3080103397369385,0,0,0.8408399820327759
0.825236469,0,0,1.9393033981323242,0,0,1.9874399900436401
0.826234943,0,0,0.4429273009300232,0,0,2.5989599227905273
0.827234622,0,0,0.7086837291717529,0,0,-0.152879998087883
0.82823504,0,0,0.5841852426528931,0,0,1.8345600366592407
0.829235496,0,0,0.9193734526634216,0,0,-0.3822000026702881
0.830234656,0,0,1.3694833517074585,0,0,0
0.831234797,0,0,1.7118542194366455,0,0,0.8408399820327759
0.832235087,0,0,2.6001031398773193,0,0,0.152879998087883
0.833236376,0,0,2.408566951751709,0,0,2.446079969406128
0.83423535,0,0,2.762908697128296,0,0,0.9937199950218201
0.835234955,0,0,1.3766659498214722,0,0,3.2869198322296143
0.836235188,0,0,0.608127236366272,0,0,1.070159912109375
0.837235922,0,0,0.8786720037460327,0,0,0
0.838235008,0,0,0.811634361743927,0,0,0.611519992351532
0.839234964,0,0,1.623268723487854,0,0,-0.4586400091648102
0.840234827,0,0,1.721431016921997,0,0,0.3822000026702881
0.84123595,0,0,2.2146365642547607,0,0,0.4586400091648102
0.842235035,0,0,1.946485996246338,0,0,1.9874399900436401
0.843234973,0,0,1.9129672050476074,0,0,1.6816799640655518
0.84423491,0,0,1.601720929145813,0,0,1.452359914779663
0.845236014,0,0,0.3974374830722809,0,0,2.2167599201202393
0.846234933,0,0,0.8547300100326538,0,0,-0.611519992351532
0.847238667,0,0,0.8475474119186401,0,0,0.9937199950218201
0.848234827,0,0,1.4437036514282227,0,0,-0.4586400091648102
0.849235394,0,0,1.7094600200653076,0,0,0
0.850234905,0,0,1.7860745191574097,0,0,1.1466000080108643
0.851234898,0,0,2.367865562438965,0,0,0.5350799560546875
0.852234595,0,0,1.9967641830444336,0,0,2.446079969406128
0.853235199,0,0,2.343923568725586,0,0,1.452359914779663
0.854235044,0,0,1.2617442607879639,0,0,2.522519826889038
0.855235018,0,0,0.3902548849582672,0,0,2.14031982421875
0.856235252,0,0,0.8188169598579407,0,0,0.0764399990439415
0.857235486,0,0,1.1540051698684692,0,0,0.7644000053405762
0.858234923,0,0,1.867477297782898,0,0,-0.9937199950218201
0.859235879,0,0,1.9704279899597168,0,0,0.6879600286483765
0.860234835,0,0,2.5498247146606445,0,0,0.6879600286483765
0.861235087,0,0,2.6815059185028076,0,0,1.9109998941421509
0.862235025,0,0,2.319981336593628,0,0,3.0576000213623047
0.863235073,0,0,2.0422539710998535,0,0,1.9874399900436401
0.864235048,0,0,0.5770025849342346,0,0,3.516240119934082
0.865235374,0,0,0.6105214357376099,0,0,0.152879998087883
0.866235108,0,0,1.45806884765625,0,0,9.096360206604004
0.867235045,0,0,1.8483237028121948,0,0,-0.5350799560546875
0.868234964,0,0,2.7437551021575928,0,0,-29.888038635253906
0.869236161,0,0,2.250549554824829,0,0,1.6816799640655518
0.870234932,0,0,2.535459518432617,0,0,0.3822000026702881
0.871235036,0,0,2.094926595687866,0,0,2.14031982421875
0.872234807,0,0,1.623268723487854,0,0,2.06387996673584
0.873234578,0,0,1.1635819673538208,0,0,1.5288000106811523
0.874234552,0,0,0.06703764945268631,0,0,2.6754000186920166
0.875237601,0,0,0.4812345504760742,0,0,9.172800064086914
0.876235038,0,0,1.3215993642807007,0,0,9.631440162658691
0.877234827,0,0,1.659181833267212,0,0,-9.172800064086914
0.878232098,0,0,2.2649147510528564,0,0,0
0.879232554,0,0,2.0015525817871094,0,0,2.2932000160217285
0.880232103,0,0,2.183511972427368,0,0,0.305759996175766
0.881237818,0,0,2.22660756111145,0,0,2.446079969406128
0.882235015,0,0,2.0829553604125977,0,0,1.9109998941421509
0.883248489,0,0,1.9752163887023926,0,0,1.5288000106811523
0.88423589,0,0,0.8475474119186401,0,0,3.592679977416992
0.88523629,0,0,0.7038952708244324,0,0,0
0.886235135,0,0,1.3503297567367554,0,0,0.611519992351532
0.887235165,0,0,1.647210717201233,0,0,1.375920057296753
0.88823501,0,0,2.3487119674682617,0,0,-0.9937199950218201
0.889233429,0,0,2.2864625453948975,0,0,2.5989599227905273
0.890232329,0,0,2.1332337856292725,0,0,0
0.891232063,0,0,2.516305923461914,0,0,1.5288000106811523
0.892232093,0,0,2.1140801906585693,0,0,2.5989599227905273
0.893236215,0,0,1.9704279899597168,0,0,0.9937199950218201
0.894234875,0,0,1.170764684677124,0,0,2.828279972076416
0.895234368,0,0,0.3663128614425659,0,0,0.4586400091648102
0.896234713,0,0,1.1013327836990356,0,0,-0.6879600286483765
0.897235725,0,0,1.235408067703247,0,0,1.223039984703064
0.898234421,0,0,1.6041151285171509,0,0,-1.223039984703064
0.899234636,0,0,2.2194249629974365,0,0,1.070159912109375
0.900234629,0,0,1.5873557329177856,0,0,1.1466000080108643
0.901235734,0,0,2.0231003761291504,0,0,0.5350799560546875
0.902234449,0,0,2.0877439975738525,0,0,2.9811599254608154
0.903234516,0,0,1.8602946996688843,0,0,1.2994799613952637
0.904234509,0,0,2.3726539611816406,0,0,2.14031982421875
0.905235761,0,0,1.2545616626739502,0,0,2.904719829559326
0.906234569,0,0,1.0582371950149536,0,0,0.6879600286483765
0.907234432,0,0,1.800439715385437,0,0,0.5350799560546875
0.908234462,0,0,1.37906014919281,0,0,0.9937199950218201
0.909234696,0,0,2.1308395862579346,0,0,-0.611519992351532
0.910235208,0,0,2.166752576828003,0,0,1.2994799613952637
0.911234386,0,0,1.6663644313812256,0,0,0.305759996175766
0.912234509,0,0,2.3989901542663574,0,0,1.1466000080108643
0.91323539,0,0,1.8100165128707886,0,0,2.751840114593506
0.914234846,0,0,1.6400281190872192,0,0,1.452359914779663
0.915234413,0,0,1.802833914756775,0,0,2.06387996673584
0.916234499,0,0,0.8140285611152649,0,0,2.2167599201202393
0.917235196,0,0,1.0199298858642578,0,0,0.3822000026702881
0.918234837,0,0,1.7334020137786865,0,0,0.3822000026702881
0.919235367,0,0,1.455674648284912,0,0,0.2293200045824051
0.920234582,0,0,2.0853497982025146,0,0,9.478560447692871
0.921235964,0,0,1.9991583824157715,0,0,0.7644000053405762
0.922234976,0,0,1.8986018896102905,0,0,0.9172800183296204
0.923253468,0,0,2.389413356781006,0,0,1.5288000106811523
0.9246342,0,0,1.9776105880737305,0,0,1.758120059967041
0.925239195,0,0,1.8171991109848022,0,0,1.758120059967041
0.926235448,0,0,1.7884687185287476,0,0,1.758120059967041
0.927235163,0,0,0.9816226959228516,0,0,2.14031982421875
0.928234656,0,0,0.8140285611152649,0,0,1.2994799613952637
0.929235501,0,0,1.45806884765625,0,0,0.3822000026702881
0.930234605,0,0,1.4915876388549805,0,0,0.611519992351532
0.931234876,0,0,1.7357962131500244,0,0,0.3822000026702881
0.932234609,0,0,2.2409727573394775,0,0,0.152879998087883
0.933236732,0,0,2.0039467811584473,0,0,0.8408399820327759
0.934234447,0,0,2.006340980529785,0,0,0.6879600286483765
0.935234644,0,0,2.231395959854126,0,0,0.8408399820327759
0.936234655,0,0,1.7717092037200928,0,0,2.14031982421875
0.93723513,0,0,1.5658079385757446,0,0,2.2932000160217285
0.938234771,0,0,1.3886369466781616,0,0,1.452359914779663
0.93923432,0,0,0.9241618514060974,0,0,1.9109998941421509
0.940233905,0,0,1.3886369466781616,0,0,1.1466000080108643
0.941235343,0,0,2.0231003761291504,0,0,0
0.942234336,0,0,2.1140801906585693,0,0,1.070159912109375
0.943234607,0,0,2.3104045391082764,0,0,0
0.94423447,0,0,2.274491548538208,0,0,0.3822000026702881
0.945235852,0,0,1.7573440074920654,0,0,1.9109998941421509
0.946234567,0,0,1.5921441316604614,0,0,1.070159912109375
0.947252597,0,0,1.6496049165725708,0,0,0.9172800183296204
0.948235349,0,0,1.3263877630233765,0,0,2.446079969406128
0.949236602,0,0,1.501164436340332,0,0,1.452359914779663
0.950236576,0,0,1.678335428237915,0,0,0.7644000053405762
0.951234365,0,0,1.623268723487854,0,0,1.605239987373352
0.952234506,0,0,1.8195933103561401,0,0,0.611519992351532
0.953235851,0,0,2.1787235736846924,0,0,0.5350799560546875
0.954234585,0,0,1.9369091987609863,0,0,1.5288000106811523
0.955235208,0,0,1.482010841369629,0,0,0.2293200045824051
0.956234293,0,0,1.6496049165725708,0,0,0.4586400091648102
0.957235879,0,0,1.316810965538025,0,0,1.1466000080108643
0.958234039,0,0,1.1875240802764893,0,0,0.611519992351532
0.959234254,0,0,1.8124107122421265,0,0,0.2293200045824051
0.960234284,0,0,1.965639591217041,0,0,1.8345600366592407
0.961235129,0,0,1.9105730056762695,0,0,1.223039984703064
0.962234011,0,0,1.98958158493042,0,0,1.1466000080108643
0.963234411,0,0,1.3982137441635132,0,0,1.9874399900436401
0.964234496,0,0,0.9600749015808105,0,0,1.375920057296753
0.965235693,0,0,1.6711528301239014,0,0,0.8408399820327759
0.966234501,0,0,1.9153614044189453,0,0,1.070159912109375
0.96723455,0,0,2.013523578643799,0,0,0.8408399820327759
0.968234468,0,0,2.250549554824829,0,0,0.305759996175766
0.969235554,0,0,2.145204782485962,0,0,0.7644000053405762
0.970234473,0,0,1.5203180313110352,0,0,1.605239987373352
0.971234651,0,0,1.2425906658172607,0,0,1.070159912109375
0.972234422,0,0,1.4245500564575195,0,0,0.6879600286483765
0.973235119,0,0,1.4891934394836426,0,0,1.9109998941421509
0.974317722,0,0,1.7884687185287476,0,0,1.5288000106811523
0.975236327,0,0,1.9847931861877441,0,0,2.446079969406128
0.976234987,0,0,1.7597382068634033,0,0,1.6816799640655518
0.977236572,0,0,1.5203180313110352,0,0,1.758120059967041
0.978234695,0,0,1.8411411046981812,0,0,0.8408399820327759
0.979234651,0,0,2.2577321529388428,0,0,0.9937199950218201
0.980233829,0,0,2.2816741466522217,0,0,1.070159912109375
0.981236026,0,0,2.2361843585968018,0,0,0.4586400091648102
0.982234685,0,0,2.121262788772583,0,0,1.223039984703064
0.983234123,0,0,1.4484920501708984,0,0,1.223039984703064
0.984234301,0,0,0.9840168952941895,0,0,1.070159912109375
0.98523572,0,0,0.8738836050033569,0,0,0.9937199950218201
0.986234435,0,0,1.3000515699386597,0,0,0.611519992351532
0.987234632,0,0,1.3742717504501343,0,0,1.070159912109375
0.988234217,0,0,1.9153614044189453,0,0,0.611519992351532
0.989235507,0,0,2.1763293743133545,0,0,1.070159912109375
0.990234555,0,0,2.008735179901123,0,0,1.9109998941421509
0.991234474,0,0,1.7525556087493896,0,0,1.223039984703064
0.992234523,0,0,1.8626888990402222,0,0,1.452359914779663
0.99323546,0,0,1.9752163887023926,0,0,1.2994799613952637
0.99423449,0,0,2.075772762298584,0,0,0.9172800183296204
0.995234613,0,0,1.941697597503662,0,0,0.9937199950218201
0.996238235,0,0,1.7884687185287476,0,0,1.1466000080108643
0.997289876,0,0,1.2689268589019775,0,0,0.8408399820327759
0.998299332,0,0,0.6584054827690125,0,0,0.8408399820327759
0.999291381,0,0,0.9385270476341248,0,0,0.3822000026702881
1.000290985,0,0,1.6089035272598267,0,0,0
1.001293978,0,0,1.7980455160140991,0,0,1.070159912109375
1.0023341,0,0,2.3343467712402344,0,0,1.2994799613952637
1.003309834,0,0,2.609679937362671,0,0,1.452359914779663
1.004301679,0,0,2.0829553604125977,0,0,2.446079969406128
1.00527082,0,0,1.6041151285171509,0,0,2.2167599201202393
1.006391127,0,0,1.5921441316604614,0,0,1.223039984703064
1.007282658,0,0,2.0207061767578125,0,0,1.375920057296753
1.00830828,0,0,2.10210919380188,0,0,0.9172800183296204
1.009315477,0,0,2.229001760482788,0,0,0.9172800183296204
1.010295989,0,0,2.363077163696289,0,0,0.4586400091648102
1.011315741,0,0,1.968033790588379,0,0,1.375920057296753
1.012319215,0,0,0.871489405632019,0,0,0.9937199950218201
1.013313412,0,0,0.49559974670410156,0,0,0.611519992351532
1.014314775,0,0,0.7350199222564697,0,0,0
1.015286417,0,0,1.1563993692398071,0,0,-0.4586400091648102
1.016272076,0,0,1.5418659448623657,0,0,0.7644000053405762
1.017272458,0,0,1.843535304069519,0,0,0.3822000026702881
1.018266674,0,0,2.542642116546631,0,0,1.1466000080108643
1.019278889,0,0,2.0470423698425293,0,0,2.2932000160217285
1.020251345,0,0,1.6089035272598267,0,0,1.9874399900436401
1.021263467,0,0,1.3407529592514038,0,0,2.446079969406128
1.02226046,0,0,1.721431016921997,0,0,1.452359914779663
1.023419026,0,0,1.987187385559082,0,0,0.8408399820327759
1.024270317,0,0,2.276885747909546,0,0,1.375920057296753
1.025334717,0,0,2.4803929328918457,0,0,0.6879600286483765
1.026251173,0,0,2.4636335372924805,0,0,1.223039984703064
1.027240259,0,0,1.9823989868164063,0,0,1.605239987373352
1.028240511,0,0,1.2210428714752197,0,0,0.9172800183296204
1.029246671,0,0,0.8355764150619507,0,0,0.2293200045824051
1.030237386,0,0,0.8738836050033569,0,0,0.4586400091648102
1.031239472,0,0,1.3048399686813354,0,0,-0.305759996175766
1.032239872,0,0,1.623268723487854,0,0,0.2293200045824051
1.033243272,0,0,1.9393033981323242,0,0,1.1466000080108643
1.034240043,0,0,2.3726539611816406,0,0,1.375920057296753
1.035240277,0,0,1.8579005002975464,0,0,2.06387996673584
1.036241159,0,0,1.6089035272598267,0,0,1.758120059967041
1.037242818,0,0,1.5059528350830078,0,0,1.8345600366592407
1.038239441,0,0,1.9608511924743652,0,0,1.070159912109375
1.039237823,0,0,2.279279947280884,0,0,0.8408399820327759
1.040239538,0,0,2.1380221843719482,0,0,1.070159912109375
1.041327086,0,0,2.142810583114624,0,0,0.9172800183296204
1.042324709,0,0,1.867477297782898,0,0,1.223039984703064
1.043268739,0,0,1.6615760326385498,0,0,0.9937199950218201
1.04426551,0,0,1.0630255937576294,0,0,0.9172800183296204
1.045276355,0,0,0.7637503147125244,0,0,0.9937199950218201
1.046661734,0,0,1.2665326595306396,0,0,0
1.048694479,0,0,1.2665326595306396,0,0,0
1.04887483,0,0,1.7310078144073486,0,0,0.305759996175766
1.04925466,0,0,2.0422539710998535,0,0,0.7644000053405762
1.050284375,0,0,1.764526605606079,0,0,1.8345600366592407
1.051270553,0,0,2.070984363555908,0,0,1.605239987373352
1.052287065,0,0,1.9249382019042969,0,0,2.5989599227905273
1.053325354,0,0,1.6400281190872192,0,0,1.8345600366592407
1.054301569,0,0,1.8124107122421265,0,0,1.6816799640655518
1.055292285,0,0,1.6927006244659424,0,0,1.9874399900436401
1.056273111,0,0,2.5977089405059814,0,0,0.6879600286483765
1.057287437,0,0,2.779668092727661,0,0,1.452359914779663
1.058251801,0,0,2.669534921646118,0,0,1.2994799613952637
1.059270701,0,0,2.0039467811584473,0,0,0.7644000053405762
1.060276194,0,0,1.6352397203445435,0,0,1.6816799640655518
1.061260595,0,0,1.381454348564148,0,0,0.3822000026702881
1.062279254,0,0,0.9744400978088379,0,0,0.8408399820327759
1.063281988,0,0,1.0606313943862915,0,0,0
1.0643011470000001,0,0,1.0079588890075684,0,0,0.152879998087883
1.065321381,0,0,1.094150185585022,0,0,0.152879998087883
1.066311596,0,0,1.3287819623947144,0,0,0.0764399990439415
1.067278238,0,0,1.7094600200653076,0,0,0.6879600286483765
1.068280545,0,0,1.6950948238372803,0,0,1.375920057296753
1.069282779,0,0,1.6304513216018677,0,0,1.758120059967041
1.070274957,0,0,2.0446481704711914,0,0,1.758120059967041
1.071269913,0,0,2.1116859912872314,0,0,2.14031982421875
1.072279814,0,0,2.118868589401245,0,0,1.6816799640655518
1.07327951,0,0,1.8938134908676147,0,0,1.5288000106811523
1.074277633,0,0,1.6687586307525635,0,0,1.605239987373352
1.075276163,0,0,2.2697031497955322,0,0,0.5350799560546875
1.076246082,0,0,2.4205379486083984,0,0,0.9937199950218201
1.077235742,0,0,2.1978771686553955,0,0,1.223039984703064
1.078233105,0,0,1.8315643072128296,0,0,0.9172800183296204
1.079231969,0,0,1.2497732639312744,0,0,1.375920057296753
1.080233258,0,0,1.2521674633026123,0,0,0.7644000053405762
1.081233084,0,0,1.4891934394836426,0,0,0.305759996175766
1.082232429,0,0,1.3000515699386597,0,0,0.3822000026702881
1.083232793,0,0,1.1803414821624756,0,0,0.305759996175766
1.084232174,0,0,1.1037269830703735,0,0,0.4586400091648102
1.085234667,0,0,1.4221558570861816,0,0,0.3822000026702881
1.086232272,0,0,1.623268723487854,0,0,0.9172800183296204
1.087232116,0,0,1.920149803161621,0,0,1.223039984703064
1.088232017,0,0,1.9057846069335938,0,0,1.2994799613952637
1.089233251,0,0,1.6950948238372803,0,0,2.3696401119232178
1.090232299,0,0,1.9273324012756348,0,0,1.5288000106811523
1.091231996,0,0,2.164358377456665,0,0,1.8345600366592407
1.092232007,0,0,2.4133553504943848,0,0,2.14031982421875
1.093235148,0,0,2.2697031497955322,0,0,1.1466000080108643
1.094232753,0,0,1.867477297782898,0,0,1.8345600366592407
1.095250412,0,0,1.4867992401123047,0,0,0.7644000053405762
1.096245498,0,0,1.7405846118927002,0,0,0.611519992351532
1.097233787,0,0,2.006340980529785,0,0,0.611519992351532
1.09823265,0,0,1.7477672100067139,0,0,0.8408399820327759
1.099232143,0,0,1.5203180313110352,0,0,0.7644000053405762
1.100231711,0,0,1.194706678390503,0,0,0.9937199950218201
1.101234352,0,0,0.9840168952941895,0,0,0.8408399820327759
1.102232567,0,0,1.3455413579940796,0,0,0.2293200045824051
1.103233449,0,0,1.647210717201233,0,0,0.3822000026702881
1.104231979,0,0,1.5322890281677246,0,0,0.611519992351532
1.105232787,0,0,1.5083470344543457,0,0,0.4586400091648102
1.106232206,0,0,1.4484920501708984,0,0,0.9172800183296204
1.107232921,0,0,1.4389152526855469,0,0,0.9937199950218201
1.108232432,0,0,1.8267759084701538,0,0,0.8408399820327759
1.109235555,0,0,1.9153614044189453,0,0,1.758120059967041
1.110232326,0,0,1.8986018896102905,0,0,1.5288000106811523
1.111232189,0,0,1.8818424940109253,0,0,1.2994799613952637
1.112232886,0,0,1.7812861204147339,0,0,1.6816799640655518
1.113233138,0,0,1.9752163887023926,0,0,1.070159912109375
1.114232409,0,0,2.1308395862579346,0,0,1.6816799640655518
1.115233976,0,0,2.1930887699127197,0,0,1.1466000080108643
1.116232858,0,0,1.9847931861877441,0,0,1.5288000106811523
1.117234869,0,0,1.8962076902389526,0,0,1.223039984703064
1.118231825,0,0,1.460463047027588,0,0,1.223039984703064
1.119232281,0,0,1.2521674633026123,0,0,1.2994799613952637
1.120231885,0,0,1.5825673341751099,0,0,0.4586400091648102
1.121232989,0,0,1.9776105880737305,0,0,0.9937199950218201
1.122233593,0,0,1.9967641830444336,0,0,1.1466000080108643
1.123232105,0,0,1.8076223134994507,0,0,0.9937199950218201
1.124232228,0,0,1.5634137392044067,0,0,1.223039984703064
1.125237813,0,0,1.292868971824646,0,0,1.2994799613952637
1.126235565,0,0,1.338358759880066,0,0,0.8408399820327759
1.12723504,0,0,1.7190368175506592,0,0,0.7644000053405762
1.128238255,0,0,2.1499931812286377,0,0,0.9172800183296204
1.129235785,0,0,2.188300371170044,0,0,1.070159912109375
1.130235056,0,0,1.8124107122421265,0,0,1.1466000080108643
1.131235067,0,0,1.482010841369629,0,0,1.2994799613952637
1.132236857,0,0,1.1540051698684692,0,0,1.2994799613952637
1.133235276,0,0,1.1324573755264282,0,0,1.2994799613952637
1.134234972,0,0,1.6687586307525635,0,0,0.9172800183296204
1.135235132,0,0,2.1140801906585693,0,0,0.6879600286483765
1.136234792,0,0,2.2577321529388428,0,0,1.070159912109375
1.137236507,0,0,2.2218191623687744,0,0,1.223039984703064
1.138235278,0,0,1.8291701078414917,0,0,1.452359914779663
1.139234937,0,0,1.4867992401123047,0,0,1.605239987373352
1.140234393,0,0,1.3407529592514038,0,0,1.2994799613952637
1.141235553,0,0,1.6280571222305298,0,0,0.8408399820327759
1.142234953,0,0,2.10210919380188,0,0,1.070159912109375
1.143234354,0,0,2.0925323963165283,0,0,0.7644000053405762
1.144234791,0,0,1.9081788063049316,0,0,1.070159912109375
1.145236395,0,0,1.6400281190872192,0,0,1.375920057296753
1.146234888,0,0,1.2976573705673218,0,0,0.9937199950218201
1.147234918,0,0,1.1755530834197998,0,0,0.8408399820327759
1.148234948,0,0,1.403002142906189,0,0,0.6879600286483765
1.149235997,0,0,1.886630892753601,0,0,0.6879600286483765
1.150235064,0,0,2.1499931812286377,0,0,0.9172800183296204
1.151235094,0,0,2.0925323963165283,0,0,1.1466000080108643
1.152234772,0,0,1.9081788063049316,0,0,1.452359914779663
1.15323521,0,0,1.45806884765625,0,0,1.605239987373352
1.154235092,0,0,1.158793568611145,0,0,1.223039984703064
1.155250992,0,0,1.2210428714752197,0,0,1.070159912109375
1.156235781,0,0,1.5275006294250488,0,0,0.8408399820327759
1.157235608,0,0,1.941697597503662,0,0,0.2293200045824051
1.158235249,0,0,2.2242133617401123,0,0,0.611519992351532
1.15924276,0,0,2.2194249629974365,0,0,1.1466000080108643
1.160234827,0,0,1.9776105880737305,0,0,1.2994799613952637
1.161235913,0,0,1.623268723487854,0,0,1.5288000106811523
1.162234943,0,0,1.2282254695892334,0,0,1.070159912109375
1.163234769,0,0,1.0582371950149536,0,0,0.611519992351532
1.164234892,0,0,1.278503656387329,0,0,0.8408399820327759
1.165235292,0,0,1.6639702320098877,0,0,0.4586400091648102
1.166234878,0,0,2.056619167327881,0,0,0.611519992351532
1.167234945,0,0,2.097320795059204,0,0,1.070159912109375
1.16823466,0,0,2.0183119773864746,0,0,1.8345600366592407
1.169236042,0,0,1.8746598958969116,0,0,1.758120059967041
1.170234961,0,0,1.7764976024627686,0,0,1.9109998941421509
1.171234676,0,0,1.5634137392044067,0,0,1.2994799613952637
1.172234873,0,0,1.5322890281677246,0,0,0.9937199950218201
1.173244421,0,0,1.6400281190872192,0,0,0.5350799560546875
1.174268081,0,0,1.7046716213226318,0,0,0.611519992351532
1.175283777,0,0,1.9847931861877441,0,0,0.6879600286483765
1.17623866,0,0,2.0207061767578125,0,0,0.9937199950218201
1.177236782,0,0,1.900996208190918,0,0,1.223039984703064
1.178235294,0,0,1.6759412288665771,0,0,1.2994799613952637
1.179235139,0,0,1.5538369417190552,0,0,1.452359914779663
1.180235002,0,0,1.3479355573654175,0,0,0.9172800183296204
1.181236699,0,0,1.5203180313110352,0,0,0.8408399820327759
1.182235062,0,0,1.5131354331970215,0,0,0.5350799560546875
1.183234555,0,0,1.7070658206939697,0,0,0.6879600286483765
1.184235104,0,0,1.9177556037902832,0,0,0.7644000053405762
1.1852361519999999,0,0,1.745373010635376,0,0,0.6879600286483765
1.186234812,0,0,1.6903064250946045,0,0,1.2994799613952637
1.187234749,0,0,1.7501614093780518,0,0,1.375920057296753
1.188234761,0,0,1.6136919260025024,0,0,1.2994799613952637
1.18923592,0,0,1.6160861253738403,0,0,1.605239987373352
1.1902348759999999,0,0,1.6208745241165161,0,0,1.2994799613952637
1.191234962,0,0,1.802833914756775,0,0,1.223039984703064
1.192235066,0,0,1.8986018896102905,0,0,1.1466000080108643
1.193235929,0,0,1.8626888990402222,0,0,0.9937199950218201
1.194235182,0,0,1.9129672050476074,0,0,0.9937199950218201
1.195238249,0,0,1.9057846069335938,0,0,0.7644000053405762
1.196235001,0,0,1.6424223184585571,0,0,1.1466000080108643
1.197235864,0,0,1.4437036514282227,0,0,0.8408399820327759
1.198234709,0,0,1.5083470344543457,0,0,1.2994799613952637
1.199234887,0,0,1.4389152526855469,0,0,1.1466000080108643
1.200234973,0,0,1.45806884765625,0,0,0.9172800183296204
1.20123567,0,0,1.6184803247451782,0,0,0.8408399820327759
1.202234922,0,0,1.7908629179000854,0,0,0.611519992351532
1.203234711,0,0,1.7956513166427612,0,0,0.8408399820327759
1.204235112,0,0,1.8818424940109253,0,0,0.8408399820327759
1.20523579,0,0,1.8171991109848022,0,0,0.6879600286483765
1.206235172,0,0,1.702277421951294,0,0,1.2994799613952637
1.207234813,0,0,1.6615760326385498,0,0,1.1466000080108643
1.208234287,0,0,1.5849615335464478,0,0,1.1466000080108643
1.2092362620000001,0,0,1.6208745241165161,0,0,1.1466000080108643
1.210234996,0,0,1.5298948287963867,0,0,0.8408399820327759
1.2112351000000001,0,0,1.601720929145813,0,0,0.9937199950218201
1.212234759,0,0,1.6950948238372803,0,0,0.9937199950218201
1.2132359560000001,0,0,1.745373010635376,0,0,1.070159912109375
1.214235023,0,0,1.824381709098816,0,0,1.070159912109375
1.215234942,0,0,1.8626888990402222,0,0,1.1466000080108643
1.216235009,0,0,1.8195933103561401,0,0,1.070159912109375
1.217236872,0,0,1.9752163887023926,0,0,1.223039984703064
1.218234921,0,0,1.98958158493042,0,0,1.452359914779663
1.219234914,0,0,1.8555063009262085,0,0,1.223039984703064
1.220234703,0,0,1.8387469053268433,0,0,0.9172800183296204
1.221236011,0,0,1.6927006244659424,0,0,0.9937199950218201
1.222234837,0,0,1.6855180263519287,0,0,1.070159912109375
1.223235053,0,0,1.6376339197158813,0,0,0.9172800183296204
1.224234768,0,0,1.5538369417190552,0,0,0.7644000053405762
1.225235057,0,0,1.522712230682373,0,0,0.6879600286483765
1.22623468,0,0,1.525106430053711,0,0,0.4586400091648102
1.227234932,0,0,1.525106430053711,0,0,0.611519992351532
1.228235036,0,0,1.6328455209732056,0,0,0.6879600286483765
1.229236029,0,0,1.6352397203445435,0,0,1.070159912109375
1.230234578,0,0,1.6304513216018677,0,0,0.8408399820327759
1.231235052,0,0,1.6927006244659424,0,0,1.070159912109375
1.232234897,0,0,1.7357962131500244,0,0,1.605239987373352
1.2332361490000001,0,0,1.7764976024627686,0,0,1.223039984703064
1.234234939,0,0,1.9057846069335938,0,0,1.6816799640655518
1.235235006,0,0,2.030282974243164,0,0,1.452359914779663
1.236234795,0,0,2.027888774871826,0,0,1.223039984703064
1.237235899,0,0,1.9847931861877441,0,0,1.452359914779663
1.238234762,0,0,1.9823989868164063,0,0,0.9172800183296204
1.239312403,0,0,1.889025092124939,0,0,0.9172800183296204
1.240254896,0,0,1.800439715385437,0,0,1.223039984703064
1.241240464,0,0,1.5825673341751099,0,0,0.8408399820327759
1.242236179,0,0,1.4053963422775269,0,0,0.7644000053405762
1.243235783,0,0,1.4293384552001953,0,0,0.6879600286483765
1.24423535,0,0,1.4077905416488647,0,0,0.8408399820327759
1.245236324,0,0,1.4077905416488647,0,0,0.7644000053405762
1.24623528,0,0,1.3862427473068237,0,0,0.7644000053405762
1.247235329,0,0,1.45806884765625,0,0,0.5350799560546875
1.248235137,0,0,1.5322890281677246,0,0,0.6879600286483765
1.249236685,0,0,1.8291701078414917,0,0,0.9937199950218201
1.25023566,0,0,1.821987509727478,0,0,1.1466000080108643
1.251235264,0,0,1.9393033981323242,0,0,1.1466000080108643
1.25223522,0,0,1.9632453918457031,0,0,1.5288000106811523
1.253236268,0,0,1.7166426181793213,0,0,1.1466000080108643
1.254235095,0,0,1.6927006244659424,0,0,1.223039984703064
1.255235051,0,0,1.8555063009262085,0,0,0.9172800183296204
1.256236155,0,0,1.7693150043487549,0,0,0.9172800183296204
1.257238759,0,0,1.6831238269805908,0,0,1.070159912109375
1.258234937,0,0,1.699883222579956,0,0,0.4586400091648102
1.259234671,0,0,1.7741034030914307,0,0,0.9937199950218201
1.2602352190000001,0,0,1.7046716213226318,0,0,1.223039984703064
1.261235323,0,0,1.6065093278884888,0,0,0.6879600286483765
1.262234483,0,0,1.460463047027588,0,0,1.070159912109375
1.263234884,0,0,1.7046716213226318,0,0,0.8408399820327759
1.264235006,0,0,1.778891921043396,0,0,1.1466000080108643
1.265235592,0,0,1.702277421951294,0,0,1.1466000080108643
1.266235103,0,0,1.6663644313812256,0,0,1.223039984703064
1.2672350780000001,0,0,1.3048399686813354,0,0,0.9172800183296204
1.2682348110000001,0,0,1.3263877630233765,0,0,0.8408399820327759
1.269235101,0,0,1.3838485479354858,0,0,0.611519992351532
1.270234909,0,0,1.7094600200653076,0,0,0.6879600286483765
1.2712349569999999,0,0,1.900996208190918,0,0,0.9172800183296204
1.272234987,0,0,2.0254945755004883,0,0,1.452359914779663
1.273236536,0,0,1.9584569931030273,0,0,1.375920057296753
1.274234992,0,0,1.7501614093780518,0,0,1.2994799613952637
1.27523504,0,0,1.5298948287963867,0,0,0.9172800183296204
1.276234774,0,0,1.37906014919281,0,0,1.223039984703064
1.277236026,0,0,1.5682021379470825,0,0,0.6879600286483765
1.278234927,0,0,1.6615760326385498,0,0,0.7644000053405762
1.279234938,0,0,1.7597382068634033,0,0,1.1466000080108643
1.280234468,0,0,1.8363527059555054,0,0,1.1466000080108643
1.281236276,0,0,1.6927006244659424,0,0,1.070159912109375
1.282349194,0,0,1.4269442558288574,0,0,1.070159912109375
1.283249762,0,0,1.4077905416488647,0,0,0.5350799560546875
1.284235755,0,0,1.2952631711959839,0,0,1.070159912109375
1.285236007,0,0,1.4867992401123047,0,0,0.9937199950218201
1.2862355,0,0,2.0183119773864746,0,0,0.9172800183296204
1.2872352710000001,0,0,2.0853497982025146,0,0,1.8345600366592407
1.288235245,0,0,1.6974890232086182,0,0,1.6816799640655518
1.289235238,0,0,1.5610195398330688,0,0,1.5288000106811523
1.2902352129999999,0,0,1.5705963373184204,0,0,1.070159912109375
1.2912349650000001,0,0,1.821987509727478,0,0,1.375920057296753
1.292235014,0,0,1.8171991109848022,0,0,0.9937199950218201
1.293235359,0,0,2.0661959648132324,0,0,0.6879600286483765
1.294235166,0,0,2.123656988143921,0,0,1.223039984703064
1.295235178,0,0,1.987187385559082,0,0,1.070159912109375
1.296234967,0,0,2.0207061767578125,0,0,1.223039984703064
1.297235349,0,0,1.7693150043487549,0,0,1.1466000080108643
1.298242268,0,0,1.4389152526855469,0,0,0.5350799560546875
1.299240946,0,0,1.4460978507995605,0,0,1.2994799613952637
1.300235402,0,0,1.5298948287963867,0,0,0.6879600286483765
1.301271247,0,0,1.6328455209732056,0,0,0.9937199950218201
1.30224024,0,0,1.7334020137786865,0,0,1.223039984703064
1.3032355660000001,0,0,1.6974890232086182,0,0,0.7644000053405762
1.304235819,0,0,1.7717092037200928,0,0,1.452359914779663
1.30523783,0,0,1.8746598958969116,0,0,1.223039984703064
1.306234953,0,0,1.8363527059555054,0,0,1.2994799613952637
1.307235149,0,0,1.702277421951294,0,0,1.452359914779663
1.3082350680000001,0,0,1.7597382068634033,0,0,1.2994799613952637
1.309236395,0,0,1.7070658206939697,0,0,1.070159912109375
1.310235054,0,0,1.7310078144073486,0,0,0.9172800183296204
1.3112350099999999,0,0,1.599326729774475,0,0,1.070159912109375
1.3122351700000001,0,0,1.4700398445129395,0,0,1.2994799613952637
1.313235885,0,0,1.5275006294250488,0,0,0.9937199950218201
1.3142351190000001,0,0,1.5466543436050415,0,0,0.9937199950218201
1.315235167,0,0,1.6304513216018677,0,0,0.9172800183296204
1.31623516,0,0,1.5705963373184204,0,0,0.9172800183296204
1.317235839,0,0,1.6663644313812256,0,0,0.7644000053405762
1.318234943,0,0,1.7549498081207275,0,0,1.2994799613952637
1.319235065,0,0,1.8339585065841675,0,0,1.070159912109375
1.320234929,0,0,1.7908629179000854,0,0,1.2994799613952637
1.321236199,0,0,1.7525556087493896,0,0,1.452359914779663
1.322235118,0,0,1.941697597503662,0,0,1.2994799613952637
1.323234593,0,0,1.9847931861877441,0,0,1.1466000080108643
1.324235271,0,0,1.8602946996688843,0,0,1.6816799640655518
1.3252359679999999,0,0,1.8722656965255737,0,0,1.2994799613952637
1.326244738,0,0,1.824381709098816,0,0,1.223039984703064
1.327235269,0,0,1.800439715385437,0,0,1.1466000080108643
1.328235299,0,0,1.8076223134994507,0,0,0.5350799560546875
1.3292360140000001,0,0,1.8076223134994507,0,0,0.7644000053405762
1.33023484,0,0,1.7597382068634033,0,0,0.7644000053405762
1.331235037,0,0,1.6687586307525635,0,0,1.223039984703064
1.332234826,0,0,1.4437036514282227,0,0,1.1466000080108643
1.333236227,0,0,1.3958195447921753,0,0,0.6879600286483765
1.334234942,0,0,1.2856862545013428,0,0,0.8408399820327759
1.335235157,0,0,1.3431471586227417,0,0,1.1466000080108643
1.3362350570000001,0,0,1.5275006294250488,0,0,1.1466000080108643
1.337236069,0,0,1.6735470294952393,0,0,1.1466000080108643
1.338234951,0,0,1.721431016921997,0,0,1.2994799613952637
1.3392349989999999,0,0,2.0422539710998535,0,0,0.9937199950218201
1.340235048,0,0,2.054224967956543,0,0,1.375920057296753
1.341234467,0,0,2.0685901641845703,0,0,1.758120059967041
1.342232126,0,0,1.9943699836730957,0,0,1.452359914779663
1.343232286,0,0,1.8171991109848022,0,0,1.6816799640655518
1.344232261,0,0,1.9823989868164063,0,0,1.223039984703064
1.345239328,0,0,1.9776105880737305,0,0,1.1466000080108643
1.346235543,0,0,1.8339585065841675,0,0,0.8408399820327759
1.347235017,0,0,1.6974890232086182,0,0,0.5350799560546875
1.348234566,0,0,1.5729905366897583,0,0,0.6879600286483765
1.349236114,0,0,1.5083470344543457,0,0,0.6879600286483765
1.350235126,0,0,1.4245500564575195,0,0,0.305759996175766
1.351235063,0,0,1.4700398445129395,0,0,0.611519992351532
1.352235056,0,0,1.455674648284912,0,0,1.070159912109375
1.353236123,0,0,1.5298948287963867,0,0,1.223039984703064
1.354235172,0,0,1.4867992401123047,0,0,0.9172800183296204
1.355234998,0,0,1.580173134803772,0,0,1.375920057296753
1.356234899,0,0,1.6855180263519287,0,0,1.1466000080108643
1.357236318,0,0,1.8339585065841675,0,0,1.375920057296753
1.358235033,0,0,1.9823989868164063,0,0,1.2994799613952637
1.359235007,0,0,1.9919757843017578,0,0,1.070159912109375
1.360235037,0,0,1.8722656965255737,0,0,1.1466000080108643
1.361236049,0,0,1.8291701078414917,0,0,1.2994799613952637
1.362235172,0,0,1.7190368175506592,0,0,0.8408399820327759
1.363235239,0,0,1.7501614093780518,0,0,1.1466000080108643
1.364235009,0,0,1.8171991109848022,0,0,0.9937199950218201
1.365236169,0,0,1.7597382068634033,0,0,1.070159912109375
1.366235162,0,0,1.7501614093780518,0,0,1.223039984703064
1.367234951,0,0,1.742978811264038,0,0,1.223039984703064
1.3682349440000001,0,0,1.5107412338256836,0,0,1.2994799613952637
1.369235826,0,0,1.4652514457702637,0,0,0.9172800183296204
1.370234912,0,0,1.482010841369629,0,0,0.6879600286483765
1.371235053,0,0,1.5825673341751099,0,0,0.7644000053405762
1.3722351019999999,0,0,1.7764976024627686,0,0,0.7644000053405762
1.373236076,0,0,1.7836803197860718,0,0,0.9172800183296204
1.374234958,0,0,1.8339585065841675,0,0,1.375920057296753
1.375235025,0,0,1.9991583824157715,0,0,1.1466000080108643
1.3762357029999999,0,0,1.8986018896102905,0,0,1.605239987373352
1.377236344,0,0,1.8602946996688843,0,0,1.375920057296753
1.378234985,0,0,1.6831238269805908,0,0,1.375920057296753
1.379235108,0,0,1.5322890281677246,0,0,1.2994799613952637
1.380234953,0,0,1.4269442558288574,0,0,0.9172800183296204
1.38123489,0,0,1.479616641998291,0,0,0.611519992351532
1.382232402,0,0,1.6376339197158813,0,0,0.3822000026702881
1.383232413,0,0,1.8267759084701538,0,0,0.7644000053405762
1.384232536,0,0,1.920149803161621,0,0,1.1466000080108643
1.385236251,0,0,2.011129379272461,0,0,1.223039984703064
1.386235226,0,0,2.0446481704711914,0,0,1.605239987373352
1.387235071,0,0,1.7357962131500244,0,0,1.605239987373352
1.388234545,0,0,1.4772224426269531,0,0,1.375920057296753
1.389235982,0,0,1.460463047027588,0,0,1.223039984703064
1.390235124,0,0,1.5131354331970215,0,0,0.9172800183296204
1.391234894,0,0,1.6424223184585571,0,0,0.8408399820327759
1.39223461,0,0,1.8100165128707886,0,0,0.4586400091648102
1.393236177,0,0,1.968033790588379,0,0,1.070159912109375
1.394235096,0,0,1.9752163887023926,0,0,1.1466000080108643
1.395240163,0,0,1.9393033981323242,0,0,1.1466000080108643
1.3962349330000001,0,0,1.6950948238372803,0,0,1.070159912109375
1.397236297,0,0,1.5179238319396973,0,0,0.9172800183296204
1.398235308,0,0,1.37906014919281,0,0,0.6879600286483765
1.3992350230000001,0,0,1.1899182796478271,0,0,0.9172800183296204
1.400234979,0,0,1.3479355573654175,0,0,0.5350799560546875
1.401235398,0,0,1.6711528301239014,0,0,0.8408399820327759
1.402235002,0,0,1.8100165128707886,0,0,1.1466000080108643
1.403235033,0,0,2.027888774871826,0,0,1.452359914779663
1.404235322,0,0,1.9752163887023926,0,0,1.5288000106811523
1.405236407,0,0,1.7932571172714233,0,0,1.605239987373352
1.4062350860000001,0,0,1.7357962131500244,0,0,1.223039984703064
1.407235004,0,0,1.6639702320098877,0,0,1.070159912109375
1.408235201,0,0,1.8363527059555054,0,0,1.223039984703064
1.409237176,0,0,2.032677173614502,0,0,0.9172800183296204
1.410234946,0,0,2.2625205516815186,0,0,1.223039984703064
1.411235069,0,0,2.212242364883423,0,0,1.452359914779663
1.412234895,0,0,1.8171991109848022,0,0,1.2994799613952637
1.413235796,0,0,1.3718775510787964,0,0,1.1466000080108643
1.414234881,0,0,1.1444283723831177,0,0,0.8408399820327759
1.415235171,0,0,1.137245774269104,0,0,0.4586400091648102
1.416234923,0,0,1.4724340438842773,0,0,0.6879600286483765
1.417235842,0,0,1.9847931861877441,0,0,0.7644000053405762
1.418235094,0,0,2.0877439975738525,0,0,1.223039984703064
1.419235309,0,0,1.9608511924743652,0,0,1.758120059967041
1.420235154,0,0,1.7764976024627686,0,0,1.5288000106811523
1.421236221,0,0,1.4460978507995605,0,0,1.1466000080108643
1.422235122,0,0,1.4269442558288574,0,0,1.452359914779663
1.4232351699999999,0,0,1.5825673341751099,0,0,0.8408399820327759
1.424239274,0,0,1.8722656965255737,0,0,0.7644000053405762
1.425886689,0,0,1.8722656965255737,0,0,1.2994799613952637
1.426239131,0,0,1.824381709098816,0,0,0.7644000053405762
1.427235346,0,0,1.6615760326385498,0,0,0.9937199950218201
1.428236746,0,0,1.4508862495422363,0,0,0.9172800183296204
1.429239702,0,0,1.5298948287963867,0,0,0.4586400091648102
1.4302346400000001,0,0,1.8363527059555054,0,0,1.070159912109375
1.431234522,0,0,2.0422539710998535,0,0,1.605239987373352
1.432234681,0,0,1.9081788063049316,0,0,0.9937199950218201
1.433235508,0,0,1.7310078144073486,0,0,1.5288000106811523
1.434234612,0,0,1.6280571222305298,0,0,1.375920057296753
1.4352344750000001,0,0,1.5825673341751099,0,0,1.223039984703064
1.436234875,0,0,1.8555063009262085,0,0,1.070159912109375
1.437235461,0,0,2.188300371170044,0,0,1.070159912109375
1.438234491,0,0,2.0254945755004883,0,0,1.2994799613952637
1.439234391,0,0,1.9297266006469727,0,0,1.2994799613952637
1.440234329,0,0,1.7573440074920654,0,0,0.9937199950218201
1.441235396,0,0,1.5682021379470825,0,0,0.9937199950218201
1.442267444,0,0,1.7501614093780518,0,0,0.8408399820327759
1.443236715,0,0,1.944091796875,0,0,1.070159912109375
1.444234634,0,0,1.7764976024627686,0,0,1.1466000080108643
1.445237979,0,0,1.6424223184585571,0,0,1.2994799613952637
1.446234657,0,0,1.3335703611373901,0,0,1.1466000080108643
1.447234484,0,0,1.3431471586227417,0,0,0.611519992351532
1.448234699,0,0,1.434126853942871,0,0,0.4586400091648102
1.449235618,0,0,1.50355863571167,0,0,0.4586400091648102
1.450234629,0,0,1.5466543436050415,0,0,0.611519992351532
1.451234437,0,0,1.460463047027588,0,0,0.611519992351532
1.452234411,0,0,1.335964560508728,0,0,0.7644000053405762
1.453234942,0,0,1.5945383310317993,0,0,0.9172800183296204
1.45423399,0,0,1.8602946996688843,0,0,1.070159912109375
1.455233539,0,0,1.7381904125213623,0,0,1.2994799613952637
1.4562456240000001,0,0,1.6974890232086182,0,0,1.2994799613952637
1.457234728,0,0,1.6711528301239014,0,0,1.605239987373352
1.458242406,0,0,1.599326729774475,0,0,1.6816799640655518
1.459232381,0,0,1.9488801956176758,0,0,1.1466000080108643
1.460232263,0,0,2.118868589401245,0,0,1.375920057296753
1.461232978,0,0,2.0925323963165283,0,0,0.9172800183296204
1.4622321010000001,0,0,2.1547815799713135,0,0,1.070159912109375
1.463232168,0,0,1.946485996246338,0,0,1.452359914779663
1.464257661,0,0,2.0422539710998535,0,0,1.070159912109375
1.465312931,0,0,2.056619167327881,0,0,1.5288000106811523
1.466243813,0,0,1.7142484188079834,0,0,1.223039984703064
1.467233603,0,0,1.482010841369629,0,0,1.1466000080108643
1.468232151,0,0,1.3311761617660522,0,0,1.1466000080108643
1.469234033,0,0,1.4628572463989258,0,0,0.8408399820327759
1.470444099,0,0,1.400607943534851,0,0,0.7644000053405762
1.471238852,0,0,1.3455413579940796,0,0,0.2293200045824051
1.472233642,0,0,1.403002142906189,0,0,0.6879600286483765
1.473233727,0,0,1.2689268589019775,0,0,0.7644000053405762
1.474232239,0,0,1.5705963373184204,0,0,0.0764399990439415
1.475250491,0,0,2.070984363555908,0,0,1.9874399900436401
1.476233706,0,0,1.778891921043396,0,0,1.070159912109375
1.477233847,0,0,1.7956513166427612,0,0,1.2994799613952637
1.478232248,0,0,1.6400281190872192,0,0,2.3696401119232178
1.4792321849999999,0,0,1.6663644313812256,0,0,1.1466000080108643
1.480232049,0,0,1.98958158493042,0,0,1.758120059967041
1.481234931,0,0,1.8579005002975464,0,0,1.375920057296753
1.482232664,0,0,1.8171991109848022,0,0,0.611519992351532
1.483232102,0,0,2.2912509441375732,0,0,1.375920057296753
1.48423215,0,0,2.63362193107605,0,0,0.9172800183296204
1.485232291,0,0,2.6623523235321045,0,0,1.605239987373352
1.486232247,0,0,2.013523578643799,0,0,1.6816799640655518
1.48723224,0,0,1.6184803247451782,0,0,1.375920057296753
1.488232085,0,0,1.381454348564148,0,0,0.9172800183296204
1.489233338,0,0,1.3551181554794312,0,0,0.4586400091648102
1.490232386,0,0,1.1061211824417114,0,0,0.3822000026702881
1.491232157,0,0,0.9409212470054626,0,0,0.2293200045824051
1.492232187,0,0,0.7924807667732239,0,0,0.2293200045824051
1.493232661,0,0,1.05105459690094,0,0,0.0764399990439415
1.494232321,0,0,1.6496049165725708,0,0,0.9172800183296204
1.4952321290000001,0,0,1.867477297782898,0,0,1.2994799613952637
1.49623214,0,0,2.0183119773864746,0,0,1.758120059967041
1.497246485,0,0,1.7932571172714233,0,0,1.9874399900436401
1.498232571,0,0,1.9321208000183105,0,0,1.452359914779663
1.499232212,0,0,1.9632453918457031,0,0,1.9109998941421509
1.500231983,0,0,1.7118542194366455,0,0,1.223039984703064
1.501235494,0,0,2.03507137298584,0,0,1.375920057296753
1.5022343390000001,0,0,2.0470423698425293,0,0,0.6879600286483765
1.5032341470000001,0,0,2.3558945655822754,0,0,1.070159912109375
1.5042423249999999,0,0,2.365471363067627,0,0,2.06387996673584
1.505237299,0,0,2.1595699787139893,0,0,0.9937199950218201
1.50623483,0,0,1.9847931861877441,0,0,1.2994799613952637
1.507234304,0,0,1.6424223184585571,0,0,0.9937199950218201
1.5082349819999998,0,0,1.0989385843276978,0,0,-29.582279205322266
1.509236031,0,0,0.8858546018600464,0,0,0.2293200045824051
1.510234172,0,0,0.8140285611152649,0,0,-0.611519992351532
1.511234128,0,0,1.482010841369629,0,0,0.152879998087883
1.512553137,0,0,1.6759412288665771,0,0,0.611519992351532
1.513244577,0,0,1.6615760326385498,0,0,1.223039984703064
1.5142350329999998,0,0,1.6400281190872192,0,0,1.9874399900436401
1.515234785,0,0,1.5921441316604614,0,0,1.1466000080108643
1.516250426,0,0,1.5634137392044067,0,0,2.14031982421875
1.517238104,0,0,1.381454348564148,0,0,1.8345600366592407
1.518234949,0,0,1.6639702320098877,0,0,1.070159912109375
1.5192344979999999,0,0,2.094926595687866,0,0,0.9937199950218201
1.520234602,0,0,2.782062292098999,0,0,1.375920057296753
1.521236224,0,0,2.652775526046753,0,0,2.14031982421875
1.5222440879999999,0,0,2.43011474609375,0,0,1.605239987373352
1.523234988,0,0,2.250549554824829,0,0,1.758120059967041
1.524234315,0,0,1.335964560508728,0,0,1.2994799613952637
1.5252358259999999,0,0,0.727837324142456,0,0,0.5350799560546875
1.5262343189999998,0,0,0.4429273009300232,0,0,0.305759996175766
1.52723459,0,0,1.0103530883789063,0,0,-0.611519992351532
1.52823449,0,0,1.7549498081207275,0,0,0.305759996175766
1.529235613,0,0,2.1045033931732178,0,0,0.611519992351532
1.530234402,0,0,2.456450939178467,0,0,1.1466000080108643
1.531234506,0,0,2.2242133617401123,0,0,1.9109998941421509
1.532234296,0,0,1.8698714971542358,0,0,1.6816799640655518
1.533235659,0,0,1.1851298809051514,0,0,1.9109998941421509
1.534234541,0,0,1.2880805730819702,0,0,1.070159912109375
1.535234275,0,0,2.0231003761291504,0,0,1.1466000080108643
1.53623436,0,0,2.205059766769409,0,0,1.223039984703064
1.537245631,0,0,2.3558945655822754,0,0,0.7644000053405762
1.538308012,0,0,2.4851813316345215,0,0,0.9937199950218201
1.539287783,0,0,1.9967641830444336,0,0,1.2994799613952637
1.540264869,0,0,0.993593692779541,0,0,0.152879998087883
1.541276843,0,0,0.5578489899635315,0,0,0.3822000026702881
1.542236688,0,0,0.5003881454467773,0,0,9.402119636535645
1.543235293,0,0,1.3048399686813354,0,0,-0.3822000026702881
1.5442346740000001,0,0,1.5610195398330688,0,0,0.305759996175766
1.545234371,0,0,1.9081788063049316,0,0,1.2994799613952637
1.5462344940000001,0,0,2.011129379272461,0,0,1.9109998941421509
1.54723432,0,0,1.5610195398330688,0,0,2.06387996673584
1.5482344239999999,0,0,1.0271124839782715,0,0,2.14031982421875
1.549235047,0,0,1.4077905416488647,0,0,1.375920057296753
1.550234225,0,0,1.9512743949890137,0,0,1.375920057296753
1.551234459,0,0,2.427720546722412,0,0,1.9109998941421509
1.552234507,0,0,2.8419175148010254,0,0,0.6879600286483765
1.553234926,0,0,3.2585084438323975,0,0,1.223039984703064
1.5542343079999998,0,0,2.5929205417633057,0,0,1.758120059967041
1.555234394,0,0,1.400607943534851,0,0,0.7644000053405762
1.556234498,0,0,0.7110779285430908,0,0,0.152879998087883
1.557235806,0,0,0.8954314589500427,0,0,-0.2293200045824051
1.558234669,0,0,0.9097966551780701,0,0,0.0764399990439415
1.55923431,0,0,1.1204863786697388,0,0,0
1.560234525,0,0,1.778891921043396,0,0,0.2293200045824051
1.5612355,0,0,1.7549498081207275,0,0,1.375920057296753
1.562234622,0,0,1.2617442607879639,0,0,1.375920057296753
1.563234078,0,0,1.3838485479354858,0,0,1.223039984703064
1.5642343680000002,0,0,1.7094600200653076,0,0,1.9874399900436401
1.565235472,0,0,1.8794482946395874,0,0,1.8345600366592407
1.566233983,0,0,2.0853497982025146,0,0,1.2994799613952637
1.567234328,0,0,2.408566951751709,0,0,1.223039984703064
1.5682346919999999,0,0,2.2840683460235596,0,0,1.5288000106811523
1.5692358880000001,0,0,1.9081788063049316,0,0,1.375920057296753
1.5702345850000001,0,0,1.9273324012756348,0,0,0.6879600286483765
1.571234337,0,0,2.013523578643799,0,0,1.070159912109375
1.572234256,0,0,1.7860745191574097,0,0,0.7644000053405762
1.573235045,0,0,1.8722656965255737,0,0,0.611519992351532
1.574233872,0,0,1.745373010635376,0,0,1.070159912109375
1.575233994,0,0,1.2617442607879639,0,0,1.2994799613952637
1.576247339,0,0,1.1085153818130493,0,0,0.9937199950218201
1.577237628,0,0,1.359906554222107,0,0,0.9172800183296204
1.578234677,0,0,1.6065093278884888,0,0,0.9937199950218201
1.579234355,0,0,1.821987509727478,0,0,0.9937199950218201
1.580234089,0,0,2.032677173614502,0,0,0.9937199950218201
1.581235415,0,0,1.7741034030914307,0,0,1.223039984703064
1.5822342790000001,0,0,1.2761094570159912,0,0,0.9172800183296204
1.583234457,0,0,1.316810965538025,0,0,0.305759996175766
1.584234079,0,0,1.580173134803772,0,0,0.9172800183296204
1.585235535,0,0,1.6879122257232666,0,0,0.3822000026702881
1.586261769,0,0,2.1092917919158936,0,0,0.611519992351532
1.5872356509999999,0,0,2.099714994430542,0,0,1.452359914779663
1.588233977,0,0,1.41257905960083,0,0,1.375920057296753
1.589235489,0,0,1.2234370708465576,0,0,1.1466000080108643
1.590234334,0,0,1.659181833267212,0,0,1.9109998941421509
1.591234716,0,0,1.4915876388549805,0,0,1.375920057296753
1.592234468,0,0,1.5298948287963867,0,0,0.8408399820327759
1.593235516,0,0,2.1068975925445557,0,0,0.9172800183296204
1.594234509,0,0,1.8914192914962769,0,0,1.070159912109375
1.5952346689999999,0,0,1.6065093278884888,0,0,0.6879600286483765
1.596234366,0,0,1.8962076902389526,0,0,0.5350799560546875
1.5972446919999999,0,0,1.7956513166427612,0,0,0.9937199950218201
1.598845459,0,0,1.7956513166427612,0,0,0.7644000053405762
1.5992654370000001,0,0,2.0374655723571777,0,0,1.1466000080108643
1.60025743,0,0,1.623268723487854,0,0,2.2167599201202393
1.601240034,0,0,1.237802267074585,0,0,1.605239987373352
1.602245472,0,0,1.6711528301239014,0,0,1.6816799640655518
1.603235446,0,0,1.9249382019042969,0,0,2.2167599201202393
1.604234791,0,0,2.1092917919158936,0,0,1.452359914779663
1.6052358770000001,0,0,2.4444799423217773,0,0,0.7644000053405762
1.606234203,0,0,2.075772762298584,0,0,1.6816799640655518
1.607234678,0,0,1.3072341680526733,0,0,0.5350799560546875
1.608234708,0,0,1.4700398445129395,0,0,-0.5350799560546875
1.609235108,0,0,1.5610195398330688,0,0,0.3822000026702881
1.6102340640000001,0,0,1.6424223184585571,0,0,9.631440162658691
1.6112346130000001,0,0,1.9393033981323242,0,0,0.8408399820327759
1.612234569,0,0,1.41257905960083,0,0,1.5288000106811523
1.6132356909999999,0,0,0.9720458984375,0,0,0.8408399820327759
1.61423448,0,0,1.1803414821624756,0,0,1.223039984703064
1.6152346400000002,0,0,1.3215993642807007,0,0,2.14031982421875
1.6162344480000002,0,0,1.4053963422775269,0,0,0.9172800183296204
1.617235719,0,0,1.800439715385437,0,0,0.9172800183296204
1.6182344149999999,0,0,1.7070658206939697,0,0,1.5288000106811523
1.619234557,0,0,1.5322890281677246,0,0,0.5350799560546875
1.620234661,0,0,2.0661959648132324,0,0,0.6879600286483765
1.621235931,0,0,2.1954829692840576,0,0,1.605239987373352
1.622234369,0,0,2.3080103397369385,0,0,0.2293200045824051
1.623234621,0,0,2.719813108444214,0,0,1.6816799640655518
1.624234559,0,0,2.049436569213867,0,0,2.522519826889038
1.625235774,0,0,1.4748282432556152,0,0,1.6816799640655518
1.62623447,0,0,1.8339585065841675,0,0,1.9109998941421509
1.6272345750000001,0,0,1.5131354331970215,0,0,2.446079969406128
1.628234253,0,0,1.6112977266311646,0,0,0.3822000026702881
1.629235783,0,0,1.9823989868164063,0,0,1.605239987373352
1.630234368,0,0,1.1085153818130493,0,0,1.070159912109375
1.631234158,0,0,1.4844050407409668,0,0,-0.6879600286483765
1.63223428,0,0,1.8100165128707886,0,0,0.9172800183296204
1.6332355139999999,0,0,1.9153614044189453,0,0,-0.152879998087883
1.634234433,0,0,2.2840683460235596,0,0,0.6879600286483765
1.635234611,0,0,1.8339585065841675,0,0,2.446079969406128
1.636234419,0,0,1.213860273361206,0,0,1.070159912109375
1.6372357819999999,0,0,1.237802267074585,0,0,1.223039984703064
1.638234423,0,0,1.1109095811843872,0,0,2.2932000160217285
1.6392346020000002,0,0,0.9528923034667969,0,0,0.5350799560546875
1.6402344279999999,0,0,1.4053963422775269,0,0,1.1466000080108643
1.641235773,0,0,1.0462661981582642,0,0,0.6879600286483765
1.6422344880000002,0,0,1.8124107122421265,0,0,-0.305759996175766
1.643234555,0,0,1.8483237028121948,0,0,0.3822000026702881
1.644234548,0,0,2.3774423599243164,0,0,0.0764399990439415
1.645235448,0,0,3.069366693496704,0,0,1.375920057296753
1.6462346270000001,0,0,2.094926595687866,0,0,2.751840114593506
1.647234342,0,0,1.8411411046981812,0,0,1.605239987373352
1.648234409,0,0,1.501164436340332,0,0,2.6754000186920166
1.64923518,0,0,0.8667010068893433,0,0,1.9874399900436401
1.650249136,0,0,1.4844050407409668,0,0,1.223039984703064
1.65123511,0,0,1.3958195447921753,0,0,1.605239987373352
1.6522342509999999,0,0,1.4269442558288574,0,0,-0.3822000026702881
1.6532346329999998,0,0,2.1045033931732178,0,0,0.305759996175766
1.654234034,0,0,2.0805611610412598,0,0,0.4586400091648102
1.6552341560000001,0,0,2.9041666984558105,0,0,0.9937199950218201
1.6565553689999999,0,0,2.8658595085144043,0,0,2.5989599227905273
1.657233013,0,0,1.6424223184585571,0,0,1.5288000106811523
1.658232506,0,0,1.6759412288665771,0,0,1.9109998941421509
1.659232443,0,0,1.1516109704971313,0,0,2.751840114593506
1.660232436,0,0,1.0630255937576294,0,0,0.305759996175766
1.661232836,0,0,1.3407529592514038,0,0,1.6816799640655518
1.6622322550000002,0,0,0.5722141861915588,0,0,0.7644000053405762
1.663232211,0,0,1.0582371950149536,0,0,-0.4586400091648102
1.66423226,0,0,1.2306196689605713,0,0,0.5350799560546875
1.665232975,0,0,1.7741034030914307,0,0,-1.9109998941421509
1.666231987,0,0,3.268085241317749,0,0,1.223039984703064
1.667240998,0,0,2.4588451385498047,0,0,2.3696401119232178
1.668232639,0,0,2.1380221843719482,0,0,1.2994799613952637
1.669234854,0,0,1.577778935432434,0,0,3.6691200733184814
1.67023407,0,0,0.7326257228851318,0,0,1.9109998941421509
1.671248563,0,0,1.292868971824646,0,0,1.2994799613952637
1.672235389,0,0,0.6584054827690125,0,0,2.06387996673584
1.6732353450000002,0,0,1.0654197931289673,0,0,-1.1466000080108643
1.674233431,0,0,2.2218191623687744,0,0,-0.5350799560546875
1.676005474,0,0,2.2218191623687744,0,0,9.249239921569824
1.676188528,0,0,3.667917013168335,0,0,0.9172800183296204
1.6772776870000001,0,0,2.832340717315674,0,0,2.5989599227905273
1.6782382729999998,0,0,2.279279947280884,0,0,0.6879600286483765
1.679217377,0,0,1.9153614044189453,0,0,3.8219997882843018
1.6802359249999999,0,0,0.9888052940368652,0,0,1.6816799640655518
1.68123903,0,0,1.599326729774475,0,0,0.611519992351532
1.682234782,0,0,1.41257905960083,0,0,2.446079969406128
1.68323459,0,0,1.3742717504501343,0,0,-0.9172800183296204
1.684234601,0,0,1.2425906658172607,0,0,1.1466000080108643
1.68523602,0,0,1.5634137392044067,0,0,-1.5288000106811523
1.686234735,0,0,2.4612393379211426,0,0,0.305759996175766
1.687234654,0,0,2.0685901641845703,0,0,1.2994799613952637
1.6882342769999998,0,0,1.9129672050476074,0,0,-0.305759996175766
1.689235899,0,0,1.5658079385757446,0,0,2.522519826889038
1.690234726,0,0,1.1444283723831177,0,0,0.611519992351532
1.691234534,0,0,0.9576807022094727,0,0,1.375920057296753
1.69223399,0,0,0.5650315880775452,0,0,1.452359914779663
1.6932356309999999,0,0,0.4812345504760742,0,0,9.325679779052734
1.6942344390000001,0,0,0.4141969084739685,0,0,1.070159912109375
1.695239283,0,0,1.9752163887023926,0,0,-1.2994799613952637
1.696234091,0,0,2.7940332889556885,0,0,1.8345600366592407
1.697236029,0,0,2.875436305999756,0,0,1.070159912109375
1.698234522,0,0,2.829946517944336,0,0,1.605239987373352
1.6992348480000001,0,0,1.9512743949890137,0,0,2.904719829559326
1.7002346739999998,0,0,1.9105730056762695,0,0,1.223039984703064
1.701235723,0,0,0.569819986820221,0,0,2.14031982421875
1.702234679,0,0,0.4596867263317108,0,0,0.2293200045824051
1.703234524,0,0,0.7422025203704834,0,0,0.0764399990439415
1.704234609,0,0,0.9193734526634216,0,0,-0.152879998087883
1.705235787,0,0,2.3367409706115723,0,0,-0.9172800183296204
1.706234669,0,0,2.0470423698425293,0,0,1.9109998941421509
1.707234403,0,0,2.2218191623687744,0,0,0
1.7082344699999998,0,0,1.9776105880737305,0,0,2.446079969406128
1.7092351300000002,0,0,1.3072341680526733,0,0,1.1466000080108643
1.710234549,0,0,1.2665326595306396,0,0,1.070159912109375
1.7112345599999998,0,0,0.33039984107017517,0,0,0.6879600286483765
1.712234461,0,0,0.6584054827690125,0,0,-0.8408399820327759
1.713235842,0,0,0.49799394607543945,0,0,0.4586400091648102
1.714251891,0,0,1.7142484188079834,0,0,-1.605239987373352
1.715235866,0,0,2.6001031398773193,0,0,0.5350799560546875
1.716234488,0,0,2.1739351749420166,0,0,1.9874399900436401
1.717235166,0,0,2.346317768096924,0,0,1.375920057296753
1.7182342149999998,0,0,1.357512354850769,0,0,2.904719829559326
1.7192345599999999,0,0,1.036689281463623,0,0,0.8408399820327759
1.720234719,0,0,0.5267243981361389,0,0,1.758120059967041
1.721235805,0,0,0.5315127968788147,0,0,0
1.7222345570000002,0,0,1.0749965906143188,0,0,0
1.723234624,0,0,1.381454348564148,0,0,0.152879998087883
1.7242343949999999,0,0,2.978386878967285,0,0,-0.611519992351532
1.7252356290000002,0,0,3.043030261993408,0,0,2.446079969406128
1.7262344920000001,0,0,2.4588451385498047,0,0,1.605239987373352
1.727234319,0,0,2.121262788772583,0,0,2.3696401119232178
1.728234478,0,0,1.0558429956436157,0,0,1.9109998941421509
1.729235471,0,0,1.1851298809051514,0,0,0.4586400091648102
1.730234483,0,0,0.5722141861915588,0,0,0.7644000053405762
1.731234309,0,0,1.0965443849563599,0,0,-0.8408399820327759
1.7322345430000001,0,0,0.6488286852836609,0,0,0.305759996175766
1.733235665,0,0,1.8698714971542358,0,0,-0.8408399820327759
1.734234566,0,0,2.3989901542663574,0,0,0.2293200045824051
1.7352340960000001,0,0,2.3558945655822754,0,0,2.14031982421875
1.736234533,0,0,1.8363527059555054,0,0,0.3822000026702881
1.737235397,0,0,1.3742717504501343,0,0,2.2932000160217285
1.7382343900000001,0,0,0.9433154463768005,0,0,0.9172800183296204
1.7392339570000002,0,0,0.8140285611152649,0,0,0.7644000053405762
1.740234579,0,0,0.7015010714530945,0,0,0.2293200045824051
1.741235554,0,0,1.091755986213684,0,0,0
1.742234399,0,0,1.1540051698684692,0,0,0.9937199950218201
1.743234632,0,0,2.2912509441375732,0,0,-0.611519992351532
1.744234477,0,0,2.5785553455352783,0,0,2.14031982421875
1.7452357109999999,0,0,1.922544002532959,0,0,1.223039984703064
1.74623463,0,0,1.9704279899597168,0,0,1.1466000080108643
1.747234827,0,0,1.1492167711257935,0,0,2.5989599227905273
1.748234431,0,0,1.2832920551300049,0,0,0
1.749235905,0,0,0.6799532771110535,0,0,1.605239987373352
1.750234546,0,0,1.0319008827209473,0,0,0
1.751234613,0,0,1.2617442607879639,0,0,0.7644000053405762
1.7522343839999999,0,0,2.0015525817871094,0,0,0.0764399990439415
1.753235377,0,0,3.3925838470458984,0,0,0.3822000026702881
1.754234463,0,0,2.456450939178467,0,0,2.522519826889038
1.755234419,0,0,2.0853497982025146,0,0,0.7644000053405762
1.7562346340000001,0,0,1.1061211824417114,0,0,1.8345600366592407
1.7572351080000002,0,0,0.3687070608139038,0,0,0.8408399820327759
1.758234472,0,0,0.24660277366638184,0,0,-29.888038635253906
1.759234502,0,0,-0.11252748221158981,0,0,0.152879998087883
1.7602343280000001,0,0,0.4596867263317108,0,0,-1.452359914779663
1.761235025,0,0,0.6943184733390808,0,0,0
1.7622346100000001,0,0,1.8722656965255737,0,0,-1.2994799613952637
1.763234603,0,0,2.516305923461914,0,0,1.070159912109375
1.764234411,0,0,1.721431016921997,0,0,2.2932000160217285
1.765235515,0,0,1.4915876388549805,0,0,0.611519992351532
1.766234582,0,0,0.8259995579719543,0,0,3.0576000213623047
1.7672344089999998,0,0,0.5841852426528931,0,0,0.611519992351532
1.768234402,0,0,0.8212111592292786,0,0,0.5350799560546875
1.769235284,0,0,0.6919242739677429,0,0,0.9937199950218201
1.77023448,0,0,1.2737152576446533,0,0,-0.7644000053405762
1.7712346399999999,0,0,1.3096283674240112,0,0,0.9937199950218201
1.772234392,0,0,2.604891538619995,0,0,-0.6879600286483765
1.77323557,0,0,2.892195701599121,0,0,2.2167599201202393
1.774234415,0,0,1.9488801956176758,0,0,1.6816799640655518
1.775236779,0,0,1.8076223134994507,0,0,0.305759996175766
1.776236401,0,0,1.0295066833496094,0,0,2.828279972076416
1.7772359500000001,0,0,0.6177040338516235,0,0,0.0764399990439415
1.778244535,0,0,0.828393816947937,0,0,0.2293200045824051
1.779234991,0,0,0.48602294921875,0,0,0.611519992351532
1.7802343729999999,0,0,0.7613561153411865,0,0,-1.605239987373352
1.781235514,0,0,0.6320692300796509,0,0,0.5350799560546875
1.782234063,0,0,1.5179238319396973,0,0,-1.758120059967041
1.783234537,0,0,2.497152328491211,0,0,1.375920057296753
1.7842344190000001,0,0,1.5705963373184204,0,0,1.605239987373352
1.7852357269999999,0,0,1.5658079385757446,0,0,0.0764399990439415
1.786234387,0,0,1.1420341730117798,0,0,3.516240119934082
1.787234546,0,0,0.40462008118629456,0,0,0.305759996175766
1.78823428,0,0,0.9672574996948242,0,0,0.0764399990439415
1.789235495,0,0,0.6727706789970398,0,0,1.9109998941421509
1.790234562,0,0,0.8523358106613159,0,0,-1.5288000106811523
1.791234444,0,0,1.2066776752471924,0,0,0.611519992351532
1.792234585,0,0,1.6304513216018677,0,0,-30.19379997253418
1.793235301,0,0,2.7940332889556885,0,0,0.4586400091648102
1.794234405,0,0,2.3247697353363037,0,0,2.9811599254608154
1.795234416,0,0,1.2952631711959839,0,0,0.305759996175766
1.796234594,0,0,1.2210428714752197,0,0,2.2167599201202393
1.797235439,0,0,0.5410895943641663,0,0,1.9109998941421509
1.798234432,0,0,0.6703764796257019,0,0,-0.4586400091648102
1.799234444,0,0,1.1276689767837524,0,0,1.1466000080108643
1.8002340289999998,0,0,0.9193734526634216,0,0,9.478560447692871
1.8012356330000001,0,0,1.5897499322891235,0,0,-0.7644000053405762
1.802235941,0,0,1.4628572463989258,0,0,0.8408399820327759
1.803234342,0,0,1.8626888990402222,0,0,0
1.8042340380000002,0,0,2.250549554824829,0,0,1.452359914779663
1.805235457,0,0,1.4460978507995605,0,0,1.9109998941421509
1.806234673,0,0,1.292868971824646,0,0,1.223039984703064
1.807234647,0,0,1.3742717504501343,0,0,1.6816799640655518
1.808234455,0,0,0.8068459630012512,0,0,1.5288000106811523
1.8092350769999999,0,0,1.2832920551300049,0,0,0.2293200045824051
1.810234552,0,0,0.9026140570640564,0,0,0.3822000026702881
1.811234638,0,0,0.6392518281936646,0,0,-0.2293200045824051
1.812234353,0,0,1.0558429956436157,0,0,-1.1466000080108643
1.8132346419999998,0,0,1.0678139925003052,0,0,9.325679779052734
1.8142346169999999,0,0,1.7573440074920654,0,0,0
1.815234647,0,0,1.922544002532959,0,0,0.5350799560546875
1.8162345279999998,0,0,1.216254472732544,0,0,1.758120059967041
1.817235725,0,0,0.8236053586006165,0,0,1.8345600366592407
1.818234737,0,0,0.9672574996948242,0,0,0.6879600286483765
1.819234674,0,0,0.730231523513794,0,0,1.9109998941421509
1.820234371,0,0,1.0342950820922852,0,0,0.6879600286483765
1.82123479,0,0,1.3694833517074585,0,0,-0.0764399990439415
1.822234135,0,0,1.522712230682373,0,0,0.4586400091648102
1.823234628,0,0,1.6328455209732056,0,0,-0.305759996175766
1.824234343,0,0,1.5322890281677246,0,0,0
1.8252354469999998,0,0,1.623268723487854,0,0,1.223039984703064
1.826233958,0,0,1.9800047874450684,0,0,0
1.827234581,0,0,1.9297266006469727,0,0,1.8345600366592407
1.828234667,0,0,1.048660397529602,0,0,2.522519826889038
1.829235363,0,0,0.9217676520347595,0,0,0.5350799560546875
1.8302343749999999,0,0,0.9481038451194763,0,0,1.223039984703064
1.831234331,0,0,0.8188169598579407,0,0,1.1466000080108643
1.832234583,0,0,1.4676456451416016,0,0,-0.8408399820327759
1.833235539,0,0,1.8938134908676147,0,0,0.2293200045824051
1.834234365,0,0,1.6160861253738403,0,0,0.8408399820327759
1.8352343580000001,0,0,1.2856862545013428,0,0,-0.6879600286483765
1.836234611,0,0,1.414973258972168,0,0,0.7644000053405762
1.837235437,0,0,1.290474772453308,0,0,0.611519992351532
1.838242522,0,0,1.2761094570159912,0,0,-0.3822000026702881
1.839235515,0,0,1.0989385843276978,0,0,1.5288000106811523
1.840234305,0,0,0.5985504388809204,0,0,1.605239987373352
1.841235613,0,0,0.7182605266571045,0,0,-0.152879998087883
1.8422407349999999,0,0,1.0869675874710083,0,0,1.070159912109375
1.8432346910000001,0,0,1.292868971824646,0,0,1.1466000080108643
1.844234647,0,0,1.6927006244659424,0,0,-0.4586400091648102
1.845235473,0,0,2.0015525817871094,0,0,1.223039984703064
1.8462342999999999,0,0,1.3479355573654175,0,0,0.3822000026702881
1.847234145,0,0,0.9959878921508789,0,0,0
1.848234471,0,0,1.314416766166687,0,0,0.8408399820327759
1.849235686,0,0,1.2425906658172607,0,0,0.5350799560546875
1.850234698,0,0,1.4628572463989258,0,0,0.152879998087883
1.851234524,0,0,1.6208745241165161,0,0,1.1466000080108643
1.852234554,0,0,1.1061211824417114,0,0,1.2994799613952637
1.853235566,0,0,1.0055646896362305,0,0,0.611519992351532
1.8542343730000002,0,0,1.338358759880066,0,0,0.7644000053405762
1.855234422,0,0,1.357512354850769,0,0,1.1466000080108643
1.856234637,0,0,1.4413094520568848,0,0,0.7644000053405762
1.857248667,0,0,1.7908629179000854,0,0,0.8408399820327759
1.858234605,0,0,1.45806884765625,0,0,1.070159912109375
1.8592324310000001,0,0,1.0438719987869263,0,0,0.6879600286483765
1.860232294,0,0,1.194706678390503,0,0,0
1.861233806,0,0,1.6376339197158813,0,0,0.305759996175766
1.862232336,0,0,1.580173134803772,0,0,0.2293200045824051
1.863232162,0,0,1.4987702369689941,0,0,0.4586400091648102
1.8642321370000001,0,0,1.2090718746185303,0,0,1.070159912109375
1.8652322959999998,0,0,0.8140285611152649,0,0,0.9937199950218201
1.8662320860000001,0,0,0.8619126081466675,0,0,0.7644000053405762
1.867232282,0,0,1.3934253454208374,0,0,0.2293200045824051
1.868231498,0,0,1.580173134803772,0,0,0.8408399820327759
1.869233102,0,0,1.4987702369689941,0,0,0.6879600286483765
1.87023215,0,0,1.6950948238372803,0,0,0.305759996175766
1.871232051,0,0,1.5131354331970215,0,0,0.7644000053405762
1.8722320620000001,0,0,0.7541735172271729,0,0,0.305759996175766
1.873236074,0,0,0.33997663855552673,0,0,0.0764399990439415
1.874234826,0,0,0.7852981686592102,0,0,-1.070159912109375
1.8752347999999999,0,0,1.2880805730819702,0,0,0
1.8762349600000001,0,0,1.7286136150360107,0,0,0.3822000026702881
1.8772358420000002,0,0,1.9536685943603516,0,0,0.5350799560546875
1.878234798,0,0,1.455674648284912,0,0,2.06387996673584
1.8792349019999999,0,0,0.629675030708313,0,0,1.605239987373352
1.880234673,0,0,0.6416460275650024,0,0,1.375920057296753
1.881235814,0,0,1.2258312702178955,0,0,0.9172800183296204
1.882234751,0,0,1.6759412288665771,0,0,1.070159912109375
1.883234892,0,0,2.0853497982025146,0,0,1.070159912109375
1.8842347369999999,0,0,2.451662540435791,0,0,0.305759996175766
1.88523499,0,0,1.9321208000183105,0,0,1.2994799613952637
1.8862347050000001,0,0,1.2425906658172607,0,0,0.6879600286483765
1.88723442,0,0,0.8044517636299133,0,0,0.0764399990439415
1.8882347830000001,0,0,1.1013327836990356,0,0,-0.5350799560546875
1.889235165,0,0,1.137245774269104,0,0,0.152879998087883
1.890234288,0,0,1.314416766166687,0,0,0.0764399990439415
1.891234818,0,0,1.1683704853057861,0,0,0.152879998087883
1.892234848,0,0,0.9433154463768005,0,0,1.1466000080108643
1.893235896,0,0,0.5793967843055725,0,0,0.9172800183296204
1.8942348340000001,0,0,0.768538773059845,0,0,0.6879600286483765
1.895234679,0,0,1.4101848602294922,0,0,0.9172800183296204
1.896234616,0,0,1.7980455160140991,0,0,0.7644000053405762
1.897234424,0,0,2.027888774871826,0,0,1.223039984703064
1.898232232,0,0,2.5043349266052246,0,0,0.8408399820327759
1.89923204,0,0,1.968033790588379,0,0,1.2994799613952637
1.9002319029999999,0,0,1.1851298809051514,0,0,0.7644000053405762
1.901235563,0,0,0.36152446269989014,0,0,0.305759996175766
1.9022343149999998,0,0,0.5003881454467773,0,0,-0.4586400091648102
1.9032344,0,0,1.3694833517074585,0,0,-0.3822000026702881
1.9042343750000001,0,0,1.5442601442337036,0,0,0
1.905235479,0,0,1.5275006294250488,0,0,0.3822000026702881
1.9062441940000001,0,0,1.3934253454208374,0,0,0.7644000053405762
1.907235021,0,0,0.5027823448181152,0,0,1.758120059967041
1.908233828,0,0,0.43095630407333374,0,0,1.2994799613952637
1.909235599,0,0,0.8092401623725891,0,0,0.9172800183296204
1.9102342399999999,0,0,1.6687586307525635,0,0,0.152879998087883
1.911234307,0,0,2.056619167327881,0,0,1.375920057296753
1.912233745,0,0,2.6839001178741455,0,0,1.070159912109375
1.91323546,0,0,2.762908697128296,0,0,0.9937199950218201
1.914234398,0,0,2.142810583114624,0,0,1.8345600366592407
1.915234335,0,0,1.237802267074585,0,0,1.223039984703064
1.916234476,0,0,-0.009576806798577309,0,0,1.1466000080108643
1.9172353210000002,0,0,-0.035913024097681046,0,0,0.0764399990439415
1.918234166,0,0,0.8044517636299133,0,0,-1.1466000080108643
1.9192344000000001,0,0,1.2018892765045166,0,0,-0.611519992351532
1.9202343179999999,0,0,1.7621324062347412,0,0,-0.152879998087883
1.9212354230000002,0,0,1.5897499322891235,0,0,0.4586400091648102
1.92223436,0,0,1.2066776752471924,0,0,1.070159912109375
1.923234409,0,0,0.730231523513794,0,0,1.1466000080108643
1.924234531,0,0,0.33997663855552673,0,0,1.1466000080108643
1.92523508,0,0,1.5897499322891235,0,0,0.7644000053405762
1.92706216,0,0,1.5897499322891235,0,0,1.223039984703064
1.9272408250000002,0,0,2.0470423698425293,0,0,1.070159912109375
1.928272873,0,0,1.9393033981323242,0,0,1.6816799640655518
1.9292441070000002,0,0,2.425326347351074,0,0,1.375920057296753
1.930235674,0,0,1.9321208000183105,0,0,1.5288000106811523
1.931234927,0,0,1.091755986213684,0,0,1.375920057296753
1.932234549,0,0,0.8619126081466675,0,0,0.3822000026702881
1.933235727,0,0,0.2849099934101105,0,0,0.0764399990439415
1.93423422,0,0,1.5059528350830078,0,0,-0.9172800183296204
1.9352344910000001,0,0,1.659181833267212,0,0,0
1.9362344660000002,0,0,1.6831238269805908,0,0,0.3822000026702881
1.9372353850000001,0,0,1.3623007535934448,0,0,0.8408399820327759
1.938234266,0,0,0.6751648783683777,0,0,1.2994799613952637
1.939234167,0,0,0.7781155705451965,0,0,0.9172800183296204
1.9402347149999999,0,0,0.3232172429561615,0,0,0.8408399820327759
1.941235431,0,0,0.8068459630012512,0,0,0.2293200045824051
1.94223435,0,0,1.479616641998291,0,0,0.4586400091648102
1.9432342500000002,0,0,2.094926595687866,0,0,0.0764399990439415
1.944234502,0,0,2.4660277366638184,0,0,1.1466000080108643
1.945235254,0,0,2.451662540435791,0,0,1.8345600366592407
1.9462345989999998,0,0,1.845929503440857,0,0,1.758120059967041
1.947234352,0,0,1.3263877630233765,0,0,1.2994799613952637
1.9482343819999999,0,0,0.9361328482627869,0,0,0.9172800183296204
1.949236486,0,0,0.4357447028160095,0,0,0.152879998087883
1.9502342559999999,0,0,0.33279404044151306,0,0,0
1.951233805,0,0,0.5674257874488831,0,0,-0.305759996175766
1.952234335,0,0,1.4245500564575195,0,0,-0.9937199950218201
1.953235254,0,0,1.3694833517074585,0,0,0.305759996175766
1.9542343770000001,0,0,1.4748282432556152,0,0,0.9172800183296204
1.955233721,0,0,1.048660397529602,0,0,1.1466000080108643
1.956234381,0,0,0.689530074596405,0,0,0.611519992351532
1.957235355,0,0,1.2856862545013428,0,0,0.9937199950218201
1.958233978,0,0,0.8954314589500427,0,0,1.2994799613952637
1.959234119,0,0,1.3407529592514038,0,0,1.070159912109375
1.960624535,0,0,1.659181833267212,0,0,1.5288000106811523
1.96127066,0,0,1.778891921043396,0,0,0.7644000053405762
1.962236709,0,0,2.2577321529388428,0,0,1.452359914779663
1.963235036,0,0,2.183511972427368,0,0,1.605239987373352
1.964234714,0,0,1.9512743949890137,0,0,1.452359914779663
1.965235836,0,0,1.8076223134994507,0,0,1.223039984703064
1.96623594,0,0,1.3646949529647827,0,0,0.4586400091648102
1.967235211,0,0,0.9792284965515137,0,0,0.2293200045824051
1.9682351489999999,0,0,0.9026140570640564,0,0,0
1.969236919,0,0,0.4429273009300232,0,0,0
1.97025256,0,0,0.47644615173339844,0,0,0.2293200045824051
1.971236165,0,0,1.0845733880996704,0,0,-0.5350799560546875
1.972234935,0,0,1.1994950771331787,0,0,0.6879600286483765
1.973235169,0,0,1.3742717504501343,0,0,0.9937199950218201
1.9742345879999998,0,0,1.1252747774124146,0,0,0.9937199950218201
1.975234785,0,0,0.8523358106613159,0,0,1.8345600366592407
1.976238481,0,0,1.213860273361206,0,0,0.4586400091648102
1.9772363450000001,0,0,1.2425906658172607,0,0,1.1466000080108643
1.97823543,0,0,1.3096283674240112,0,0,0.9172800183296204
1.979235201,0,0,1.8148049116134644,0,0,0.6879600286483765
1.980234694,0,0,1.7094600200653076,0,0,0.9172800183296204
1.9812358350000001,0,0,2.03507137298584,0,0,0.7644000053405762
1.9822342910000001,0,0,1.987187385559082,0,0,1.375920057296753
1.98323471,0,0,1.4317326545715332,0,0,1.758120059967041
1.9842350180000001,0,0,1.2090718746185303,0,0,1.223039984703064
1.985234844,0,0,0.8236053586006165,0,0,1.223039984703064
1.986234374,0,0,1.0414776802062988,0,0,0
1.987234793,0,0,1.3479355573654175,0,0,0.6879600286483765
1.9882349160000001,0,0,1.1204863786697388,0,0,0
1.989236094,0,0,1.0127472877502441,0,0,-0.2293200045824051
1.990234809,0,0,0.7924807667732239,0,0,0.7644000053405762
1.9912346730000001,0,0,0.7254431247711182,0,0,0
1.992234721,0,0,1.235408067703247,0,0,0
1.993236121,0,0,1.4460978507995605,0,0,1.1466000080108643
1.994234855,0,0,1.3407529592514038,0,0,0.9172800183296204
1.995253237,0,0,1.237802267074585,0,0,1.1466000080108643
1.996236656,0,0,0.8259995579719543,0,0,1.375920057296753
1.997236834,0,0,1.015141487121582,0,0,1.1466000080108643
1.998234753,0,0,1.5418659448623657,0,0,0.7644000053405762
1.999234894,0,0,1.7357962131500244,0,0,0.9172800183296204
2.000234683,0,0,1.8124107122421265,0,0,0.8408399820327759
2.001235288,0,0,1.8770540952682495,0,0,0.9172800183296204
2.002234429,0,0,1.5682021379470825,0,0,1.070159912109375
2.003233792,0,0,1.436521053314209,0,0,1.070159912109375
2.004267174,0,0,1.4772224426269531,0,0,0.8408399820327759
2.005236185,0,0,1.381454348564148,0,0,1.1466000080108643
2.006235252,0,0,1.1875240802764893,0,0,0.8408399820327759
2.007234468,0,0,1.0773907899856567,0,0,0.611519992351532
2.008234979,0,0,1.170764684677124,0,0,0.611519992351532
2.009236435,0,0,1.2689268589019775,0,0,0.611519992351532
2.010234854,0,0,1.3862427473068237,0,0,0.7644000053405762
2.011235032,0,0,1.3431471586227417,0,0,0.4586400091648102
2.012234896,0,0,1.3048399686813354,0,0,0.3822000026702881
2.013236055,0,0,0.9888052940368652,0,0,0.4586400091648102
2.014234752,0,0,0.8451532125473022,0,0,0
2.015235041,0,0,1.039083480834961,0,0,0.2293200045824051
2.016234793,0,0,1.2761094570159912,0,0,0.305759996175766
2.017236972,0,0,1.5466543436050415,0,0,0.7644000053405762
2.018234946,0,0,1.3192051649093628,0,0,0.9172800183296204
2.019234735,0,0,1.2258312702178955,0,0,0.8408399820327759
2.020234951,0,0,1.0558429956436157,0,0,1.375920057296753
2.021236184,0,0,0.8092401623725891,0,0,1.070159912109375
2.022234955,0,0,1.158793568611145,0,0,0
2.023235096,0,0,1.644816517829895,0,0,0.611519992351532
2.024234867,0,0,1.9967641830444336,0,0,0.6879600286483765
2.025235434,0,0,1.9823989868164063,0,0,0.9172800183296204
2.026235205,0,0,1.7190368175506592,0,0,1.1466000080108643
2.027235309,0,0,1.359906554222107,0,0,0.9937199950218201
2.02823495,0,0,1.0079588890075684,0,0,0.9172800183296204
2.029235591,0,0,0.8044517636299133,0,0,1.070159912109375
2.030235121,0,0,1.113303780555725,0,0,0.3822000026702881
2.031234929,0,0,1.4317326545715332,0,0,0.611519992351532
2.032234903,0,0,1.522712230682373,0,0,0.6879600286483765
2.033235989,0,0,1.5107412338256836,0,0,0.6879600286483765
2.034247574,0,0,1.2976573705673218,0,0,1.1466000080108643
2.035235512,0,0,1.2761094570159912,0,0,0.9172800183296204
2.036235283,0,0,1.314416766166687,0,0,0.8408399820327759
2.037236054,0,0,1.3000515699386597,0,0,0.6879600286483765
2.038235065,0,0,1.2473790645599365,0,0,1.1466000080108643
2.039235151,0,0,1.0893617868423462,0,0,0.8408399820327759
2.040234829,0,0,1.1468225717544556,0,0,0.0764399990439415
2.041236044,0,0,1.1516109704971313,0,0,0.6879600286483765
2.042235093,0,0,1.0845733880996704,0,0,0
2.043234808,0,0,1.1013327836990356,0,0,0.305759996175766
2.044234967,0,0,1.161187767982483,0,0,0.611519992351532
2.045235923,0,0,1.3239935636520386,0,0,0.4586400091648102
2.046235064,0,0,1.5298948287963867,0,0,0.7644000053405762
2.047234428,0,0,1.3551181554794312,0,0,0.9937199950218201
2.048234773,0,0,1.194706678390503,0,0,1.1466000080108643
2.049351839,0,0,1.2689268589019775,0,0,0.9937199950218201
2.050238296,0,0,1.235408067703247,0,0,0.9937199950218201
2.051235344,0,0,1.314416766166687,0,0,0.7644000053405762
2.05223493,0,0,1.4772224426269531,0,0,0.7644000053405762
2.053236312,0,0,1.7836803197860718,0,0,0.6879600286483765
2.05423499,0,0,1.941697597503662,0,0,0.6879600286483765
2.055234927,0,0,1.843535304069519,0,0,1.070159912109375
2.056234717,0,0,1.5514427423477173,0,0,0.9937199950218201
2.057238024,0,0,1.0797849893569946,0,0,1.070159912109375
2.058235388,0,0,0.790086567401886,0,0,0.3822000026702881
2.059234918,0,0,0.7350199222564697,0,0,0.2293200045824051
2.060235022,0,0,1.0079588890075684,0,0,0.305759996175766
2.061235607,0,0,1.3479355573654175,0,0,0
2.062234786,0,0,1.558625340461731,0,0,0.6879600286483765
2.063235001,0,0,1.5418659448623657,0,0,0.9937199950218201
2.064235586,0,0,1.5322890281677246,0,0,0.9172800183296204
2.065234987,0,0,1.256955862045288,0,0,1.223039984703064
2.066235017,0,0,1.0989385843276978,0,0,0.9937199950218201
2.067234695,0,0,1.158793568611145,0,0,0.9172800183296204
2.0682345030000002,0,0,1.3048399686813354,0,0,1.1466000080108643
2.069235977,0,0,1.4891934394836426,0,0,0.8408399820327759
2.070236526,0,0,1.403002142906189,0,0,0.6879600286483765
2.071233963,0,0,1.5634137392044067,0,0,1.070159912109375
2.072234475,0,0,1.522712230682373,0,0,0.6879600286483765
2.073234857,0,0,1.2617442607879639,0,0,0.9937199950218201
2.074235072,0,0,1.0414776802062988,0,0,0.9172800183296204
2.075251991,0,0,0.9481038451194763,0,0,0.611519992351532
2.076247669,0,0,0.9361328482627869,0,0,0.305759996175766
2.077262773,0,0,1.0295066833496094,0,0,0.3822000026702881
2.078256895,0,0,1.1204863786697388,0,0,0.152879998087883
2.079261833,0,0,1.2880805730819702,0,0,0.4586400091648102
2.080261159,0,0,1.3431471586227417,0,0,0.0764399990439415
2.081256578,0,0,1.2665326595306396,0,0,0.152879998087883
2.082266423,0,0,1.4221558570861816,0,0,0.9172800183296204
2.083259212,0,0,1.4053963422775269,0,0,1.1466000080108643
2.084262575,0,0,1.2952631711959839,0,0,1.223039984703064
2.085270754,0,0,1.3215993642807007,0,0,1.375920057296753
2.086266228,0,0,1.4197616577148438,0,0,0.7644000053405762
2.087258795,0,0,1.580173134803772,0,0,0.611519992351532
2.088275973,0,0,1.7334020137786865,0,0,0.3822000026702881
2.089915647,0,0,1.6376339197158813,0,0,0.305759996175766
2.0902472,0,0,1.5466543436050415,0,0,0.4586400091648102
2.091279156,0,0,1.2761094570159912,0,0,0.2293200045824051
2.09226426,0,0,1.0127472877502441,0,0,0.3822000026702881
2.093259957,0,0,1.0079588890075684,0,0,0.6879600286483765
