Time,AccelX1,AccelY1,AccelZ1,AccelX2,AccelY2,AccelZ2
5.351990694180131e-06,0,0,1.4245499877929686,0,0,9.631440000000001
0.0037105669907759875,0,0,1.4317325927734375,0,0,1.2994800000000002
0.007327227998757735,0,0,1.2521674682617188,0,0,0.84084
0.01104899897472933,0,0,1.2569558715820313,0,0,0.53508
0.014611640974180773,0,0,1.369483349609375,0,0,0.84084
0.018124821974197403,0,0,1.3096283081054687,0,0,0.6115200000000001
0.021634131990140304,0,0,1.3934253662109375,0,0,0.68796
0.025202033983077854,0,0,1.6160861206054686,0,0,0.99372
0.028746787982527167,0,0,1.3120225097656248,0,0,0.53508
0.03228504199068993,0,0,1.6232687255859375,0,0,0.84084
0.03579037098097615,0,0,1.2401964599609374,0,0,0.7644
0.039299384981859475,0,0,1.0726023437499999,0,0,1.2230400000000001
0.042846268974244595,0,0,1.3072341064453123,0,0,0.68796
0.04635105998022482,0,0,1.5131354492187499,0,0,0.91728
0.049877332989126444,0,0,1.3718775512695311,0,0,1.5288
0.05344419798348099,0,0,1.388636962890625,0,0,0.6115200000000001
0.05695295298937708,0,0,1.2282254516601563,0,0,0.7644
0.06049361400073394,0,0,1.24498486328125,0,0,-0.7644
0.06400531297549605,0,0,1.35990654296875,0,0,1.07016
0.0675166419823654,0,0,1.3479355346679687,0,0,0.84084
0.07102135999593884,0,0,1.3958195678710936,0,0,0.3822
0.07456672500120476,0,0,1.3431471313476562,0,0,1.07016
0.07807394297560677,0,0,1.4317325927734375,0,0,0.91728
0.0815789189946372,0,0,1.419761584472656,0,0,1.45236
0.08508367399917915,0,0,1.6424223388671875,0,0,0.22932
0.08859057698282413,0,0,1.5083470458984374,0,0,1.1465999999999998
0.09209638700122014,0,0,1.3958195678710936,0,0,0.15288000000000002
0.0956056040013209,0,0,1.4532804077148436,0,0,0.91728
0.09911271097371355,0,0,1.2976572998046874,0,0,0.68796
0.10261866898508742,0,0,1.5011644409179687,0,0,1.2994800000000002
0.10623660800047219,0,0,1.6304513305664061,0,0,0.53508
0.10945516198989935,0,0,1.3144167114257812,0,0,0.7644
0.11249742200016044,0,0,1.3551181396484375,0,0,0.99372
0.11531816597562283,0,0,1.4317325927734375,0,0,0.91728
0.11810628097737208,0,0,1.39821376953125,0,0,0.99372
0.12089776698849164,0,0,1.4772224243164063,0,0,2.14032
0.12368764099664986,0,0,1.4030021728515625,0,0,1.2994800000000002
0.12647379297413863,0,0,1.7788918334960937,0,0,0.53508
0.12924803799251094,0,0,1.3120225097656248,0,0,0.84084
0.13203767099184915,0,0,1.3407529296874998,0,0,0.0
0.13482948997989297,0,0,1.407790576171875,0,0,0.99372
0.13761669798986986,0,0,1.2713210815429687,0,0,0.84084
0.14040584999020211,0,0,1.2808978881835937,0,0,0.22932
0.14319722398067825,0,0,1.5610194824218748,0,0,0.07644000000000001
0.1459844310011249,0,0,1.697488977050781,0,0,1.1465999999999998
0.14877297199564055,0,0,1.4532804077148436,0,0,0.7644
0.15204056299990043,0,0,1.22583125,0,0,-0.45864
0.1548637329833582,0,0,1.2785036865234374,0,0,0.91728
0.15764966298593208,0,0,1.2617442749023438,0,0,0.7644
0.16044146299827844,0,0,1.3168109130859373,0,0,0.7644
0.16363538798759691,0,0,1.3910311645507811,0,0,0.68796
0.1664962619834114,0,0,1.6304513305664061,0,0,0.7644
0.16927219199715182,0,0,1.5131354492187499,0,0,0.45864
0.1720498249924276,0,0,1.4891934326171874,0,0,-0.7644
0.17482905098586343,0,0,1.47482822265625,0,0,0.53508
0.17760155597352423,0,0,1.4245499877929686,0,0,0.84084
0.18037439297768287,0,0,1.2832920898437499,0,0,0.68796
0.18315043399343267,0,0,1.5275006591796874,0,0,1.75812
0.18592141999397427,0,0,1.6328455322265625,0,0,1.07016
0.18873634899500757,0,0,1.235408056640625,0,0,0.68796
0.19152714899973944,0,0,1.2737152832031249,0,0,1.5288
0.19431615297799,0,0,1.4700398193359374,0,0,1.1465999999999998
0.19712610097485594,0,0,1.656787548828125,0,0,0.84084
0.19991808698978275,0,0,1.24498486328125,0,0,0.84084
0.2027727559907362,0,0,1.407790576171875,0,0,0.3822
0.20556998197571374,0,0,1.3000515014648437,0,0,0.22932
0.20835948598687537,0,0,1.22583125,0,0,1.2230400000000001
0.21114985999884084,0,0,1.3718775512695311,0,0,0.30576000000000003
0.21396677099983208,0,0,1.5538368774414062,0,0,0.45864
0.2167575899802614,0,0,1.3958195678710936,0,0,0.6115200000000001
0.21954650100087747,0,0,1.4101847778320311,0,0,0.53508
0.22233394999057055,0,0,1.3814543579101561,0,0,1.75812
0.22512326799915172,0,0,1.2856862915039062,0,0,0.3822
0.22791253100149333,0,0,1.5346832641601562,0,0,0.84084
0.23070275798090734,0,0,1.218648645019531,0,0,0.91728
0.2334894279774744,0,0,1.2401964599609374,0,0,1.83456
0.2362782279960811,0,0,1.4820108276367188,0,0,1.1465999999999998
0.23907402798067778,0,0,1.407790576171875,0,0,0.7644
0.2418608839798253,0,0,1.4867992309570313,0,0,1.37592
0.24465081398375332,0,0,1.5825672973632812,0,0,0.7644
0.24744133598869666,0,0,1.7980454467773437,0,0,0.3822
0.2502268589742016,0,0,1.199495031738281,0,0,0.91728
0.2530431219784077,0,0,1.3670891479492187,0,0,9.47856
0.2558316439972259,0,0,1.4413093994140624,0,0,0.84084
0.2586490919929929,0,0,1.3335703247070312,0,0,0.84084
0.2614360959851183,0,0,1.3479355346679687,0,0,0.53508
0.2642237109830603,0,0,1.448492004394531,0,0,0.30576000000000003
0.26701380699523725,0,0,1.7238251953125,0,0,0.99372
0.2697985339909792,0,0,1.3383587280273437,0,0,0.7644
0.2726471289934125,0,0,1.429338391113281,0,0,1.60524
0.27548659598687664,0,0,1.4628572143554686,0,0,0.84084
0.27836532099172473,0,0,1.2928688964843749,0,0,0.91728
0.28115954698296264,0,0,1.2785036865234374,0,0,0.99372
0.28395282800192945,0,0,1.4867992309570313,0,0,1.5288
0.28674525799578987,0,0,1.2282254516601563,0,0,1.1465999999999998
0.2895312799955718,0,0,1.3575123413085937,0,0,0.91728
0.2923509879910853,0,0,1.3120225097656248,0,0,0.91728
0.29514325098716654,0,0,1.5203180541992187,0,0,1.45236
0.29792836599517614,0,0,1.6519991455078125,0,0,0.6115200000000001
0.300717406993499,0,0,1.4772224243164063,0,0,0.7644
0.3035061509872321,0,0,1.4820108276367188,0,0,0.0
0.3064248019945808,0,0,1.350329736328125,0,0,0.7644
0.3093873409961816,0,0,1.3455413330078123,0,0,1.07016
0.31249374797334895,0,0,1.4700398193359374,0,0,1.68168
0.31562702599330805,0,0,1.5346832641601562,0,0,0.53508
0.3187358779832721,0,0,1.637633935546875,0,0,0.84084
0.3218378219753504,0,0,1.3383587280273437,0,0,0.6115200000000001
0.32494284099084325,0,0,1.3718775512695311,0,0,0.7644
0.3280470819736365,0,0,1.5179238525390624,0,0,0.6115200000000001
0.33115845199790783,0,0,1.0941501586914062,0,0,0.91728
0.334262285992736,0,0,1.3000515014648437,0,0,1.911
0.33736721199238673,0,0,1.4245499877929686,0,0,0.99372
0.34047274899785407,0,0,1.3910311645507811,0,0,0.91728
0.34359567498904653,0,0,1.388636962890625,0,0,9.40212
0.346702174982056,0,0,1.448492004394531,0,0,1.1465999999999998
0.3498046559980139,0,0,1.3168109130859373,0,0,0.84084
0.35291137898457237,0,0,1.235408056640625,0,0,1.68168
0.356017489975784,0,0,1.5658078857421873,0,0,0.45864
0.3591249349992722,0,0,1.5634136840820312,0,0,0.6115200000000001
0.3622263789875433,0,0,1.37906015625,0,0,0.53508
0.36566617200151086,0,0,1.4891934326171874,0,0,1.07016
0.3687608009786345,0,0,1.7908628417968748,0,0,0.6115200000000001
0.3718519129906781,0,0,1.3455413330078123,0,0,0.53508
0.37494250599411316,0,0,1.3623007446289062,0,0,1.2230400000000001
0.37802882099640556,0,0,1.467645617675781,0,0,0.45864
0.38111665498581715,0,0,1.4796166259765624,0,0,0.68796
0.38420565499109216,0,0,1.3479355346679687,0,0,1.37592
0.38753213398740627,0,0,1.2425906616210938,0,0,0.84084
0.39068441098788753,0,0,1.4173673828125,0,0,0.91728
0.39379324499168433,0,0,1.438915197753906,0,0,-0.45864
0.3969041889940854,0,0,1.4820108276367188,0,0,0.7644
0.4000090599874966,0,0,1.2785036865234374,0,0,0.7644
0.40311220797593705,0,0,1.2401964599609374,0,0,1.83456
0.406251225998858,0,0,1.4604630126953124,0,0,1.37592
0.40946529898792505,0,0,1.47482822265625,0,0,1.07016
0.4127650559821632,0,0,1.1923124267578125,0,0,0.30576000000000003
0.41589190799277276,0,0,1.2425906616210938,0,0,0.30576000000000003
0.4190135189855937,0,0,1.6927005737304686,0,0,0.7644
0.42213099999935366,0,0,1.2425906616210938,0,0,0.84084
0.4252341669925954,0,0,1.2665326782226562,0,0,1.2230400000000001
0.42835403699427843,0,0,1.465251416015625,0,0,0.91728
0.431473462987924,0,0,1.429338391113281,0,0,0.68796
0.43459181499201804,0,0,1.438915197753906,0,0,0.0
0.4377427589788567,0,0,1.4508862060546874,0,0,0.68796
0.44084520399337634,0,0,1.2497732666015624,0,0,0.7644
0.4439778149826452,0,0,1.2808978881835937,0,0,1.60524
0.4470973889983725,0,0,1.429338391113281,0,0,0.30576000000000003
0.4502094069903251,0,0,1.5634136840820312,0,0,0.68796
0.45333057397510856,0,0,1.419761584472656,0,0,0.6115200000000001
0.4564484439906664,0,0,1.4413093994140624,0,0,0.68796
0.4595637589809485,0,0,1.43652099609375,0,0,0.99372
0.4626776479999535,0,0,1.3623007446289062,0,0,0.7644
0.4658448689733632,0,0,1.3120225097656248,0,0,1.2230400000000001
0.46896242498769425,0,0,1.5011644409179687,0,0,0.53508
0.4720782770018559,0,0,1.4796166259765624,0,0,0.84084
0.4751938879780937,0,0,1.4820108276367188,0,0,0.0
0.47830788799910806,0,0,1.4341267944335936,0,0,0.7644
0.4814219809777569,0,0,1.4796166259765624,0,0,0.68796
0.4847125340020284,0,0,1.484405029296875,0,0,-9.784320000000001
0.48797595797805116,0,0,1.429338391113281,0,0,0.91728
0.49125015997560695,0,0,1.3359645263671873,0,0,0.91728
0.4943561229738407,0,0,1.4173673828125,0,0,1.98744
0.4975031409994699,0,0,1.2497732666015624,0,0,0.91728
0.500607363996096,0,0,1.2306196533203124,0,0,0.7644
0.5038126029830892,0,0,1.2808978881835937,0,0,0.6115200000000001
0.5070926749904174,0,0,1.5322890624999999,0,0,0.7644
0.5104948759835679,0,0,1.3575123413085937,0,0,0.53508
0.5135680979874451,0,0,1.2330138549804688,0,0,0.91728
0.5163830089732073,0,0,1.4939818359375,0,0,1.5288
0.5191986610007007,0,0,1.2234370483398436,0,0,1.1465999999999998
0.5219946459983476,0,0,1.3000515014648437,0,0,0.7644
0.5247923909919336,0,0,1.4796166259765624,0,0,1.98744
0.527654948993586,0,0,1.4891934326171874,0,0,0.91728
0.5304613419866655,0,0,1.3958195678710936,0,0,0.68796
0.5332579939858988,0,0,1.3527239379882812,0,0,0.7644
0.536054089985555,0,0,1.2880804931640624,0,0,0.68796
0.5388842789980117,0,0,1.3670891479492187,0,0,0.84084
0.5416826719883829,0,0,1.2785036865234374,0,0,0.7644
0.5444804899743758,0,0,1.3311761230468748,0,0,0.53508
0.5472786049940623,0,0,1.4796166259765624,0,0,0.3822
0.5500726639875211,0,0,1.6448165405273436,0,0,0.91728
0.5528683899901807,0,0,1.3407529296874998,0,0,0.45864
0.5556644869793672,0,0,1.37906015625,0,0,-8.71416
0.5584636939747725,0,0,1.3407529296874998,0,0,0.3822
0.5612564019975252,0,0,1.6232687255859375,0,0,0.53508
0.564121774979867,0,0,1.3192051147460937,0,0,1.98744
0.566928296990227,0,0,1.2928688964843749,0,0,-8.17908
0.569728819973534,0,0,1.4867992309570313,0,0,0.91728
0.5725244349741843,0,0,1.4413093994140624,0,0,0.91728
0.575345937977545,0,0,1.2785036865234374,0,0,1.911
0.5781802379933652,0,0,1.465251416015625,0,0,0.99372
0.5809803149895743,0,0,1.6328455322265625,0,0,1.07016
0.5837771160004195,0,0,1.1659762084960936,0,0,0.7644
0.5865771009994205,0,0,1.2952630981445312,0,0,0.6115200000000001
0.5893800299963914,0,0,1.4915876342773438,0,0,0.84084
0.5922594959847629,0,0,1.1180921752929687,0,0,0.91728
0.5950628149730619,0,0,1.5298948608398437,0,0,0.15288000000000002
0.5978560039948206,0,0,1.659181750488281,0,0,0.6115200000000001
0.6006512109888718,0,0,1.7549498168945312,0,0,0.91728
0.6034500479872804,0,0,1.5777788940429687,0,0,0.15288000000000002
0.6062459779786877,0,0,1.4030021728515625,0,0,-0.68796
0.6090525189938489,0,0,1.3479355346679687,0,0,0.7644
0.6121070009830873,0,0,1.218648645019531,0,0,0.68796
0.6152232969761826,0,0,1.2880804931640624,0,0,0.6115200000000001
0.6183356309775263,0,0,1.438915197753906,0,0,0.99372
0.6215238329896238,0,0,1.3072341064453123,0,0,0.6115200000000001
0.6247141099884175,0,0,1.3072341064453123,0,0,0.3822
0.6278321289864834,0,0,1.5107412475585937,0,0,2.4460800000000003
0.6309777579735965,0,0,1.7980454467773437,0,0,0.7644
0.6340912769956049,0,0,1.3048399047851562,0,0,0.91728
0.6372081099834759,0,0,1.3838485595703125,0,0,1.68168
0.6403232769807801,0,0,1.2856862915039062,0,0,1.07016
0.6434398879937362,0,0,1.2928688964843749,0,0,0.84084
0.6465572209854145,0,0,1.37906015625,0,0,9.631440000000001
0.6496715729881544,0,0,1.3455413330078123,0,0,1.1465999999999998
0.6527858319750521,0,0,1.2761094848632812,0,0,0.84084
0.6559025169990491,0,0,1.429338391113281,0,0,1.68168
0.6590183319931384,0,0,1.4700398193359374,0,0,0.84084
0.6621290539915208,0,0,1.4939818359375,0,0,0.84084
0.6653553309733979,0,0,1.2761094848632812,0,0,0.6115200000000001
0.6684950339840725,0,0,1.4963760375976562,0,0,1.07016
0.6716700889810454,0,0,1.426944189453125,0,0,-8.943480000000001
0.6748644959880039,0,0,1.3742717529296875,0,0,0.6115200000000001
0.6779825330013409,0,0,1.4101847778320311,0,0,0.15288000000000002
0.6810976809938438,0,0,1.5370774658203123,0,0,0.7644
0.6842115139879752,0,0,1.4006079711914061,0,0,0.84084
0.6873268289782573,0,0,1.4221557861328125,0,0,2.75184
0.690472920978209,0,0,1.3192051147460937,0,0,0.84084
0.6935869769949932,0,0,1.1085153686523437,0,0,0.84084
0.6967454019759316,0,0,1.5251064575195312,0,0,-0.53508
0.6998699019895867,0,0,1.4317325927734375,0,0,0.7644
0.702985957992496,0,0,1.3359645263671873,0,0,0.91728
0.706098957976792,0,0,1.4173673828125,0,0,2.06388
0.709252975997515,0,0,1.4700398193359374,0,0,1.07016
0.7123681980010588,0,0,1.5849614990234373,0,0,0.84084
0.7154845129989553,0,0,1.0869675537109373,0,0,0.07644000000000001
0.7185982539958786,0,0,1.407790576171875,0,0,0.15288000000000002
0.7217177349957637,0,0,1.7477672119140624,0,0,0.84084
0.7248471239872742,0,0,1.24498486328125,0,0,1.07016
0.7279844939766917,0,0,1.2497732666015624,0,0,1.75812
0.7311026419920381,0,0,1.24498486328125,0,0,0.99372
0.7342153089994099,0,0,1.4987702392578124,0,0,0.6115200000000001
0.7373306419758592,0,0,1.407790576171875,0,0,-0.6115200000000001
0.7404459749814123,0,0,1.37906015625,0,0,0.7644
0.7435609379899688,0,0,1.2641384765625,0,0,0.84084
0.7466785309952684,0,0,1.2713210815429687,0,0,1.75812
0.7497925489733461,0,0,1.3072341064453123,0,0,0.53508
0.7529077349754516,0,0,1.3623007446289062,0,0,0.99372
0.7560219749866519,0,0,1.3000515014648437,0,0,0.45864
0.7591371979797259,0,0,1.6472107421875,0,0,2.52252
0.7622495679825079,0,0,1.6017209106445311,0,0,0.7644
0.7661365399835631,0,0,1.3359645263671873,0,0,0.6115200000000001
0.7693055949930567,0,0,1.4221557861328125,0,0,0.53508
0.7724170769797638,0,0,1.6735469604492186,0,0,1.07016
0.7755599469819572,0,0,1.4628572143554686,0,0,0.6115200000000001
0.7787827790016308,0,0,1.4413093994140624,0,0,1.45236
0.7819070009863935,0,0,1.659181750488281,0,0,0.84084
0.7850232969794888,0,0,1.2665326782226562,0,0,0.7644
0.788139500975376,0,0,1.4245499877929686,0,0,0.0
0.7912559819815215,0,0,1.1420341918945311,0,0,0.7644
0.7943680939788464,0,0,1.2330138549804688,0,0,1.07016
0.7975349629996344,0,0,1.3646949462890625,0,0,-8.33196
0.8007092959887814,0,0,1.6639701538085936,0,0,0.68796
0.8038481659896206,0,0,1.2880804931640624,0,0,0.7644
0.8069697959872428,0,0,1.2880804931640624,0,0,1.5288
0.8101207949803211,0,0,1.678335363769531,0,0,1.1465999999999998
0.8132364799967036,0,0,1.608903515625,0,0,0.6115200000000001
0.8163506839773618,0,0,1.2330138549804688,0,0,0.68796
0.8194665359915234,0,0,1.4053963745117186,0,0,0.07644000000000001
0.8225839249789715,0,0,1.618480322265625,0,0,0.7644
0.8256977579731029,0,0,1.4867992309570313,0,0,0.68796
0.8288135909824632,0,0,1.2808978881835937,0,0,1.68168
0.8319269249914214,0,0,1.4245499877929686,0,0,1.1465999999999998
0.8350424619857222,0,0,1.4030021728515625,0,0,0.91728
0.8381547209864948,0,0,1.47482822265625,0,0,-0.6115200000000001
0.8412714799924288,0,0,1.429338391113281,0,0,0.91728
0.8443860539991874,0,0,1.1324573852539062,0,0,0.7644
0.847500591975404,0,0,1.3024457031249999,0,0,1.83456
0.8506142399855889,0,0,1.618480322265625,0,0,1.2230400000000001
0.8537277029827237,0,0,1.5873557006835937,0,0,0.7644
0.8568441839888692,0,0,1.3958195678710936,0,0,0.53508
0.8599586289783474,0,0,1.5442600708007812,0,0,0.0
0.8630734990001656,0,0,1.7549498168945312,0,0,0.84084
0.8661855179816484,0,0,1.2641384765625,0,0,1.2994800000000002
0.8692992399737705,0,0,1.3407529296874998,0,0,1.83456
0.8724093319906387,0,0,1.2976572998046874,0,0,1.07016
0.8755779799830634,0,0,1.4700398193359374,0,0,0.6115200000000001
0.8787390719808172,0,0,1.3838485595703125,0,0,9.172799999999999
0.881853812985355,0,0,1.4317325927734375,0,0,0.84084
0.8849679789855145,0,0,1.3048399047851562,0,0,0.68796
0.8880820909980685,0,0,1.47482822265625,0,0,1.75812
0.8911982759891544,0,0,1.4437036010742186,0,0,0.68796
0.8943101280019619,0,0,1.3120225097656248,0,0,1.07016
0.8974242389958818,0,0,1.3120225097656248,0,0,0.07644000000000001
0.9005422199843451,0,0,1.637633935546875,0,0,0.84084
0.9036559239902999,0,0,1.5394716674804687,0,0,0.84084
0.9067695169942454,0,0,1.3407529296874998,0,0,0.91728
0.9099112199910451,0,0,1.5227122558593749,0,0,1.07016
0.9130251829919871,0,0,1.5945383056640625,0,0,0.99372
0.9161387759959325,0,0,1.4508862060546874,0,0,0.53508
0.9192533129826188,0,0,1.467645617675781,0,0,0.0
0.9223639239789918,0,0,1.2928688964843749,0,0,0.84084
0.9254848129930906,0,0,1.3311761230468748,0,0,0.84084
0.9285979789856356,0,0,1.419761584472656,0,0,0.6115200000000001
0.9317121829953976,0,0,1.458068811035156,0,0,0.84084
0.9348276649834588,0,0,1.429338391113281,0,0,1.07016
0.9379384240019135,0,0,1.2042834350585936,0,0,1.07016
0.9410523679980543,0,0,1.446097802734375,0,0,0.99372
0.9441649419895839,0,0,1.43652099609375,0,0,0.6115200000000001
0.9472811459854711,0,0,1.2138602416992186,0,0,0.99372
0.950421256973641,0,0,1.2473790649414063,0,0,0.22932
0.9535362199821975,0,0,1.6160861206054686,0,0,0.53508
0.956650867999997,0,0,1.3814543579101561,0,0,0.53508
0.9597639610001352,0,0,1.467645617675781,0,0,0.84084
0.9628893119806889,0,0,1.3072341064453123,0,0,0.91728
0.9660084419883788,0,0,1.39821376953125,0,0,0.6115200000000001
0.9691250159812625,0,0,1.4796166259765624,0,0,0.15288000000000002
0.9722353309916798,0,0,1.2713210815429687,0,0,0.91728
0.9753757379949093,0,0,1.3359645263671873,0,0,0.7644
0.9784951449837536,0,0,1.3263877197265623,0,0,1.1465999999999998
0.9816096449794713,0,0,1.656787548828125,0,0,0.3822
0.9847237009962555,0,0,1.5777788940429687,0,0,0.7644
0.9878430709941313,0,0,1.3120225097656248,0,0,0.53508
0.9909591449832078,0,0,1.3910311645507811,0,0,0.6115200000000001
0.9940706269990187,0,0,1.7429788085937499,0,0,0.99372
0.9971845899999607,0,0,1.3551181396484375,0,0,1.1465999999999998
1.0002965899766423,0,0,1.5107412475585937,0,0,1.98744
1.0034809039789252,0,0,1.2282254516601563,0,0,0.84084
1.0067663829831872,0,0,1.4317325927734375,0,0,0.53508
1.0100992699735798,0,0,1.2282254516601563,0,0,0.91728
1.013342712976737,0,0,1.254561669921875,0,0,0.99372
1.0165815069922246,0,0,1.3575123413085937,0,0,0.84084
1.019841616973281,0,0,1.407790576171875,0,0,9.24924
1.0230793929949868,0,0,1.3192051147460937,0,0,0.6115200000000001
1.0263353920017835,0,0,1.3527239379882812,0,0,0.91728
1.0295557419885881,0,0,1.388636962890625,0,0,0.7644
1.0368270259932615,0,0,1.5011644409179687,0,0,0.99372
1.0399743219895754,0,0,1.5203180541992187,0,0,-0.3822
1.0430952109745704,0,0,1.426944189453125,0,0,1.1465999999999998
1.0462044329906348,0,0,1.3551181396484375,0,0,0.68796
1.0493226919788867,0,0,1.419761584472656,0,0,2.06388
1.0526327639818192,0,0,1.4796166259765624,0,0,0.53508
1.0558558919874486,0,0,1.4413093994140624,0,0,0.99372
1.058985669980757,0,0,1.369483349609375,0,0,0.53508
1.0621001329855062,0,0,1.3838485595703125,0,0,2.82828
1.065228595980443,0,0,1.455674609375,0,0,0.99372
1.0683970029931515,0,0,1.2018892333984375,0,0,0.7644
1.0715474280004855,0,0,1.5251064575195312,0,0,0.15288000000000002
1.0747908899793401,0,0,1.6807295654296874,0,0,0.45864
1.078037424973445,0,0,1.467645617675781,0,0,0.99372
1.0812317939999048,0,0,1.2330138549804688,0,0,1.45236
1.0844538300007116,0,0,1.4173673828125,0,0,0.68796
1.0877752539818175,0,0,1.3862427612304686,0,0,0.68796
1.0910368079785258,0,0,1.5059528442382812,0,0,1.60524
1.0942127509915736,0,0,1.4628572143554686,0,0,0.7644
1.097496433998458,0,0,1.4053963745117186,0,0,0.84084
1.100796579994494,0,0,1.388636962890625,0,0,2.36964
1.1040552079793997,0,0,1.2928688964843749,0,0,1.37592
1.1072973729751538,0,0,1.448492004394531,0,0,0.6115200000000001
1.1106398339907173,0,0,1.5251064575195312,0,0,-0.53508
1.113917294977,0,0,1.4030021728515625,0,0,0.91728
1.1155069429951254,0,0,1.6711527587890624,0,0,0.7644
1.1169841289811302,0,0,1.2713210815429687,0,0,0.68796
1.118502091994742,0,0,1.149216796875,0,0,0.68796
1.1199347229849081,0,0,1.2689268798828124,0,0,0.45864
1.121317391982302,0,0,1.3766659545898436,0,0,1.1465999999999998
1.1227008389832918,0,0,1.5059528442382812,0,0,0.45864
1.1240814889897592,0,0,1.2737152832031249,0,0,0.91728
1.1254618239763658,0,0,1.678335363769531,0,0,1.1465999999999998
1.1268460669962224,0,0,1.2641384765625,0,0,0.7644
1.1282246990012936,0,0,1.429338391113281,0,0,0.68796
1.1296039229782764,0,0,1.3814543579101561,0,0,0.45864
1.1309852029953618,0,0,1.388636962890625,0,0,0.30576000000000003
1.1323641309863888,0,0,1.5777788940429687,0,0,-0.6115200000000001
1.133745632978389,0,0,1.3766659545898436,0,0,0.22932
1.1351250239822548,0,0,1.3407529296874998,0,0,0.84084
1.1365037669893354,0,0,1.3311761230468748,0,0,0.91728
1.137882583978353,0,0,1.4317325927734375,0,0,0.68796
1.1392661229765508,0,0,1.3024457031249999,0,0,0.99372
1.1406457729754038,0,0,1.4772224243164063,0,0,0.99372
1.1420260349987075,0,0,1.5179238525390624,0,0,1.37592
1.1434059070015792,0,0,1.4245499877929686,0,0,1.45236
1.1447845389775466,0,0,1.3814543579101561,0,0,1.2994800000000002
1.1461633739818353,0,0,1.7429788085937499,0,0,1.45236
1.1475438209890854,0,0,1.426944189453125,0,0,0.6115200000000001
1.1489224339893553,0,0,1.3479355346679687,0,0,0.6115200000000001
1.1503014179761522,0,0,1.4604630126953124,0,0,1.07016
1.151681474992074,0,0,1.3551181396484375,0,0,1.75812
1.1530602549901232,0,0,1.4030021728515625,0,0,1.1465999999999998
1.1544623309746385,0,0,1.3479355346679687,0,0,1.2230400000000001
1.1558416479965672,0,0,1.707065783691406,0,0,0.7644
1.1572200209775474,0,0,1.3431471313476562,0,0,0.68796
1.1586003379779868,0,0,1.2928688964843749,0,0,0.6115200000000001
1.1599801359989215,0,0,1.2378022583007813,0,0,0.6115200000000001
1.16135878599016,0,0,1.3455413330078123,0,0,0.45864
1.1627416769915726,0,0,1.4245499877929686,0,0,-0.6115200000000001
1.164147993986262,0,0,1.4604630126953124,0,0,0.0
1.1655271999770775,0,0,1.7166425903320313,0,0,0.68796
1.1669110539951362,0,0,1.2808978881835937,0,0,0.7644
1.1682902219763491,0,0,1.3192051147460937,0,0,1.07016
1.1696691509860102,0,0,1.3383587280273437,0,0,0.7644
1.1710584859829396,0,0,1.4939818359375,0,0,0.45864
1.1724454689829145,0,0,1.465251416015625,0,0,0.53508
1.1738318789866753,0,0,1.429338391113281,0,0,1.2230400000000001
1.17521915899124,0,0,1.3311761230468748,0,0,0.91728
1.1766116609796882,0,0,1.3766659545898436,0,0,0.91728
1.1779981439758558,0,0,1.3527239379882812,0,0,0.91728
1.1793853309936821,0,0,1.3646949462890625,0,0,0.53508
1.180771481973352,0,0,1.4245499877929686,0,0,0.7644
1.1821586129954085,0,0,1.4796166259765624,0,0,1.68168
1.183543559978716,0,0,1.438915197753906,0,0,1.5288
1.1850517819984816,0,0,1.2737152832031249,0,0,0.84084
1.1864622290013358,0,0,1.4245499877929686,0,0,1.07016
1.1879002119821962,0,0,1.2952630981445312,0,0,0.91728
1.1892883249965962,0,0,1.2832920898437499,0,0,0.7644
1.1906766229949426,0,0,1.446097802734375,0,0,0.84084
1.1920610319939442,0,0,1.3168109130859373,0,0,1.1465999999999998
1.1934472749999259,0,0,1.448492004394531,0,0,1.5288
1.1948339619848412,0,0,1.2210428466796874,0,0,1.37592
1.1962193719809875,0,0,1.5322890624999999,0,0,0.91728
1.1976057439751457,0,0,1.4030021728515625,0,0,0.7644
1.1989921719941776,0,0,1.467645617675781,0,0,0.68796
1.2003781739913393,0,0,1.2976572998046874,0,0,0.68796
1.2017646949971095,0,0,1.3000515014648437,0,0,0.3822
1.2031506779894698,0,0,1.3910311645507811,0,0,-0.6115200000000001
1.2045372919819783,0,0,1.2761094848632812,0,0,0.0
1.205922978988383,0,0,1.5921441040039062,0,0,0.68796
1.2073090729827527,0,0,1.4437036010742186,0,0,0.53508
1.2086954089754727,0,0,1.455674609375,0,0,0.68796
1.2100814110017382,0,0,1.3096283081054687,0,0,0.7644
1.2114678569778334,0,0,1.369483349609375,0,0,0.53508
1.2128535629890393,0,0,1.3072341064453123,0,0,0.30576000000000003
1.2142400649900082,0,0,1.5203180541992187,0,0,0.99372
1.2156263449869584,0,0,1.5418658691406248,0,0,0.91728
1.217024772980949,0,0,1.6112977172851561,0,0,1.07016
1.2184127009822987,0,0,1.3838485595703125,0,0,0.84084
1.2197996839822736,0,0,1.235408056640625,0,0,0.91728
1.2211853529734071,0,0,1.4101847778320311,0,0,0.7644
1.2225716699904297,0,0,1.3096283081054687,0,0,1.98744
1.2239581719913986,0,0,1.39821376953125,0,0,1.68168
1.225344321981538,0,0,1.3359645263671873,0,0,1.2230400000000001
1.2267304169945419,0,0,1.637633935546875,0,0,1.1465999999999998
1.2281164369778708,0,0,1.3239935180664062,0,0,0.84084
1.2295021799800452,0,0,1.3096283081054687,0,0,0.45864
1.2308885889942758,0,0,1.455674609375,0,0,0.7644
1.2322744059783872,0,0,1.5801730957031248,0,0,0.99372
1.233659926976543,0,0,1.5753846923828123,0,0,0.0
1.235045891982736,0,0,1.3072341064453123,0,0,0.22932
1.2364323009969667,0,0,1.6472107421875,0,0,1.1465999999999998
1.2378186179848853,0,0,1.3359645263671873,0,0,1.07016
1.23920454600011,0,0,1.5011644409179687,0,0,1.07016
1.2405912329850253,0,0,1.2976572998046874,0,0,0.53508
1.241977234982187,0,0,1.3670891479492187,0,0,0.6115200000000001
1.24336319998838,0,0,1.3479355346679687,0,0,-0.07644000000000001
1.2447491649945732,0,0,1.3934253662109375,0,0,0.53508
1.246135241992306,0,0,1.3024457031249999,0,0,0.6115200000000001
1.2475209469848778,0,0,1.2904746948242187,0,0,0.84084
1.248909208981786,0,0,1.5490484741210937,0,0,0.91728
1.2502948399924207,0,0,1.2042834350585936,0,0,0.68796
1.2516809160006233,0,0,1.5131354492187499,0,0,0.84084
1.2530673809815198,0,0,1.3623007446289062,0,0,1.68168
1.254455179994693,0,0,1.2976572998046874,0,0,1.60524
1.2558408479962964,0,0,1.39821376953125,0,0,0.6115200000000001
1.25722675799625,0,0,1.68551796875,0,0,0.7644
1.258613500976935,0,0,1.5155296508789062,0,0,0.91728
1.2599988729925826,0,0,1.3575123413085937,0,0,0.6115200000000001
1.2613845789746847,0,0,1.388636962890625,0,0,0.99372
1.2627714879927225,0,0,1.3766659545898436,0,0,1.68168
1.264156823977828,0,0,1.656787548828125,0,0,0.6115200000000001
1.265542640001513,0,0,1.407790576171875,0,0,0.99372
1.266930254001636,0,0,1.675941162109375,0,0,0.91728
1.2683154959813692,0,0,1.2713210815429687,0,0,1.07016
1.2697012389835436,0,0,1.3000515014648437,0,0,0.91728
1.2710878709913231,0,0,1.2880804931640624,0,0,0.68796
1.2724735949886963,0,0,1.3479355346679687,0,0,0.45864
1.2738594299880788,0,0,1.4987702392578124,0,0,9.47856
1.2752450249972753,0,0,1.484405029296875,0,0,0.53508
1.2766288229904603,0,0,1.675941162109375,0,0,0.84084
1.279118701000698,0,0,1.419761584472656,0,0,0.6115200000000001
1.2805660539888777,0,0,1.3335703247070312,0,0,0.84084
1.2819545559759717,0,0,1.438915197753906,0,0,0.53508
1.2833434469939675,0,0,1.3623007446289062,0,0,1.1465999999999998
1.284730393992504,0,0,1.39821376953125,0,0,1.83456
1.2861165809736121,0,0,1.2593500732421874,0,0,0.91728
1.2875034530006815,0,0,1.2976572998046874,0,0,1.2230400000000001
1.2888902149861678,0,0,1.448492004394531,0,0,0.84084
1.290276734973304,0,0,1.3766659545898436,0,0,0.91728
1.2916631260013673,0,0,1.407790576171875,0,0,1.07016
1.2930497209890746,0,0,1.4053963745117186,0,0,1.911
1.2944513889960945,0,0,1.6639701538085936,0,0,1.2994800000000002
1.295839446975151,0,0,1.2761094848632812,0,0,1.1465999999999998
1.2972262269759085,0,0,1.8004396484374998,0,0,1.07016
1.2986138399865013,0,0,1.407790576171875,0,0,0.68796
1.2999993969860952,0,0,1.35990654296875,0,0,0.53508
1.3013860289938748,0,0,1.369483349609375,0,0,0.68796
1.3027730129833799,0,0,1.24498486328125,0,0,0.6115200000000001
1.3041588109917939,0,0,1.467645617675781,0,0,-0.45864
1.305547312978888,0,0,1.3048399047851562,0,0,0.30576000000000003
1.3069349629804492,0,0,1.7022773803710936,0,0,0.7644
1.3083211869816296,0,0,1.4604630126953124,0,0,0.6115200000000001
1.3097073379904032,0,0,1.2952630981445312,0,0,0.99372
1.31109398798435,0,0,1.2856862915039062,0,0,0.68796
1.3124803229875397,0,0,1.4532804077148436,0,0,0.45864
1.313866935990518,0,0,1.37906015625,0,0,0.22932
1.315253993991064,0,0,1.4413093994140624,0,0,0.0
1.3166401439812034,0,0,1.7094599853515624,0,0,0.6115200000000001
1.318026775988983,0,0,1.4508862060546874,0,0,1.2230400000000001
1.3194133329961915,0,0,1.3431471313476562,0,0,-8.943480000000001
1.3208006869826932,0,0,1.2282254516601563,0,0,0.6115200000000001
1.3221869299886748,0,0,1.4341267944335936,0,0,0.45864
1.32357361697359,0,0,1.4915876342773438,0,0,2.2167600000000003
1.324959878984373,0,0,1.5155296508789062,0,0,1.2230400000000001
1.3263469919911586,0,0,1.2617442749023438,0,0,0.84084
1.3277334379963577,0,0,1.3934253662109375,0,0,0.84084
1.3291190509917215,0,0,1.3479355346679687,0,0,1.07016
1.3305121829907876,0,0,1.3168109130859373,0,0,0.7644
1.3318989809777122,0,0,1.429338391113281,0,0,0.91728
1.333285075990716,0,0,1.5035586425781249,0,0,1.1465999999999998
1.3346716149826534,0,0,1.5083470458984374,0,0,1.07016
1.3360568019852508,0,0,1.3814543579101561,0,0,1.2230400000000001
1.3374422490014695,0,0,1.5514426757812498,0,0,0.99372
1.3388303249957971,0,0,1.3383587280273437,0,0,0.7644
1.3402156419761013,0,0,1.426944189453125,0,0,0.99372
1.3416015879774932,0,0,1.3479355346679687,0,0,0.84084
1.3429875529836863,0,0,1.369483349609375,0,0,0.3822
1.3443738139758352,0,0,1.446097802734375,0,0,-0.30576000000000003
1.3457602789858356,0,0,1.2617442749023438,0,0,0.07644000000000001
1.347146410989808,0,0,1.618480322265625,0,0,0.6115200000000001
1.348532690986758,0,0,1.66636435546875,0,0,1.07016
1.349918155989144,0,0,1.4867992309570313,0,0,0.68796
1.351304250973044,0,0,1.2521674682617188,0,0,0.68796
1.3526904559985269,0,0,1.37906015625,0,0,0.6115200000000001
1.3540762359916698,0,0,1.3144167114257812,0,0,0.22932
1.3554626089753583,0,0,1.4245499877929686,0,0,0.84084
1.3568487589946017,0,0,1.5107412475585937,0,0,0.91728
1.3582346679759212,0,0,1.599326708984375,0,0,0.99372
1.3596205959911458,0,0,1.5107412475585937,0,0,0.7644
1.3610062829975504,0,0,1.2856862915039062,0,0,0.6115200000000001
1.3624028589983936,0,0,1.3551181396484375,0,0,1.07016
1.3638008239795454,0,0,1.3407529296874998,0,0,1.83456
1.3651928629842587,0,0,1.4939818359375,0,0,2.06388
1.366582513001049,0,0,1.2880804931640624,0,0,1.2230400000000001
1.367967903992394,0,0,1.637633935546875,0,0,1.2994800000000002
1.3693538139923476,0,0,1.2904746948242187,0,0,0.84084
1.3707408709742595,0,0,1.218648645019531,0,0,0.7644
1.3721261140017305,0,0,1.2785036865234374,0,0,0.6115200000000001
1.3735121159988921,0,0,1.2832920898437499,0,0,1.2230400000000001
1.374899636983173,0,0,1.5586252807617187,0,0,0.07644000000000001
1.3762861199793406,0,0,1.2737152832031249,0,0,0.22932
1.3776721409813035,0,0,1.6615759521484375,0,0,0.68796
1.379059012979269,0,0,1.2665326782226562,0,0,0.91728
1.3804445889836643,0,0,1.4317325927734375,0,0,0.99372
1.3818304250016809,0,0,1.4030021728515625,0,0,0.53508
1.3832173339906149,0,0,1.4820108276367188,0,0,0.53508
1.3846033549925778,0,0,1.3311761230468748,0,0,-0.53508
1.385990282986313,0,0,1.37906015625,0,0,0.3822
1.3873766549804714,0,0,1.4604630126953124,0,0,0.91728
1.3887624899798539,0,0,1.1659762084960936,0,0,0.91728
1.3901484739908483,0,0,1.3742717529296875,0,0,0.6115200000000001
1.3915348459850065,0,0,1.3024457031249999,0,0,0.91728
1.3929207369801588,0,0,1.4724340209960938,0,0,0.45864
1.3943064429913647,0,0,1.369483349609375,0,0,1.911
1.395692722988315,0,0,1.4317325927734375,0,0,1.45236
1.397100298985606,0,0,1.3072341064453123,0,0,0.45864
1.398507392994361,0,0,1.7693150268554687,0,0,1.07016
1.399894450994907,0,0,1.4245499877929686,0,0,0.84084
1.4012808049737941,0,0,1.1013327636718748,0,0,0.84084
1.4026679179805797,0,0,1.4173673828125,0,0,0.91728
1.404053734993795,0,0,1.3814543579101561,0,0,2.06388
1.4054396809951868,0,0,1.6711527587890624,0,0,0.6115200000000001
1.40682651597308,0,0,1.3910311645507811,0,0,1.2994800000000002
1.4082116109784693,0,0,1.7262193969726563,0,0,1.07016
1.4095975019736215,0,0,1.2282254516601563,0,0,0.7644
1.410983966983622,0,0,1.2497732666015624,0,0,0.6115200000000001
1.412370079982793,0,0,1.2713210815429687,0,0,0.84084
1.4137556749919895,0,0,1.369483349609375,0,0,0.53508
1.4151416399981827,0,0,1.5945383056640625,0,0,9.172799999999999
1.4165274199913256,0,0,1.5059528442382812,0,0,0.68796
1.4179136809834745,0,0,1.7118541870117185,0,0,0.7644
1.4192995529738255,0,0,1.3120225097656248,0,0,0.84084
1.420685295976,0,0,1.2425906616210938,0,0,0.91728
1.4220714650000446,0,0,1.2665326782226562,0,0,0.84084
1.4234600589843467,0,0,1.2880804931640624,0,0,0.7644
1.4248460609815083,0,0,1.5035586425781249,0,0,-8.56128
1.4262329889752436,0,0,1.3958195678710936,0,0,0.22932
1.4276193429832347,0,0,1.3623007446289062,0,0,0.68796
1.4290057529869955,0,0,1.3383587280273437,0,0,0.91728
1.4304038839763962,0,0,1.2761094848632812,0,0,0.84084
1.4317910899990238,0,0,1.3431471313476562,0,0,0.84084
1.4331772029981948,0,0,1.4221557861328125,0,0,1.07016
1.4345643720007502,0,0,1.3718775512695311,0,0,1.911
1.4359494849923067,0,0,1.4772224243164063,0,0,1.75812
1.4373358199954964,0,0,1.3144167114257812,0,0,1.2230400000000001
1.4387240819924045,0,0,1.4101847778320311,0,0,0.99372
1.440109823975945,0,0,1.3910311645507811,0,0,0.84084
1.4414953639789019,0,0,1.4724340209960938,0,0,0.7644
1.4428821799810976,0,0,1.4245499877929686,0,0,0.68796
1.4442672939912882,0,0,1.4173673828125,0,0,0.84084
1.4456529809976928,0,0,1.649604943847656,0,0,1.07016
1.447039815975586,0,0,1.2425906616210938,0,0,1.2230400000000001
1.448425540002063,0,0,1.7956512451171873,0,0,0.68796
1.4498111909779254,0,0,1.3359645263671873,0,0,0.91728
1.4511974519991782,0,0,1.3742717529296875,0,0,0.53508
1.4525834349915385,0,0,1.2617442749023438,0,0,0.6115200000000001
1.4539696039864793,0,0,1.3910311645507811,0,0,0.3822
1.4553554949816316,0,0,1.426944189453125,0,0,-0.6115200000000001
1.4567418299848214,0,0,1.3144167114257812,0,0,0.0
1.4581306839827448,0,0,1.618480322265625,0,0,-9.01992
1.459516871982487,0,0,1.4413093994140624,0,0,0.84084
1.4609032439766452,0,0,1.3646949462890625,0,0,0.91728
1.4622893939958885,0,0,1.2306196533203124,0,0,0.91728
1.4636756739928387,0,0,1.2880804931640624,0,0,0.6115200000000001
1.4650615279970225,0,0,1.4149731811523436,0,0,0.30576000000000003
1.4664575299830176,0,0,1.455674609375,0,0,1.37592
1.467844086990226,0,0,1.659181750488281,0,0,0.84084
1.469230903981952,0,0,1.3934253662109375,0,0,0.84084
1.4706176279869396,0,0,1.139639990234375,0,0,0.6115200000000001
1.472002722992329,0,0,1.2617442749023438,0,0,0.53508
1.473388817976229,0,0,1.5275006591796874,0,0,0.91728
1.4747786719817668,0,0,1.4245499877929686,0,0,1.911
1.4761818219849374,0,0,1.5107412475585937,0,0,1.2994800000000002
1.4775703240011353,0,0,1.3862427612304686,0,0,1.1465999999999998
1.4789577889896464,0,0,1.5466542724609373,0,0,0.84084
1.4803442909906153,0,0,1.0893617553710937,0,0,0.84084
1.4817303479940165,0,0,1.5155296508789062,0,0,0.68796
1.4831164609931875,0,0,1.3742717529296875,0,0,1.45236
1.4866623819980305,0,0,1.465251416015625,0,0,0.3822
1.488099660986336,0,0,1.5562310791015623,0,0,0.22932
1.4894871629949193,0,0,1.5418658691406248,0,0,1.2230400000000001
1.490871090994915,0,0,1.4006079711914061,0,0,0.7644
1.4922541119740345,0,0,1.2425906616210938,0,0,0.91728
1.4936372069932986,0,0,1.484405029296875,0,0,1.1465999999999998
1.4950203379848972,0,0,1.39821376953125,0,0,1.60524
1.4964034329750575,0,0,1.446097802734375,0,0,1.83456
1.497787193977274,0,0,1.369483349609375,0,0,1.07016
1.4991700109967496,0,0,1.5897499023437498,0,0,0.99372
1.5005529209738597,0,0,1.2928688964843749,0,0,0.7644
1.501935385982506,0,0,1.1923124267578125,0,0,0.53508
1.5033183689811267,0,0,1.3311761230468748,0,0,0.99372
1.504700833989773,0,0,1.4125789794921875,0,0,0.53508
1.5060833359893877,0,0,1.5322890624999999,0,0,0.53508
1.507465782982763,0,0,1.2976572998046874,0,0,1.1465999999999998
1.508848395984387,0,0,1.6160861206054686,0,0,0.6115200000000001
1.5102315279946197,0,0,1.2401964599609374,0,0,0.53508
1.5116148819797672,0,0,1.429338391113281,0,0,0.7644
1.5129975879972335,0,0,1.3120225097656248,0,0,0.68796
1.514379978994839,0,0,1.4604630126953124,0,0,0.53508
1.5157823509944137,0,0,1.3766659545898436,0,0,-0.84084
1.5171711859875359,0,0,1.3407529296874998,0,0,0.45864
1.518557058996521,0,0,1.467645617675781,0,0,0.53508
1.5199389679764863,0,0,1.3168109130859373,0,0,0.99372
1.5213310629769694,0,0,1.4245499877929686,0,0,0.84084
1.5227149349811953,0,0,1.3359645263671873,0,0,0.91728
1.524096955981804,0,0,1.3958195678710936,0,0,0.91728
1.5254794950014912,0,0,1.3215993164062498,0,0,0.84084
1.5268633859814145,0,0,1.4891934326171874,0,0,1.1465999999999998
1.5282447949866764,0,0,1.4101847778320311,0,0,0.68796
1.5296831669984385,0,0,1.7717092285156248,0,0,1.2230400000000001
1.531087890994968,0,0,1.3958195678710936,0,0,0.91728
1.5324710040003993,0,0,1.3431471313476562,0,0,1.07016
1.5338536170020234,0,0,1.388636962890625,0,0,1.1465999999999998
1.535236156982137,0,0,1.2689268798828124,0,0,1.83456
1.536619084974518,0,0,1.3814543579101561,0,0,1.2994800000000002
1.5380013089743443,0,0,1.3742717529296875,0,0,0.84084
1.539384366973536,0,0,1.7693150268554687,0,0,1.07016
1.5407673129811883,0,0,1.3575123413085937,0,0,0.84084
1.5421497599745635,0,0,1.2952630981445312,0,0,0.84084
1.5435329839820042,0,0,1.3407529296874998,0,0,0.7644
1.5449158749834169,0,0,1.2832920898437499,0,0,0.45864
1.5462982289900538,0,0,1.4317325927734375,0,0,-0.7644
1.5476826379890554,0,0,1.4700398193359374,0,0,-0.15288000000000002
1.549066084990045,0,0,1.7238251953125,0,0,0.68796
1.5504496789944824,0,0,1.2904746948242187,0,0,0.45864
1.5518336439854465,0,0,1.4221557861328125,0,0,0.91728
1.5532158499991056,0,0,1.3431471313476562,0,0,0.91728
1.5545994629792403,0,0,1.446097802734375,0,0,0.22932
1.5559811689890921,0,0,1.4867992309570313,0,0,0.53508
1.5573635599866975,0,0,1.4149731811523436,0,0,1.1465999999999998
1.5587470069876872,0,0,1.3742717529296875,0,0,0.6115200000000001
1.560128471988719,0,0,1.3958195678710936,0,0,0.91728
1.5615100289869588,0,0,1.5251064575195312,0,0,0.84084
1.5629134759947192,0,0,1.3359645263671873,0,0,0.68796
1.5643257740011904,0,0,1.4125789794921875,0,0,0.30576000000000003
1.5657283309847116,0,0,1.3024457031249999,0,0,1.75812
1.5671085919893812,0,0,1.5705962890624998,0,0,1.5288
1.5684828539961018,0,0,1.4939818359375,0,0,0.91728
1.5698565779894125,0,0,1.707065783691406,0,0,1.1465999999999998
1.5712321729806717,0,0,1.350329736328125,0,0,0.6115200000000001
1.5726060089946259,0,0,1.3718775512695311,0,0,0.68796
1.5739793999819085,0,0,1.3814543579101561,0,0,0.91728
1.5754383819876239,0,0,1.3910311645507811,0,0,1.1465999999999998
1.5768368839926552,0,0,1.37906015625,0,0,0.15288000000000002
1.5782113119785208,0,0,1.3239935180664062,0,0,0.84084
1.5795972589985467,0,0,1.7717092285156248,0,0,0.7644
1.5809807979967445,0,0,1.3455413330078123,0,0,0.91728
1.582364151981892,0,0,1.369483349609375,0,0,0.53508
1.583748264994938,0,0,1.2689268798828124,0,0,0.84084
1.5851317669730633,0,0,1.3383587280273437,0,0,0.84084
1.586516268987907,0,0,1.5251064575195312,0,0,-0.30576000000000003
1.5879167709790636,0,0,1.5035586425781249,0,0,0.22932
1.589301143976627,0,0,1.6232687255859375,0,0,0.30576000000000003
1.590685904986458,0,0,1.4700398193359374,0,0,1.07016
1.5920683879812714,0,0,1.3383587280273437,0,0,0.7644
1.593451501976233,0,0,1.2282254516601563,0,0,0.68796
1.5948361519840546,0,0,1.39821376953125,0,0,0.7644
1.5962183020019438,0,0,1.39821376953125,0,0,1.83456
1.5976012489991263,0,0,1.4532804077148436,0,0,0.84084
1.598984935990302,0,0,1.5849614990234373,0,0,0.84084
1.6003679929999635,0,0,1.5011644409179687,0,0,0.91728
1.6017517729778774,0,0,1.2880804931640624,0,0,0.99372
1.603135460987687,0,0,1.216254443359375,0,0,0.84084
1.6045272769988514,0,0,1.3766659545898436,0,0,0.68796
1.6059162419987842,0,0,1.22583125,0,0,1.37592
1.6073001889744774,0,0,1.5658078857421873,0,0,1.68168
1.6086832829751074,0,0,1.3455413330078123,0,0,1.2230400000000001
1.6100665449921507,0,0,1.5729904907226562,0,0,0.7644
1.6114500839903485,0,0,1.3311761230468748,0,0,0.91728
1.6128336049732752,0,0,1.4820108276367188,0,0,0.91728
1.6142173659754917,0,0,1.350329736328125,0,0,0.68796
1.6156008309917524,0,0,1.4604630126953124,0,0,0.53508
1.6169839809881523,0,0,1.5298948608398437,0,0,0.15288000000000002
1.6183671679755207,0,0,1.2665326782226562,0,0,0.45864
1.6197502629947849,0,0,1.5682020874023437,0,0,0.7644
1.6211332099919673,0,0,1.3814543579101561,0,0,0.84084
1.6225173409911804,0,0,1.5035586425781249,0,0,0.84084
1.6238996949978173,0,0,1.1348515869140625,0,0,0.6115200000000001
1.6252824379771482,0,0,1.4053963745117186,0,0,0.68796
1.6266664959839545,0,0,1.4101847778320311,0,0,-0.30576000000000003
1.6280496459803544,0,0,1.419761584472656,0,0,0.6115200000000001
1.6294330919918139,0,0,1.5538368774414062,0,0,0.53508
1.6308173169963993,0,0,1.5682020874023437,0,0,1.2230400000000001
1.6321995409962256,0,0,1.4173673828125,0,0,0.91728
1.6335822279797867,0,0,1.2689268798828124,0,0,0.99372
1.6349658229737543,0,0,1.4724340209960938,0,0,0.91728
1.6363493439857848,0,0,1.3144167114257812,0,0,1.37592
1.637732622999465,0,0,1.438915197753906,0,0,1.75812
1.6391161809733603,0,0,1.4317325927734375,0,0,0.84084
1.6404999789956491,0,0,1.5849614990234373,0,0,0.68796
1.641883443982806,0,0,1.3311761230468748,0,0,0.7644
1.6432671869988553,0,0,1.2401964599609374,0,0,0.91728
1.64465079997899,0,0,1.5251064575195312,0,0,0.84084
1.6460417839989532,0,0,1.3000515014648437,0,0,1.75812
1.6474260639806744,0,0,1.5179238525390624,0,0,0.45864
1.6488102879957296,0,0,1.3718775512695311,0,0,0.7644
1.650200420001056,0,0,1.5969325073242187,0,0,0.91728
1.6515843289962504,0,0,1.209071838378906,0,0,0.84084
1.6529686269932427,0,0,1.5251064575195312,0,0,0.45864
1.6543520179984625,0,0,1.3096283081054687,0,0,0.91728
1.6557359089783859,0,0,1.5035586425781249,0,0,2.2931999999999997
1.6571195229771547,0,0,1.5682020874023437,0,0,-0.3822
1.6585045800020453,0,0,1.3168109130859373,0,0,0.0
1.6598876929783728,0,0,1.5179238525390624,0,0,0.45864
1.661271194985602,0,0,1.3048399047851562,0,0,0.7644
1.6626558269781526,0,0,1.4125789794921875,0,0,0.99372
1.6640359589946456,0,0,1.3239935180664062,0,0,0.53508
1.6654102759785019,0,0,1.4413093994140624,0,0,0.68796
1.6667925189831294,0,0,1.2282254516601563,0,0,1.07016
1.668175649974728,0,0,1.3311761230468748,0,0,1.5288
1.6696721509797499,0,0,1.3742717529296875,0,0,0.68796
1.6710698939859867,0,0,1.2856862915039062,0,0,1.2230400000000001
1.6724545999895781,0,0,1.35990654296875,0,0,0.68796
1.673840860981727,0,0,1.3168109130859373,0,0,0.6115200000000001
1.6752218259789515,0,0,1.3575123413085937,0,0,0.84084
1.6765959949989337,0,0,1.3168109130859373,0,0,1.68168
1.6779697189922445,0,0,1.419761584472656,0,0,1.83456
1.6793823319894727,0,0,1.3455413330078123,0,0,1.1465999999999998
1.6807661669736262,0,0,1.8171990600585937,0,0,0.7644
1.6821497619966976,0,0,1.369483349609375,0,0,0.91728
1.6835345599974971,0,0,1.2210428466796874,0,0,0.7644
1.684918247978203,0,0,1.3407529296874998,0,0,0.7644
1.6863018049916718,0,0,1.3263877197265623,0,0,1.1465999999999998
1.6876878259936348,0,0,1.438915197753906,0,0,-0.3822
1.6890729389851913,0,0,1.4508862060546874,0,0,0.6115200000000001
1.6904569229809567,0,0,1.7381904052734374,0,0,0.6115200000000001
1.6918412019731477,0,0,1.3527239379882812,0,0,0.6115200000000001
1.6932403519749641,0,0,1.3838485595703125,0,0,1.2230400000000001
1.6946260400000028,0,0,1.3168109130859373,0,0,0.99372
1.6960187449876685,0,0,1.2904746948242187,0,0,0.6115200000000001
1.6974096359917894,0,0,1.419761584472656,0,0,0.15288000000000002
1.6987966379965656,0,0,1.3431471313476562,0,0,0.15288000000000002
1.7001802139857318,0,0,1.6136919189453125,0,0,0.68796
1.7015639199817088,0,0,1.3192051147460937,0,0,1.1465999999999998
1.7029475519957487,0,0,1.446097802734375,0,0,1.37592
1.7043443500006106,0,0,1.3646949462890625,0,0,0.68796
1.705728425993584,0,0,1.5490484741210937,0,0,0.7644
1.7071124099893495,0,0,1.43652099609375,0,0,1.5288
1.7084968379931524,0,0,1.5418658691406248,0,0,1.07016
1.7098805619752966,0,0,1.2808978881835937,0,0,0.84084
1.7112645269953646,0,0,1.3575123413085937,0,0,0.91728
1.712648287997581,0,0,1.3862427612304686,0,0,0.84084
1.7140320309845265,0,0,1.2401964599609374,0,0,0.99372
1.7154156629985664,0,0,1.4006079711914061,0,0,1.07016
1.7167985169799067,0,0,1.2425906616210938,0,0,1.1465999999999998
1.718181944976095,0,0,1.3862427612304686,0,0,1.2994800000000002
1.7195664099999703,0,0,1.3215993164062498,0,0,1.07016
1.7209500229801051,0,0,1.5562310791015623,0,0,0.84084
1.7223336919851135,0,0,1.3383587280273437,0,0,0.7644
1.7237174159963615,0,0,1.3263877197265623,0,0,0.3822
1.7251009739993606,0,0,1.3455413330078123,0,0,1.07016
1.726482327998383,0,0,1.3335703247070312,0,0,1.07016
1.7278560889826622,0,0,1.3766659545898436,0,0,0.15288000000000002
1.7292297579988372,0,0,1.2928688964843749,0,0,0.22932
1.7306113529775757,0,0,1.5849614990234373,0,0,0.68796
1.7321665379859041,0,0,1.3287819213867187,0,0,0.45864
1.7335910389956553,0,0,1.4053963745117186,0,0,0.6115200000000001
1.7349812269967515,0,0,1.4532804077148436,0,0,0.91728
1.7363641549891327,0,0,1.4772224243164063,0,0,0.6115200000000001
1.7377645639935508,0,0,1.4604630126953124,0,0,0.0
1.7391480099759065,0,0,1.4413093994140624,0,0,0.7644
1.7405310869798996,0,0,1.5298948608398437,0,0,0.3822
1.7419137919787318,0,0,1.5203180541992187,0,0,1.07016
1.7432973870018031,0,0,1.388636962890625,0,0,0.99372
1.7446800739853643,0,0,1.199495031738281,0,0,1.07016
1.746062335994793,0,0,1.37906015625,0,0,0.6115200000000001
1.7474452079914045,0,0,1.407790576171875,0,0,20
1.7488286919833627,0,0,1.6639701538085936,0,0,0.0
1.7502112679940183,0,0,1.5155296508789062,0,0,0.91728
1.7515945289924275,0,0,1.448492004394531,0,0,1.1465999999999998
1.7529765130020678,0,0,1.2234370483398436,0,0,0.7644
1.754359125974588,0,0,1.2928688964843749,0,0,0.99372
1.7557431279856246,0,0,1.3742717529296875,0,0,0.91728
1.7571259449759964,0,0,1.5107412475585937,0,0,1.37592
1.7585095019894652,0,0,1.4341267944335936,0,0,0.3822
1.7598916339920834,0,0,1.3646949462890625,0,0,1.2230400000000001
1.7612747289822437,0,0,1.5418658691406248,0,0,0.84084
1.7626604899996892,0,0,1.3096283081054687,0,0,0.84084
1.764105139998719,0,0,1.5729904907226562,0,0,0.68796
1.7654811419779435,0,0,1.39821376953125,0,0,0.6115200000000001
1.7668727179989219,0,0,1.4341267944335936,0,0,0.6115200000000001
1.7682477759954054,0,0,1.5131354492187499,0,0,9.01992
1.7696214629977476,0,0,1.3144167114257812,0,0,0.6115200000000001
1.770996760984417,0,0,1.4053963745117186,0,0,0.7644
1.772370096994564,0,0,1.2593500732421874,0,0,0.68796
1.7737429879780393,0,0,1.3335703247070312,0,0,0.6115200000000001
1.775119267986156,0,0,1.149216796875,0,0,0.7644
1.7765039739897475,0,0,1.4939818359375,0,0,0.45864
1.777878716995474,0,0,1.2425906616210938,0,0,1.2994800000000002
1.7792772929824423,0,0,1.3359645263671873,0,0,0.68796
1.7807364229811355,0,0,1.4221557861328125,0,0,0.53508
1.7821149439841975,0,0,1.5346832641601562,0,0,1.45236
1.7834921309840865,0,0,1.5059528442382812,0,0,0.6115200000000001
1.7848655229900032,0,0,1.2425906616210938,0,0,0.91728
1.7862397099961527,0,0,1.4245499877929686,0,0,0.84084
1.7876254339935258,0,0,1.4939818359375,0,0,1.75812
1.7890086209808942,0,0,1.675941162109375,0,0,1.5288
1.7903971979976632,0,0,1.446097802734375,0,0,1.1465999999999998
1.7917795879766345,0,0,1.649604943847656,0,0,0.68796
1.793162053974811,0,0,1.2737152832031249,0,0,0.84084
1.7945465369848534,0,0,1.2234370483398436,0,0,0.84084
1.7959282429947052,0,0,1.3551181396484375,0,0,0.7644
1.7973110039893072,0,0,1.3670891479492187,0,0,0.68796
1.7986949509941041,0,0,1.5035586425781249,0,0,0.84084
1.800076822983101,0,0,1.4317325927734375,0,0,0.99372
1.8015076209849212,0,0,1.675941162109375,0,0,0.68796
1.8028950119914953,0,0,1.2737152832031249,0,0,0.91728
1.804278550989693,0,0,1.1923124267578125,0,0,20
1.8056624789896887,0,0,1.3407529296874998,0,0,0.0
1.8070406109909527,0,0,1.599326708984375,0,0,0.30576000000000003
1.8084152980009094,0,0,1.4173673828125,0,0,-0.22932
1.8097906149923801,0,0,1.4030021728515625,0,0,0.15288000000000002
1.8111728949879762,0,0,1.3527239379882812,0,0,0.6115200000000001
1.8125580639753025,0,0,1.3024457031249999,0,0,1.5288
1.8139409729919862,0,0,1.3958195678710936,0,0,0.7644
1.815324030991178,0,0,1.2952630981445312,0,0,0.7644
1.8167070509807672,0,0,1.3623007446289062,0,0,0.45864
1.8180898129940033,0,0,1.3862427612304686,0,0,0.53508
1.8194733329873998,0,0,1.4006079711914061,0,0,1.1465999999999998
1.8208563169755507,0,0,1.2928688964843749,0,0,0.6115200000000001
1.8222505599842407,0,0,1.7741034301757812,0,0,1.07016
1.8236342099844478,0,0,1.3048399047851562,0,0,0.91728
1.825023933983175,0,0,1.2761094848632812,0,0,0.84084
1.8264071579906158,0,0,1.438915197753906,0,0,0.84084
1.8277903639827855,0,0,1.3215993164062498,0,0,1.98744
1.8291736999817658,0,0,1.4341267944335936,0,0,1.45236
1.8305577019928023,0,0,1.2665326782226562,0,0,1.2230400000000001
1.83193964799284,0,0,1.6208745239257811,0,0,0.91728
1.8333222979854327,0,0,1.2378022583007813,0,0,0.84084
1.834706041001482,0,0,1.2808978881835937,0,0,0.84084
1.8360882469860371,0,0,1.4006079711914061,0,0,0.45864
1.837466859986307,0,0,1.3000515014648437,0,0,0.68796
1.8388478619745001,0,0,1.5083470458984374,0,0,-0.30576000000000003
1.8402314199774992,0,0,1.2808978881835937,0,0,0.15288000000000002
1.8416145329829305,0,0,1.7884686401367187,0,0,-9.24924
1.842998201987939,0,0,1.37906015625,0,0,0.22932
1.8443808519805316,0,0,1.3000515014648437,0,0,0.84084
1.8457631880010013,0,0,1.3000515014648437,0,0,0.84084
1.84714607897331,0,0,1.39821376953125,0,0,0.45864
1.8485290989920031,0,0,1.4413093994140624,0,0,0.45864
1.8499121200002264,0,0,1.4173673828125,0,0,0.84084
1.851295324973762,0,0,1.2401964599609374,0,0,0.84084
1.852678160998039,0,0,1.4772224243164063,0,0,0.84084
1.8540647740010172,0,0,1.2641384765625,0,0,0.84084
1.8554484799969941,0,0,1.2856862915039062,0,0,0.6115200000000001
1.8568311299895868,0,0,1.4341267944335936,0,0,0.91728
1.8582138729980215,0,0,1.3144167114257812,0,0,1.98744
1.8595975229982287,0,0,1.4317325927734375,0,0,1.60524
1.8609796359960455,0,0,1.3096283081054687,0,0,1.07016
1.8623625089821871,0,0,1.6615759521484375,0,0,1.1465999999999998
1.8637458259763662,0,0,1.2473790649414063,0,0,0.7644
1.8651283649960533,0,0,1.3120225097656248,0,0,0.68796
1.8665118299832102,0,0,1.4987702392578124,0,0,0.6115200000000001
1.8679003689903766,0,0,1.429338391113281,0,0,1.1465999999999998
1.8692832599917892,0,0,1.5275006591796874,0,0,0.53508
1.8706670029787347,0,0,1.2832920898437499,0,0,0.6115200000000001
1.872049467987381,0,0,1.618480322265625,0,0,0.7644
1.8734316919872072,0,0,1.3120225097656248,0,0,0.68796
1.8748143049888313,0,0,1.4173673828125,0,0,0.6115200000000001
1.8761956410016865,0,0,1.2473790649414063,0,0,0.7644
1.8775755319802556,0,0,1.2976572998046874,0,0,0.84084
1.8790147919789888,0,0,1.3431471313476562,0,0,-0.6115200000000001
1.8804095719824545,0,0,1.3455413330078123,0,0,0.15288000000000002
1.8817930739896838,0,0,1.659181750488281,0,0,0.84084
1.8831764089991339,0,0,1.446097802734375,0,0,0.68796
1.884558762976667,0,0,1.407790576171875,0,0,0.99372
1.885941524989903,0,0,1.2761094848632812,0,0,0.84084
1.8873247489973437,0,0,1.407790576171875,0,0,0.53508
1.8887071769859176,0,0,1.3646949462890625,0,0,1.37592
1.8900900679873303,0,0,1.5107412475585937,0,0,1.98744
1.8914726439979859,0,0,1.5562310791015623,0,0,0.68796
1.892854867997812,0,0,1.5370774658203123,0,0,1.2230400000000001
1.8942376479972154,0,0,1.0797849487304687,0,0,0.91728
1.8956207799783442,0,0,1.2569558715820313,0,0,0.6115200000000001
1.8970030969940126,0,0,1.3910311645507811,0,0,0.99372
1.8984044319950044,0,0,1.3910311645507811,0,0,1.60524
1.8997879339731298,0,0,1.5107412475585937,0,0,0.99372
1.9011709549813531,0,0,1.3359645263671873,0,0,1.1465999999999998
1.9025549939833581,0,0,1.6065093139648436,0,0,0.68796
1.9039369589881971,0,0,1.2761094848632812,0,0,0.99372
1.9053195169835817,0,0,1.4437036010742186,0,0,0.68796
1.9067038520006463,0,0,1.37906015625,0,0,0.68796
1.908085631992435,0,0,1.5179238525390624,0,0,0.30576000000000003
1.9094678379769903,0,0,1.5035586425781249,0,0,-0.6115200000000001
1.9108522659807932,0,0,1.3623007446289062,0,0,0.84084
1.9122503050020896,0,0,1.668758557128906,0,0,1.07016
1.9136333249916788,0,0,1.2234370483398436,0,0,0.84084
1.9150165489991195,0,0,1.4006079711914061,0,0,1.07016
1.9163988289947156,0,0,1.13006318359375,0,0,0.91728
1.9177813679852989,0,0,1.4221557861328125,0,0,0.7644
1.9191641669895034,0,0,1.3718775512695311,0,0,0.45864
1.9205469279841054,0,0,1.3239935180664062,0,0,0.99372
1.9219293009955436,0,0,1.4437036010742186,0,0,0.68796
1.9233122099831235,0,0,1.6472107421875,0,0,0.91728
1.9246944899787195,0,0,1.4820108276367188,0,0,0.84084
1.926077047974104,0,0,1.3335703247070312,0,0,0.7644
1.9274596609757282,0,0,1.2761094848632812,0,0,0.91728
1.928842403984163,0,0,1.3479355346679687,0,0,2.14032
1.9302245719882194,0,0,1.5394716674804687,0,0,1.5288
1.931607370992424,0,0,1.419761584472656,0,0,0.68796
1.9329897249990609,0,0,1.6472107421875,0,0,0.99372
1.934372078976594,0,0,1.3335703247070312,0,0,1.07016
1.935755969985621,0,0,1.2856862915039062,0,0,1.07016
1.9373007659742143,0,0,1.3335703247070312,0,0,0.84084
1.9386986939935014,0,0,1.3311761230468748,0,0,1.83456
1.9400806769845076,0,0,1.6711527587890624,0,0,1.1465999999999998
1.9414634199929424,0,0,1.3718775512695311,0,0,0.99372
1.9428467559919227,0,0,1.7166425903320313,0,0,0.68796
1.9442284059769008,0,0,1.2785036865234374,0,0,0.6115200000000001
1.9456114269851241,0,0,1.3096283081054687,0,0,0.84084
1.9469940029957797,0,0,1.419761584472656,0,0,0.68796
1.9483759309805464,0,0,1.5059528442382812,0,0,0.68796
1.9497584139753599,0,0,1.4724340209960938,0,0,-0.6115200000000001
1.9511421569914091,0,0,1.3718775512695311,0,0,0.07644000000000001
1.9525243259849958,0,0,1.697488977050781,0,0,0.68796
1.9539070499886293,0,0,1.2306196533203124,0,0,0.68796
1.9553379779972602,0,0,1.24498486328125,0,0,0.99372
1.9567222199984826,0,0,1.3455413330078123,0,0,-9.172799999999999
1.9581056299794,0,0,1.429338391113281,0,0,0.53508
1.9594895579793956,0,0,1.3359645263671873,0,0,0.45864
1.9608719300013036,0,0,1.4030021728515625,0,0,1.2230400000000001
1.9622544509766158,0,0,1.2713210815429687,0,0,0.91728
1.963636582979234,0,0,1.3024457031249999,0,0,1.1465999999999998
1.9651474540005438,0,0,1.2928688964843749,0,0,0.53508
1.9665480109979399,0,0,1.3479355346679687,0,0,0.7644
1.9679248459869996,0,0,1.3718775512695311,0,0,0.6115200000000001
1.9692989039758686,0,0,1.2473790649414063,0,0,1.98744
1.9706744799914304,0,0,1.2737152832031249,0,0,1.83456
1.9720475939975586,0,0,1.2737152832031249,0,0,0.91728
1.9734205959830433,0,0,1.7645266235351562,0,0,1.07016
1.9747973759949673,0,0,1.3623007446289062,0,0,0.7644
1.9761705449782312,0,0,1.3096283081054687,0,0,0.91728
1.9775438249926083,0,0,1.2497732666015624,0,0,0.99372
1.9789280119875912,0,0,1.35990654296875,0,0,1.1465999999999998
1.980301421979675,0,0,1.3862427612304686,0,0,0.0
1.9816748129960615,0,0,1.3000515014648437,0,0,0.99372
1.9830504629935604,0,0,1.7286135986328124,0,0,0.7644
1.984425446979003,0,0,1.3479355346679687,0,0,0.91728
1.9857984489935916,0,0,1.2928688964843749,0,0,0.84084
1.9871812099881936,0,0,1.2856862915039062,0,0,1.1465999999999998
1.9885646569891833,0,0,1.455674609375,0,0,0.68796
1.9899474369885866,0,0,1.448492004394531,0,0,-0.3822
1.991332382982364,0,0,1.5107412475585937,0,0,0.30576000000000003
1.992716421984369,0,0,1.7405846069335937,0,0,0.53508
1.9940997759986203,0,0,1.350329736328125,0,0,0.53508
1.9954832599905785,0,0,1.2497732666015624,0,0,0.7644
1.9968901689862832,0,0,1.2856862915039062,0,0,0.84084
1.9982738749822602,0,0,1.5107412475585937,0,0,0.7644
1.9996647279767785,0,0,1.426944189453125,0,0,1.5288
2.001048470992828,0,0,1.446097802734375,0,0,1.68168
2.002432750974549,0,0,1.2282254516601563,0,0,0.7644
2.003815660980763,0,0,1.3910311645507811,0,0,1.2230400000000001
2.0051988659834024,0,0,1.3527239379882812,0,0,0.68796
2.006583423994016,0,0,1.2665326782226562,0,0,0.91728
2.0079659079783596,0,0,1.455674609375,0,0,0.7644
2.0093488169950433,0,0,1.5035586425781249,0,0,1.60524
2.010733151983004,0,0,1.448492004394531,0,0,0.6115200000000001
2.0121158399851993,0,0,1.2593500732421874,0,0,1.37592
2.0134989529906306,0,0,1.5346832641601562,0,0,0.68796
2.0148794919950888,0,0,1.2856862915039062,0,0,0.6115200000000001
2.016252623987384,0,0,1.4963760375976562,0,0,0.68796
2.017626273998758,0,0,1.4508862060546874,0,0,0.68796
2.0190439430007245,0,0,1.3910311645507811,0,0,0.68796
2.0204313329886645,0,0,1.4724340209960938,0,0,9.09636
2.0218142609810457,0,0,1.197100830078125,0,0,0.6115200000000001
2.0231973379850388,0,0,1.5562310791015623,0,0,0.68796
2.0245796729868744,0,0,1.4101847778320311,0,0,0.99372
2.02596200798871,0,0,1.3646949462890625,0,0,0.99372
2.0273558249755297,0,0,1.2497732666015624,0,0,0.91728
2.0287379199871793,0,0,1.369483349609375,0,0,0.6115200000000001
2.030158309993567,0,0,1.3838485595703125,0,0,-0.30576000000000003
2.031586386001436,0,0,1.5131354492187499,0,0,0.45864
2.032973757974105,0,0,1.5179238525390624,0,0,0.53508
2.0343567419913597,0,0,1.426944189453125,0,0,1.2230400000000001
2.0357406139955856,0,0,1.43652099609375,0,0,0.99372
2.037123078975128,0,0,1.254561669921875,0,0,20
2.0385105819732416,0,0,1.2976572998046874,0,0,0.0
2.0398931949748658,0,0,1.4173673828125,0,0,1.07016
2.0412754379794933,0,0,1.6831237670898436,0,0,20
2.042676216980908,0,0,1.5322890624999999,0,0,0.0
2.0440586079785135,0,0,1.4796166259765624,0,0,0.6115200000000001
2.0454416289867368,0,0,1.3215993164062498,0,0,0.7644
2.0468258899927605,0,0,1.24498486328125,0,0,0.53508
2.048207965999609,0,0,1.2928688964843749,0,0,1.07016
2.0495903019909747,0,0,1.3168109130859373,0,0,1.5288
2.050977562990738,0,0,1.4963760375976562,0,0,1.07016
2.052395175996935,0,0,1.3383587280273437,0,0,0.84084
2.053779306996148,0,0,1.6136919189453125,0,0,0.7644
2.055180419993121,0,0,1.3144167114257812,0,0,0.91728
2.0565650149947032,0,0,1.4317325927734375,0,0,0.91728
2.0579484989866614,0,0,1.35990654296875,0,0,0.53508
2.0593261669855565,0,0,1.2880804931640624,0,0,0.6115200000000001
2.060699465975631,0,0,1.5634136840820312,0,0,-0.7644
2.062074727000436,0,0,1.3742717529296875,0,0,0.0
2.0634584889921825,0,0,1.5203180541992187,0,0,0.68796
2.0648409169807564,0,0,1.1947066284179686,0,0,0.53508
2.0662234739866108,0,0,1.3575123413085937,0,0,0.99372
2.0676061429840047,0,0,1.2785036865234374,0,0,0.53508
2.0689883119775914,0,0,1.4437036010742186,0,0,0.53508
2.0703707769862376,0,0,1.2856862915039062,0,0,0.68796
2.0717547969834413,0,0,1.3934253662109375,0,0,1.60524
2.0731370959838387,0,0,1.3287819213867187,0,0,0.84084
2.074520745984046,0,0,1.5466542724609373,0,0,0.99372
2.0759100999857765,0,0,1.3551181396484375,0,0,0.7644
2.0772941949835513,0,0,1.3192051147460937,0,0,0.7644
2.0786790299753193,0,0,1.350329736328125,0,0,0.53508
2.080060179985594,0,0,1.3072341064453123,0,0,2.06388
2.0814428119920194,0,0,1.5490484741210937,0,0,1.5288
2.082827276986791,0,0,1.3407529296874998,0,0,1.07016
2.084209093998652,0,0,1.62805712890625,0,0,0.99372
2.085591299983207,0,0,1.2282254516601563,0,0,0.6115200000000001
2.0869870049937163,0,0,1.2928688964843749,0,0,0.6115200000000001
2.0883705629967153,0,0,1.2880804931640624,0,0,1.1465999999999998
2.0897527869965415,0,0,1.2832920898437499,0,0,0.84084
2.0911357889999636,0,0,1.4867992309570313,0,0,0.0
2.0925182359933387,0,0,1.3623007446289062,0,0,0.3822
2.093901015992742,0,0,1.707065783691406,0,0,0.6115200000000001
2.0952839809760917,0,0,1.2330138549804688,0,0,0.91728
2.096666704979725,0,0,1.2689268798828124,0,0,1.1465999999999998
2.09804944798816,0,0,1.3407529296874998,0,0,0.84084
2.099432116985554,0,0,1.4413093994140624,0,0,0.7644
2.1008146370004397,0,0,1.4796166259765624,0,0,0.15288000000000002
2.102197175991023,0,0,1.4030021728515625,0,0,0.68796
2.103579455986619,0,0,1.4867992309570313,0,0,0.45864
2.1049619400000665,0,0,1.2785036865234374,0,0,0.84084
2.1063441639998928,0,0,1.35990654296875,0,0,1.07016
2.107726850983454,0,0,1.1563994018554686,0,0,-9.09636
2.109109630982857,0,0,1.4221557861328125,0,0,0.68796
2.1105114289966878,0,0,1.3551181396484375,0,0,1.2994800000000002
2.1118941719760187,0,0,1.5298948608398437,0,0,1.83456
2.1132838409976102,0,0,1.3910311645507811,0,0,0.84084
2.1146679910016246,0,0,1.5705962890624998,0,0,1.07016
2.116049400996417,0,0,1.3718775512695311,0,0,0.7644
2.117434087995207,0,0,1.3646949462890625,0,0,0.3822
2.11881803398137,0,0,1.4796166259765624,0,0,0.68796
2.1202496649930254,0,0,1.3623007446289062,0,0,1.37592
2.1216949629888404,0,0,1.3838485595703125,0,0,1.83456
2.123155074979877,0,0,1.3383587280273437,0,0,1.2994800000000002
2.1245990399911534,0,0,1.5634136840820312,0,0,0.99372
2.126050781982485,0,0,1.3575123413085937,0,0,0.68796
2.1274940239964053,0,0,1.3287819213867187,0,0,0.7644
2.129370149981696,0,0,1.4772224243164063,0,0,0.53508
2.1308675949985627,0,0,1.4030021728515625,0,0,0.7644
2.1323609099781606,0,0,1.4173673828125,0,0,0.53508
2.1338658919848967,0,0,1.70467158203125,0,0,0.68796
2.1353273749991786,0,0,1.369483349609375,0,0,0.68796
2.1367098219925538,0,0,1.3072341064453123,0,0,0.91728
2.138089897984173,0,0,1.3120225097656248,0,0,0.84084
2.1394724549900275,0,0,1.4628572143554686,0,0,0.7644
2.140851420990657,0,0,1.5275006591796874,0,0,1.37592
2.142230366996955,0,0,1.4341267944335936,0,0,1.45236
2.1436135359981563,0,0,1.2425906616210938,0,0,1.2994800000000002
2.1449920189916156,0,0,1.3958195678710936,0,0,1.2230400000000001
2.1463731699914206,0,0,1.2569558715820313,0,0,0.68796
2.147753172001103,0,0,1.2306196533203124,0,0,0.68796
2.14913161797449,0,0,1.407790576171875,0,0,0.53508
2.150511527986964,0,0,1.3287819213867187,0,0,1.2230400000000001
2.1518899189832155,0,0,1.618480322265625,0,0,0.84084
2.1532684399862774,0,0,1.3144167114257812,0,0,1.07016
2.154651996999746,0,0,1.4317325927734375,0,0,0.68796
2.1560306850005873,0,0,1.2306196533203124,0,0,0.22932
2.1574112979869824,0,0,1.3168109130859373,0,0,0.68796
2.15879170698463,0,0,1.2689268798828124,0,0,1.07016
2.1601700609899126,0,0,1.2425906616210938,0,0,0.91728
2.161548359988956,0,0,1.4963760375976562,0,0,0.0
2.1629782499803696,0,0,1.2832920898437499,0,0,0.30576000000000003
2.164357622998068,0,0,1.5131354492187499,0,0,0.84084
2.165744290978182,0,0,1.6615759521484375,0,0,0.68796
2.1671431269787718,0,0,1.455674609375,0,0,0.99372
2.168529572983971,0,0,1.2330138549804688,0,0,0.91728
2.1699127789761405,0,0,1.2976572998046874,0,0,1.07016
2.1712951509980485,0,0,1.4628572143554686,0,0,1.07016
2.1726943569956347,0,0,1.656787548828125,0,0,1.2230400000000001
2.1740756369836163,0,0,1.4437036010742186,0,0,0.3822
2.175464767991798,0,0,1.4413093994140624,0,0,1.07016
2.1768442329776008,0,0,1.254561669921875,0,0,1.1465999999999998
2.1782227359944955,0,0,1.3623007446289062,0,0,0.6115200000000001
2.179603386000963,0,0,1.4700398193359374,0,0,0.6115200000000001
2.1809822029899806,0,0,1.4317325927734375,0,0,1.1465999999999998
2.1823718159866985,0,0,1.6112977172851561,0,0,0.91728
2.1837521879933774,0,0,1.4508862060546874,0,0,1.07016
2.185130689991638,0,0,1.4963760375976562,0,0,0.91728
2.186519729992142,0,0,1.3479355346679687,0,0,0.15288000000000002
2.1879065279790666,0,0,1.3311761230468748,0,0,0.30576000000000003
2.189292751980247,0,0,1.3479355346679687,0,0,0.45864
2.1906797169940546,0,0,1.3000515014648437,0,0,0.45864
2.192064237984596,0,0,1.5490484741210937,0,0,0.0
2.19345003599301,0,0,1.39821376953125,0,0,0.45864
2.1948361859831493,0,0,1.4915876342773438,0,0,0.68796
2.1962211880018003,0,0,1.2282254516601563,0,0,0.3822
2.1976068200019654,0,0,1.3407529296874998,0,0,1.2230400000000001
2.198992895981064,0,0,1.3718775512695311,0,0,0.7644
2.200378193985671,0,0,1.3192051147460937,0,0,1.1465999999999998
2.2018043259740807,0,0,1.4772224243164063,0,0,0.91728
2.203192641987698,0,0,1.4700398193359374,0,0,0.30576000000000003
2.2045782369968947,0,0,1.3527239379882812,0,0,0.53508
2.2059640910010785,0,0,1.3192051147460937,0,0,1.1465999999999998
2.2073520189733244,0,0,1.2808978881835937,0,0,1.5288
2.2087378909927793,0,0,1.2425906616210938,0,0,1.07016
2.210123670985922,0,0,1.2761094848632812,0,0,0.91728
2.2115092659951188,0,0,1.4030021728515625,0,0,0.99372
2.2128946199954953,0,0,1.467645617675781,0,0,1.1465999999999998
2.2142807509808335,0,0,1.3120225097656248,0,0,1.07016
2.2156665129878093,0,0,1.6735469604492186,0,0,1.1465999999999998
2.2170517740014475,0,0,1.3838485595703125,0,0,0.53508
2.2184722759993747,0,0,1.24498486328125,0,0,0.53508
2.2198591669730376,0,0,1.2832920898437499,0,0,0.15288000000000002
2.221244686981663,0,0,1.448492004394531,0,0,0.3822
2.2226316519954707,0,0,1.4724340209960938,0,0,1.07016
2.2240161359950434,0,0,1.4006079711914061,0,0,1.07016
2.2254015269863885,0,0,1.6998831787109374,0,0,0.7644
2.226787768973736,0,0,1.3215993164062498,0,0,0.53508
2.228173141978914,0,0,1.3551181396484375,0,0,0.53508
2.2295581069774926,0,0,1.5298948608398437,0,0,0.84084
2.2309512939827982,0,0,1.2737152832031249,0,0,1.07016
2.2323375919950195,0,0,1.465251416015625,0,0,0.07644000000000001
2.2337229089753237,0,0,1.419761584472656,0,0,0.6115200000000001
2.235108873981517,0,0,1.6304513305664061,0,0,0.30576000000000003
2.2364948579925112,0,0,1.419761584472656,0,0,0.6115200000000001
2.2378802489838563,0,0,1.2593500732421874,0,0,1.07016
2.239265879994491,0,0,1.4030021728515625,0,0,1.2230400000000001
2.240651492989855,0,0,1.2641384765625,0,0,1.07016
2.2420369210012723,0,0,1.4724340209960938,0,0,1.45236
2.2434225530014373,0,0,1.5155296508789062,0,0,1.37592
2.2448085179785267,0,0,1.3239935180664062,0,0,0.84084
2.2461939089989755,0,0,1.4341267944335936,0,0,0.99372
2.247579484974267,0,0,1.3431471313476562,0,0,1.37592
2.2489653209922835,0,0,1.3479355346679687,0,0,0.68796
2.250350673974026,0,0,1.218648645019531,0,0,0.53508
2.2517362689832225,0,0,1.3144167114257812,0,0,1.45236
2.2531218079966493,0,0,1.5179238525390624,0,0,1.1465999999999998
2.254508365993388,0,0,1.2665326782226562,0,0,0.84084
2.2558935529959854,0,0,1.5705962890624998,0,0,1.2230400000000001
2.2572791290003806,0,0,1.3215993164062498,0,0,0.68796
2.258665260975249,0,0,1.37906015625,0,0,0.53508
2.2600499479740392,0,0,1.4173673828125,0,0,0.15288000000000002
2.261435486987466,0,0,1.458068811035156,0,0,0.7644
2.2628281739889644,0,0,1.5155296508789062,0,0,0.22932
2.264213194983313,0,0,1.47482822265625,0,0,0.45864
2.265598844998749,0,0,1.6112977172851561,0,0,0.91728
2.266984698973829,0,0,1.4796166259765624,0,0,0.30576000000000003
2.268370274978224,0,0,1.4508862060546874,0,0,0.91728
2.269756055000471,0,0,1.4915876342773438,0,0,0.7644
2.2712064819934312,0,0,1.3455413330078123,0,0,0.99372
2.272616724978434,0,0,1.407790576171875,0,0,0.99372
2.274003097001696,0,0,1.6735469604492186,0,0,0.7644
2.2753908399899956,0,0,1.5179238525390624,0,0,0.7644
2.2767771199869458,0,0,1.4891934326171874,0,0,0.84084
2.2781633619742934,0,0,1.3479355346679687,0,0,1.2994800000000002
2.279549920000136,0,0,1.24498486328125,0,0,1.2230400000000001
2.2809602369961794,0,0,1.5059528442382812,0,0,0.68796
2.2828568809782155,0,0,1.5107412475585937,0,0,0.15288000000000002
2.2842469199968036,0,0,1.3862427612304686,0,0,0.3822
2.2856339029967785,0,0,1.419761584472656,0,0,0.68796
2.2870211089903023,0,0,1.6615759521484375,0,0,0.6115200000000001
2.2884080549993087,0,0,1.37906015625,0,0,1.2230400000000001
2.2898143159982283,0,0,1.2641384765625,0,0,1.1465999999999998
2.291202614986105,0,0,1.3263877197265623,0,0,1.07016
2.292589208984282,0,0,1.4341267944335936,0,0,1.45236
2.2939766559866257,0,0,1.6041151123046875,0,0,1.1465999999999998
2.2953653059958015,0,0,1.3670891479492187,0,0,0.68796
2.296758881973801,0,0,1.5849614990234373,0,0,1.1465999999999998
2.298145846987609,0,0,1.3910311645507811,0,0,1.2230400000000001
2.2995329419791233,0,0,1.3407529296874998,0,0,0.91728
2.3009191469755024,0,0,1.455674609375,0,0,0.91728
2.3023059089900926,0,0,1.3479355346679687,0,0,0.84084
2.303692836983828,0,0,1.467645617675781,0,0,0.53508
2.30507896799827,0,0,1.3024457031249999,0,0,0.91728
2.306475025980035,0,0,1.6112977172851561,0,0,0.99372
2.307862342975568,0,0,1.3239935180664062,0,0,0.53508
2.3092490479757544,0,0,1.350329736328125,0,0,0.7644
2.310636716982117,0,0,1.3838485595703125,0,0,0.30576000000000003
2.3120223859732505,0,0,1.3263877197265623,0,0,0.68796
2.3134083319746424,0,0,1.5825672973632812,0,0,0.15288000000000002
2.3147955570020713,0,0,1.6424223388671875,0,0,0.68796
2.3161814469785895,0,0,1.66636435546875,0,0,1.07016
2.317567819991382,0,0,1.3120225097656248,0,0,0.30576000000000003
2.3189541179744992,0,0,1.3383587280273437,0,0,0.6115200000000001
2.3203405829844996,0,0,1.4724340209960938,0,0,0.7644
2.3217270669993013,0,0,1.2330138549804688,0,0,1.2994800000000002
2.3231133469962515,0,0,1.4053963745117186,0,0,0.22932
2.3244999229791574,0,0,1.47482822265625,0,0,0.7644
2.3258860729984008,0,0,1.3670891479492187,0,0,0.6115200000000001
2.3272729449963663,0,0,1.3120225097656248,0,0,-8.48484
2.328660928993486,0,0,1.3024457031249999,0,0,1.2994800000000002
2.3300474679854233,0,0,1.3359645263671873,0,0,0.84084
2.331433950981591,0,0,1.3742717529296875,0,0,0.45864
2.33282045298256,0,0,1.3862427612304686,0,0,1.2994800000000002
2.3342063629825134,0,0,1.4341267944335936,0,0,0.7644
2.3355867349891923,0,0,1.2785036865234374,0,0,0.68796
2.3369652190012857,0,0,1.5825672973632812,0,0,0.99372
2.3383434249844868,0,0,1.3407529296874998,0,0,0.7644
2.339732185995672,0,0,1.3287819213867187,0,0,0.3822
2.341118317999644,0,0,1.5227122558593749,0,0,0.3822
2.342505226988578,0,0,1.3575123413085937,0,0,0.6115200000000001
2.3438908219977748,0,0,1.5179238525390624,0,0,0.22932
2.345275990985101,0,0,1.3455413330078123,0,0,0.7644
2.346664325974416,0,0,1.675941162109375,0,0,0.99372
2.348056660994189,0,0,1.4508862060546874,0,0,0.30576000000000003
2.3494430339778773,0,0,1.3311761230468748,0,0,0.68796
2.350836053985404,0,0,1.2282254516601563,0,0,0.84084
2.3522210009978153,0,0,1.4006079711914061,0,0,1.07016
2.3536060209735297,0,0,1.4867992309570313,0,0,0.6115200000000001
2.3549916339979973,0,0,1.6328455322265625,0,0,0.91728
2.35637717298232,0,0,1.4820108276367188,0,0,0.68796
2.3577622119919397,0,0,1.446097802734375,0,0,0.84084
2.3591481959738303,0,0,1.3742717529296875,0,0,1.2230400000000001
2.360533253988251,0,0,1.3646949462890625,0,0,1.1465999999999998
2.3619184589770157,0,0,1.4245499877929686,0,0,1.1465999999999998
2.3633043689769693,0,0,1.3814543579101561,0,0,1.45236
2.3646900379972067,0,0,1.5442600708007812,0,0,1.1465999999999998
2.3660844839760102,0,0,1.4604630126953124,0,0,1.2230400000000001
2.367474578000838,0,0,1.5729904907226562,0,0,1.1465999999999998
2.368860191985732,0,0,1.3551181396484375,0,0,0.91728
2.3702454899903387,0,0,1.3407529296874998,0,0,0.45864
2.3716310289746616,0,0,1.484405029296875,0,0,0.68796
2.373016049998114,0,0,1.465251416015625,0,0,0.30576000000000003
2.374403199995868,0,0,1.5322890624999999,0,0,0.0
2.3757914799789432,0,0,1.2282254516601563,0,0,0.3822
2.3771798519883305,0,0,1.4867992309570313,0,0,0.91728
2.37856629898306,0,0,1.3096283081054687,0,0,0.22932
2.379951485985657,0,0,1.2785036865234374,0,0,0.91728
2.3813370059942827,0,0,1.3934253662109375,0,0,0.7644
2.3827226939902175,0,0,1.3934253662109375,0,0,0.84084
2.3841063439904246,0,0,1.4030021728515625,0,0,0.6115200000000001
2.3854906240012497,0,0,1.465251416015625,0,0,0.53508
2.38691664399812,0,0,1.467645617675781,0,0,0.68796
2.3883309419907164,0,0,1.350329736328125,0,0,0.68796
2.3897172219876666,0,0,1.3144167114257812,0,0,1.37592
2.3911028529983014,0,0,1.3120225097656248,0,0,0.91728
2.392489021993242,0,0,1.2761094848632812,0,0,0.91728
2.393890263978392,0,0,1.4030021728515625,0,0,1.1465999999999998
2.3952766549773514,0,0,1.39821376953125,0,0,1.07016
2.396662175975507,0,0,1.3527239379882812,0,0,0.91728
2.3980477709847037,0,0,1.6136919189453125,0,0,1.07016
2.399433679995127,0,0,1.3527239379882812,0,0,1.2994800000000002
2.4008191819884814,0,0,1.4341267944335936,0,0,0.7644
2.4022049990016967,0,0,1.3311761230468748,0,0,0.15288000000000002
2.4035908529767767,0,0,1.4101847778320311,0,0,0.53508
2.4049762619833928,0,0,1.5011644409179687,0,0,0.84084
2.4063685610017274,0,0,1.3431471313476562,0,0,1.2230400000000001
2.407755025982624,0,0,1.7022773803710936,0,0,0.91728
2.409140119998483,0,0,1.3335703247070312,0,0,0.45864
2.4105263259843923,0,0,1.43652099609375,0,0,0.53508
2.4119162169808988,0,0,1.3862427612304686,0,0,0.7644
2.413301644992316,0,0,1.4628572143554686,0,0,0.84084
2.4146882019995246,0,0,1.5370774658203123,0,0,-0.22932
2.4160744269902352,0,0,1.465251416015625,0,0,0.6115200000000001
2.417459798976779,0,0,1.6615759521484375,0,0,0.7644
2.418845985986991,0,0,1.4030021728515625,0,0,0.6115200000000001
2.4202306919905823,0,0,1.22583125,0,0,1.2994800000000002
2.4216161939839367,0,0,1.4101847778320311,0,0,1.1465999999999998
2.4230020669929218,0,0,1.3551181396484375,0,0,1.07016
2.424387568986276,0,0,1.4867992309570313,0,0,1.2230400000000001
2.4257726629730314,0,0,1.5131354492187499,0,0,1.1465999999999998
2.42715835099807,0,0,1.2761094848632812,0,0,0.7644
2.4285437779908534,0,0,1.4963760375976562,0,0,1.1465999999999998
2.429928983998252,0,0,1.3239935180664062,0,0,1.45236
2.4313150599773508,0,0,1.2880804931640624,0,0,0.53508
2.432700617995579,0,0,1.388636962890625,0,0,0.22932
2.434085878980113,0,0,1.2832920898437499,0,0,0.6115200000000001
2.435471640987089,0,0,1.5442600708007812,0,0,0.53508
2.436856716987677,0,0,1.3359645263671873,0,0,0.68796
2.4382488479895983,0,0,1.5514426757812498,0,0,1.07016
2.4396343499829527,0,0,1.350329736328125,0,0,0.3822
2.4410197039833292,0,0,1.3000515014648437,0,0,0.3822
2.442406279995339,0,0,1.3239935180664062,0,0,0.91728
2.443790300982073,0,0,1.24498486328125,0,0,0.68796
2.4451737469935324,0,0,1.3766659545898436,0,0,0.15288000000000002
2.4466298039769754,0,0,1.4173673828125,0,0,0.3822
2.4481324160005897,0,0,1.6711527587890624,0,0,0.7644
2.449519158981275,0,0,1.3192051147460937,0,0,0.91728
2.4509064389858395,0,0,1.3096283081054687,0,0,0.7644
2.4522911999956705,0,0,1.2617442749023438,0,0,1.07016
2.4536765719822142,0,0,1.3239935180664062,0,0,1.2230400000000001
2.4550625369884074,0,0,1.4700398193359374,0,0,0.68796
2.456448298995383,0,0,1.4053963745117186,0,0,0.91728
2.4578338749997783,0,0,1.3263877197265623,0,0,0.30576000000000003
2.459219302982092,0,0,1.5729904907226562,0,0,1.1465999999999998
2.460604711988708,0,0,1.3144167114257812,0,0,1.1465999999999998
2.4619900479738135,0,0,1.197100830078125,0,0,0.7644
2.463373826991301,0,0,1.3383587280273437,0,0,0.53508
2.4648306249873713,0,0,1.35990654296875,0,0,1.37592
2.4662193859985564,0,0,1.5538368774414062,0,0,0.99372
2.467606165999314,0,0,1.2785036865234374,0,0,1.07016
2.4689921499812044,0,0,1.5801730957031248,0,0,1.1465999999999998
2.4703776149835903,0,0,1.2737152832031249,0,0,0.53508
2.471764524001628,0,0,1.3431471313476562,0,0,0.53508
2.4731500079797115,0,0,1.4915876342773438,0,0,0.3822
2.4745367869909387,0,0,1.446097802734375,0,0,0.3822
2.475921937992098,0,0,1.5897499023437498,0,0,0.07644000000000001
2.477307087974623,0,0,1.6017209106445311,0,0,0.6115200000000001
2.4786936820019037,0,0,1.6352397338867186,0,0,0.99372
2.480078369990224,0,0,1.2473790649414063,0,0,0.3822
2.4814711309736595,0,0,1.2976572998046874,0,0,1.2230400000000001
2.482857447990682,0,0,1.2952630981445312,0,0,0.6115200000000001
2.484240615973249,0,0,1.3479355346679687,0,0,0.99372
2.485754431982059,0,0,1.4939818359375,0,0,0.22932
2.4872355809784494,0,0,1.6112977172851561,0,0,0.6115200000000001
2.4888417100009974,0,0,1.6711527587890624,0,0,0.99372
2.4902355449739844,0,0,1.47482822265625,0,0,0.68796
2.4916228059737477,0,0,1.3048399047851562,0,0,0.84084
2.4930083459767047,0,0,1.369483349609375,0,0,1.07016
2.4944093659869395,0,0,1.3287819213867187,0,0,1.1465999999999998
2.4957961269828957,0,0,1.4437036010742186,0,0,0.22932
2.497181554994313,0,0,1.4006079711914061,0,0,0.53508
2.4985709649918135,0,0,1.6328455322265625,0,0,0.6115200000000001
2.499970021977788,0,0,1.5418658691406248,0,0,1.1465999999999998
2.501355338987196,0,0,1.2473790649414063,0,0,1.2994800000000002
2.5027415079821367,0,0,1.4604630126953124,0,0,0.84084
2.504126842977712,0,0,1.5298948608398437,0,0,0.45864
2.5055126779770944,0,0,1.4173673828125,0,0,1.37592
2.5068991799780633,0,0,1.4987702392578124,0,0,1.1465999999999998
2.508283663977636,0,0,1.467645617675781,0,0,1.1465999999999998
2.5096686289762147,0,0,1.6232687255859375,0,0,0.7644
2.5110546499781776,0,0,1.2856862915039062,0,0,0.7644
2.5124402809888124,0,0,1.2856862915039062,0,0,0.3822
2.5138253389741294,0,0,1.3670891479492187,0,0,0.45864
2.5152098959952127,0,0,1.22583125,0,0,0.45864
2.5166667869780213,0,0,1.5107412475585937,0,0,0.0
2.5180566769849975,0,0,1.2832920898437499,0,0,0.53508
2.5194430129777174,0,0,1.3383587280273437,0,0,1.1465999999999998
2.520829829998547,0,0,1.2401964599609374,0,0,0.53508
2.522215460980078,0,0,1.3192051147460937,0,0,0.99372
2.5236283330013976,0,0,1.3862427612304686,0,0,0.84084
2.52501533497707,0,0,1.3000515014648437,0,0,1.1465999999999998
2.526409022975713,0,0,1.3862427612304686,0,0,0.99372
2.5277950989839155,0,0,1.4341267944335936,0,0,0.3822
2.529180618992541,0,0,1.2761094848632812,0,0,0.6115200000000001
2.530566898989491,0,0,1.3455413330078123,0,0,0.99372
2.5319632710015867,0,0,1.2832920898437499,0,0,0.68796
2.533935636980459,0,0,1.4173673828125,0,0,0.6115200000000001
2.5353248979954515,0,0,1.2689268798828124,0,0,0.99372
2.5367113819811493,0,0,1.4820108276367188,0,0,0.6115200000000001
2.5380974209983833,0,0,1.4532804077148436,0,0,0.84084
2.539483348984504,0,0,1.6424223388671875,0,0,0.6115200000000001
2.540868887997931,0,0,1.4796166259765624,0,0,0.91728
2.5422541489824653,0,0,1.235408056640625,0,0,1.07016
2.54363983598887,0,0,1.3670891479492187,0,0,1.07016
2.545025300991256,0,0,1.3263877197265623,0,0,0.84084
2.5464111179753672,0,0,1.458068811035156,0,0,1.2994800000000002
2.547797286999412,0,0,1.5083470458984374,0,0,0.7644
2.5491826409997884,0,0,1.3718775512695311,0,0,0.7644
2.5505688839766663,0,0,1.5011644409179687,0,0,0.99372
2.551954107999336,0,0,1.3479355346679687,0,0,0.53508
2.5533391469798516,0,0,1.448492004394531,0,0,0.6115200000000001
2.5547250749950763,0,0,1.3335703247070312,0,0,0.45864
2.5561100029735826,0,0,1.3072341064453123,0,0,0.22932
2.55749567199382,0,0,1.5107412475585937,0,0,9.631440000000001
2.5588835249945987,0,0,1.3766659545898436,0,0,0.91728
2.560430229001213,0,0,1.467645617675781,0,0,0.91728
2.5618179719895124,0,0,1.2665326782226562,0,0,0.45864
2.56320947399945,0,0,1.5059528442382812,0,0,0.3822
2.564595734991599,0,0,1.465251416015625,0,0,0.99372
2.5659911449765787,0,0,1.2665326782226562,0,0,0.84084
2.567381775996182,0,0,1.5035586425781249,0,0,0.15288000000000002
2.568767888995353,0,0,1.37906015625,0,0,0.53508
2.570169464976061,0,0,1.3335703247070312,0,0,0.84084
2.5715566529834177,0,0,1.3479355346679687,0,0,0.68796
2.5729427659825888,0,0,1.3623007446289062,0,0,1.5288
2.5743283229821827,0,0,1.3335703247070312,0,0,0.84084
2.575714935985161,0,0,1.2689268798828124,0,0,1.07016
2.5771009759919252,0,0,1.3431471313476562,0,0,1.68168
2.5785124029789586,0,0,1.467645617675781,0,0,1.07016
2.5798981269763317,0,0,1.3431471313476562,0,0,0.68796
2.5812835929973517,0,0,1.8171990600585937,0,0,1.07016
2.58267763099866,0,0,1.3551181396484375,0,0,0.91728
2.584063003974734,0,0,1.2018892333984375,0,0,0.6115200000000001
2.5854481909773313,0,0,1.5011644409179687,0,0,0.53508
2.5868345079943538,0,0,1.4796166259765624,0,0,0.53508
2.588219750992721,0,0,1.4508862060546874,0,0,0.3822
2.5896056789788418,0,0,1.350329736328125,0,0,1.2230400000000001
2.590991254983237,0,0,1.5945383056640625,0,0,0.53508
2.5923762379970867,0,0,1.2808978881835937,0,0,0.6115200000000001
2.593761980999261,0,0,1.388636962890625,0,0,0.45864
2.5951474089815747,0,0,1.3910311645507811,0,0,0.53508
2.596539632999338,0,0,1.3958195678710936,0,0,0.99372
2.597925079986453,0,0,1.4508862060546874,0,0,0.91728
2.599310859979596,0,0,1.43652099609375,0,0,0.45864
2.6006962139799725,0,0,1.6711527587890624,0,0,0.6115200000000001
2.602081659977557,0,0,1.4173673828125,0,0,0.99372
2.603467365988763,0,0,1.2761094848632812,0,0,1.07016
2.604852035001386,0,0,1.3814543579101561,0,0,1.07016
2.606237111001974,0,0,1.4772224243164063,0,0,0.7644
2.607627686986234,0,0,1.448492004394531,0,0,1.07016
2.6090131889795884,0,0,1.4939818359375,0,0,1.2230400000000001
2.610400006000418,0,0,1.3239935180664062,0,0,1.45236
2.6117858969955705,0,0,1.4628572143554686,0,0,0.91728
2.613171083998168,0,0,1.2593500732421874,0,0,1.1465999999999998
2.6145670669793617,0,0,1.5011644409179687,0,0,0.3822
2.6159523659734987,0,0,1.3814543579101561,0,0,0.6115200000000001
2.617517587990733,0,0,1.2928688964843749,0,0,0.7644
2.618914478982333,0,0,1.5275006591796874,0,0,-9.707880000000001
2.620304165990092,0,0,1.2832920898437499,0,0,1.07016
2.6216906489862595,0,0,1.6352397338867186,0,0,0.91728
2.623077428987017,0,0,1.3120225097656248,0,0,0.22932
2.624464189982973,0,0,1.2521674682617188,0,0,0.53508
2.6258504329889547,0,0,1.3742717529296875,0,0,0.7644
2.6272325459867716,0,0,1.3287819213867187,0,0,0.91728
2.628611270978581,0,0,1.5322890624999999,0,0,1.07016
2.629989309993107,0,0,1.465251416015625,0,0,0.53508
2.631391126982635,0,0,1.2306196533203124,0,0,0.53508
2.6327767949842382,0,0,1.3742717529296875,0,0,0.84084
2.634162093978375,0,0,1.3551181396484375,0,0,1.1465999999999998
2.63554753997596,0,0,1.2425906616210938,0,0,0.91728
2.6369330049783457,0,0,1.2904746948242187,0,0,0.84084
2.638318191980943,0,0,1.5059528442382812,0,0,-8.4084
2.6397022679739166,0,0,1.4053963745117186,0,0,1.1465999999999998
2.6411193439853378,0,0,1.2521674682617188,0,0,0.84084
2.642505697993329,0,0,1.5442600708007812,0,0,1.2994800000000002
2.643884477991378,0,0,1.2497732666015624,0,0,1.1465999999999998
2.6452634249872062,0,0,1.4724340209960938,0,0,0.45864
2.6466496489883866,0,0,1.4125789794921875,0,0,0.45864
2.648045372974593,0,0,1.4604630126953124,0,0,0.6115200000000001
2.649433374986984,0,0,1.429338391113281,0,0,0.30576000000000003
2.650821265997365,0,0,1.3263877197265623,0,0,0.84084
2.652206564001972,0,0,1.6831237670898436,0,0,0.7644
2.6535937329754233,0,0,1.5203180541992187,0,0,0.68796
2.6549798459745944,0,0,1.3527239379882812,0,0,0.6115200000000001
2.6563656439830083,0,0,1.4915876342773438,0,0,0.6115200000000001
2.657761071983259,0,0,1.350329736328125,0,0,0.68796
2.659160721988883,0,0,1.484405029296875,0,0,0.3822
2.6605487799970433,0,0,1.678335363769531,0,0,0.91728
2.6619357079907786,0,0,1.5753846923828123,0,0,0.68796
2.6633224510005675,0,0,1.465251416015625,0,0,0.53508
2.664708822994726,0,0,1.3527239379882812,0,0,20
2.66609597299248,0,0,1.2832920898437499,0,0,0.0
2.6674823459761683,0,0,1.3168109130859373,0,0,1.1465999999999998
2.668869217974134,0,0,1.5538368774414062,0,0,1.68168
2.670255275996169,0,0,1.6160861206054686,0,0,0.99372
2.671635962993605,0,0,1.2880804931640624,0,0,0.91728
2.673014186992077,0,0,1.6112977172851561,0,0,0.84084
2.6744138929934707,0,0,1.3048399047851562,0,0,0.91728
2.675807672989322,0,0,1.369483349609375,0,0,0.22932
2.6771993969741743,0,0,1.4891934326171874,0,0,0.45864
2.6785879909875803,0,0,1.3455413330078123,0,0,0.53508
2.6799735309905373,0,0,1.5251064575195312,0,0,0.6115200000000001
2.6816269739938434,0,0,1.3072341064453123,0,0,0.91728
2.6830480869975872,0,0,1.659181750488281,0,0,1.07016
2.6844359959941357,0,0,1.3168109130859373,0,0,0.53508
2.6858238679997157,0,0,1.2976572998046874,0,0,0.6115200000000001
2.6872114629950374,0,0,1.4053963745117186,0,0,0.45864
2.6885982980020344,0,0,1.3958195678710936,0,0,0.84084
2.6899847449967638,0,0,1.5275006591796874,0,0,0.7644
2.6913657839759253,0,0,1.4221557861328125,0,0,0.91728
2.6927445819892455,0,0,1.618480322265625,0,0,0.68796
2.6941239179868717,0,0,1.438915197753906,0,0,0.7644
2.695513179001864,0,0,1.3215993164062498,0,0,1.2230400000000001
2.696899828995811,0,0,1.3766659545898436,0,0,1.07016
2.6982897389971185,0,0,1.3742717529296875,0,0,0.99372
2.6996767959790304,0,0,1.2593500732421874,0,0,1.2994800000000002
2.701090630987892,0,0,1.5777788940429687,0,0,1.37592
2.7024854849732947,0,0,1.35990654296875,0,0,0.68796
2.7038728579937015,0,0,1.3407529296874998,0,0,0.99372
2.7052592669788282,0,0,1.2521674682617188,0,0,0.68796
2.7066433249856345,0,0,1.438915197753906,0,0,0.84084
2.708021104976069,0,0,1.4006079711914061,0,0,0.53508
2.709399235987803,0,0,1.3096283081054687,0,0,0.45864
2.710784941999009,0,0,1.4604630126953124,0,0,0.91728
2.7121714259847067,0,0,1.3120225097656248,0,0,1.1465999999999998
2.713558519986691,0,0,1.4963760375976562,0,0,0.91728
2.714945114974398,0,0,1.2497732666015624,0,0,0.68796
2.71633106097579,0,0,1.254561669921875,0,0,0.3822
2.717717803985579,0,0,1.3742717529296875,0,0,0.53508
2.7191043619823176,0,0,1.2856862915039062,0,0,1.1465999999999998
2.720490659994539,0,0,1.429338391113281,0,0,0.22932
2.721877570002107,0,0,1.419761584472656,0,0,0.6115200000000001
2.723264145985013,0,0,1.3623007446289062,0,0,0.3822
2.7246504619834013,0,0,1.5418658691406248,0,0,0.68796
2.7260373719909694,0,0,1.3527239379882812,0,0,0.7644
2.7274237999808975,0,0,1.4963760375976562,0,0,1.07016
2.7288103390019387,0,0,1.3814543579101561,0,0,0.91728
2.730196877993876,0,0,1.3718775512695311,0,0,1.68168
2.7315836019988637,0,0,1.5921441040039062,0,0,1.1465999999999998
2.732969659991795,0,0,1.3527239379882812,0,0,0.99372
2.734356068976922,0,0,1.678335363769531,0,0,0.91728
2.7357424049987458,0,0,1.2593500732421874,0,0,1.1465999999999998
2.737129165994702,0,0,1.3263877197265623,0,0,0.53508
2.7385171679779887,0,0,1.2330138549804688,0,0,0.45864
2.7399032439861912,0,0,1.3479355346679687,0,0,0.68796
2.7412898389738984,0,0,1.4053963745117186,0,0,0.15288000000000002
2.7426768409786746,0,0,1.465251416015625,0,0,0.6115200000000001
2.7440630469936877,0,0,1.5825672973632812,0,0,0.53508
2.745457251992775,0,0,1.3239935180664062,0,0,0.30576000000000003
2.746845494984882,0,0,1.3072341064453123,0,0,1.07016
2.748231700999895,0,0,1.2952630981445312,0,0,1.2230400000000001
2.7496185729978606,0,0,1.2378022583007813,0,0,1.45236
2.7510051309945993,0,0,1.5490484741210937,0,0,1.2994800000000002
2.752391761983745,0,0,1.39821376953125,0,0,0.91728
2.7537780239945278,0,0,1.235408056640625,0,0,0.7644
2.7551650809764396,0,0,1.3910311645507811,0,0,1.07016
2.7565518799819984,0,0,1.2665326782226562,0,0,1.37592
2.7579379189992324,0,0,1.3168109130859373,0,0,0.53508
2.7593369579990394,0,0,1.3527239379882812,0,0,0.68796
2.760724385996582,0,0,1.2737152832031249,0,0,0.91728
2.7621110909967683,0,0,1.6160861206054686,0,0,0.30576000000000003
2.7634975189866964,0,0,1.4915876342773438,0,0,1.45236
2.764884409989463,0,0,1.5514426757812498,0,0,0.91728
2.7662818569806404,0,0,1.2761094848632812,0,0,0.53508
2.767668821994448,0,0,1.2617442749023438,0,0,0.45864
2.7690594349987805,0,0,1.4532804077148436,0,0,0.53508
2.7704618989955634,0,0,1.2808978881835937,0,0,0.7644
2.771849308977835,0,0,1.5298948608398437,0,0,-9.47856
2.7732377739739604,0,0,1.4053963745117186,0,0,0.68796
2.7746267389738932,0,0,1.47482822265625,0,0,0.84084
2.776013240974862,0,0,1.235408056640625,0,0,0.53508
2.7773998539778404,0,0,1.2976572998046874,0,0,1.07016
2.7787864669808187,0,0,1.2306196533203124,0,0,1.1465999999999998
2.780172987986589,0,0,1.3239935180664062,0,0,1.07016
2.7815600079775322,0,0,1.5059528442382812,0,0,0.0
2.783516873983899,0,0,1.4101847778320311,0,0,0.6115200000000001
2.7849142649793066,0,0,1.6136919189453125,0,0,0.91728
2.7863024699909147,0,0,1.2401964599609374,0,0,0.3822
2.7876908609759994,0,0,1.4053963745117186,0,0,-8.56128
2.7890800109889824,0,0,1.407790576171875,0,0,0.91728
2.790510993974749,0,0,1.419761584472656,0,0,1.1465999999999998
2.7918989409809,0,0,1.4963760375976562,0,0,1.37592
2.793286239000736,0,0,1.438915197753906,0,0,0.91728
2.794674445001874,0,0,1.2785036865234374,0,0,0.6115200000000001
2.796061168977758,0,0,1.4413093994140624,0,0,1.1465999999999998
2.7974478190008085,0,0,1.22583125,0,0,1.2994800000000002
2.7988355249981396,0,0,1.458068811035156,0,0,0.99372
2.80022917498718,0,0,1.3431471313476562,0,0,0.30576000000000003
2.801653546979651,0,0,1.3742717529296875,0,0,1.37592
2.8030436049739365,0,0,1.4963760375976562,0,0,20
2.80443110698252,0,0,1.3168109130859373,0,0,0.0
2.805818830995122,0,0,1.659181750488281,0,0,1.07016
2.807206443976611,0,0,1.2737152832031249,0,0,0.6115200000000001
2.8085926130006555,0,0,1.5107412475585937,0,0,0.45864
2.809980040998198,0,0,1.419761584472656,0,0,0.84084
2.81136757999775,0,0,1.3455413330078123,0,0,0.3822
2.8127542119764257,0,0,1.4030021728515625,0,0,0.22932
2.8141411769902334,0,0,1.3263877197265623,0,0,0.22932
2.815528289997019,0,0,1.4173673828125,0,0,0.53508
2.816914420982357,0,0,1.3215993164062498,0,0,0.68796
2.818314404983539,0,0,1.4245499877929686,0,0,1.1465999999999998
2.8197024069959298,0,0,1.254561669921875,0,0,0.99372
2.821091741992859,0,0,1.3168109130859373,0,0,1.2994800000000002
2.822479132999433,0,0,1.37906015625,0,0,1.45236
2.823865301994374,0,0,1.5490484741210937,0,0,0.84084
2.8252517849905416,0,0,1.3359645263671873,0,0,0.53508
2.826639434992103,0,0,1.7597382202148437,0,0,1.07016
2.8280249559902586,0,0,1.3431471313476562,0,0,1.1465999999999998
2.8294114579912275,0,0,1.2617442749023438,0,0,0.7644
2.830799052986549,0,0,1.2808978881835937,0,0,0.7644
2.83218522099196,0,0,1.3479355346679687,0,0,0.7644
2.833579056983581,0,0,1.3838485595703125,0,0,0.3822
2.8349666509893723,0,0,1.24498486328125,0,0,1.07016
2.8363528569752816,0,0,1.5969325073242187,0,0,0.99372
2.8377392849943135,0,0,1.467645617675781,0,0,0.53508
2.839126379985828,0,0,1.3215993164062498,0,0,0.99372
2.8405128629819956,0,0,1.4987702392578124,0,0,0.84084
2.841898920974927,0,0,1.3239935180664062,0,0,1.2230400000000001
2.8432854599959683,0,0,1.429338391113281,0,0,1.37592
2.8446723319939338,0,0,1.5059528442382812,0,0,0.53508
2.846058870985871,0,0,1.5466542724609373,0,0,0.22932
2.8474398359830957,0,0,1.5322890624999999,0,0,0.99372
2.8488185049791355,0,0,1.2976572998046874,0,0,1.37592
2.850197154999478,0,0,1.3646949462890625,0,0,1.2230400000000001
2.8515868799877353,0,0,1.4173673828125,0,0,0.84084
2.85297410399653,0,0,1.3311761230468748,0,0,0.7644
2.8543603839934804,0,0,1.5298948608398437,0,0,0.84084
2.8557470519735944,0,0,1.2665326782226562,0,0,1.2994800000000002
2.8571334059815854,0,0,1.5873557006835937,0,0,1.07016
2.858520426991163,0,0,1.3000515014648437,0,0,0.22932
2.859906317986315,0,0,1.2832920898437499,0,0,0.6115200000000001
2.861292560992297,0,0,1.4915876342773438,0,0,0.45864
2.8626795259770006,0,0,1.4796166259765624,0,0,0.91728
2.8640649349836167,0,0,1.5179238525390624,0,0,-0.45864
2.8654534369998146,0,0,1.4700398193359374,0,0,0.3822
2.8668405499774963,0,0,1.35990654296875,0,0,0.7644
2.8682264410017524,0,0,1.2401964599609374,0,0,0.68796
2.8696127759758383,0,0,1.2904746948242187,0,0,0.99372
2.8709988159826025,0,0,1.3431471313476562,0,0,1.1465999999999998
2.872384798974963,0,0,1.2713210815429687,0,0,0.84084
2.873771467973711,0,0,1.350329736328125,0,0,1.1465999999999998
2.875158802984515,0,0,1.4939818359375,0,0,0.91728
2.876554952992592,0,0,1.3239935180664062,0,0,0.53508
2.8779576029919554,0,0,1.6352397338867186,0,0,0.84084
2.8793613640009426,0,0,1.3623007446289062,0,0,1.1465999999999998
2.880748458992457,0,0,1.4006079711914061,0,0,0.68796
2.882135219988413,0,0,1.3742717529296875,0,0,0.15288000000000002
2.8835218519961927,0,0,1.4221557861328125,0,0,0.6115200000000001
2.88490820597508,0,0,1.4006079711914061,0,0,0.07644000000000001
2.8862945409782697,0,0,1.3096283081054687,0,0,1.2230400000000001
2.887681320979027,0,0,1.5394716674804687,0,0,1.1465999999999998
2.889067507989239,0,0,1.1707646118164061,0,0,0.45864
2.8904549180006143,0,0,1.3431471313476562,0,0,0.6115200000000001
2.8918412899947725,0,0,1.2306196533203124,0,0,0.99372
2.89322758797789,0,0,1.3144167114257812,0,0,0.84084
2.8946145529916976,0,0,1.4245499877929686,0,0,0.68796
2.8960056849755347,0,0,1.4125789794921875,0,0,0.84084
2.897392724000383,0,0,1.4772224243164063,0,0,0.53508
2.8987796519941185,0,0,1.6136919189453125,0,0,0.91728
2.9001659129862674,0,0,1.429338391113281,0,0,1.2994800000000002
2.901552081981208,0,0,1.2808978881835937,0,0,1.2994800000000002
2.90293856599601,0,0,1.3838485595703125,0,0,1.2230400000000001
2.904324844974326,0,0,1.4939818359375,0,0,1.68168
2.905711050989339,0,0,1.4006079711914061,0,0,0.84084
2.9070972009794787,0,0,1.3168109130859373,0,0,0.6115200000000001
2.908483665989479,0,0,1.5322890624999999,0,0,0.99372
2.909869686991442,0,0,1.1875240234375,0,0,0.7644
2.9112563739763573,0,0,1.3814543579101561,0,0,0.84084
2.912749596987851,0,0,1.438915197753906,0,0,0.53508
2.9141392839956097,0,0,1.3479355346679687,0,0,0.53508
2.9155259899853263,0,0,1.4891934326171874,0,0,0.0
2.9169122139865067,0,0,1.39821376953125,0,0,0.68796
2.918298493983457,0,0,1.68551796875,0,0,0.84084
2.9196849959844258,0,0,1.4341267944335936,0,0,0.07644000000000001
2.9210848869988695,0,0,1.2713210815429687,0,0,0.84084
2.9224752219743095,0,0,1.3910311645507811,0,0,0.84084
2.923861279996345,0,0,1.2330138549804688,0,0,1.1465999999999998
2.925247559993295,0,0,1.4939818359375,0,0,0.91728
2.9266345059731975,0,0,1.6232687255859375,0,0,0.91728
2.928019933984615,0,0,1.35990654296875,0,0,0.68796
2.9294066579896025,0,0,1.5346832641601562,0,0,0.68796
2.930793585983338,0,0,1.24498486328125,0,0,1.37592
2.9321789399837144,0,0,1.3239935180664062,0,0,0.68796
2.9335653679736424,0,0,1.4628572143554686,0,0,1.07016
2.9349602029833477,0,0,1.2856862915039062,0,0,1.2230400000000001
2.936348019982688,0,0,1.5753846923828123,0,0,0.91728
2.937734577979427,0,0,1.5179238525390624,0,0,0.99372
2.9391211349866353,0,0,1.4891934326171874,0,0,0.91728
2.940507211984368,0,0,1.2665326782226562,0,0,0.68796
2.9418936769943684,0,0,1.2832920898437499,0,0,0.45864
2.9432797159824986,0,0,1.4317325927734375,0,0,0.0
2.944665309973061,0,0,1.2641384765625,0,0,0.68796
2.946051571983844,0,0,1.4939818359375,0,0,0.07644000000000001
2.9474375919962768,0,0,1.3742717529296875,0,0,0.7644
2.948824278981192,0,0,1.448492004394531,0,0,1.1465999999999998
2.9502109109889716,0,0,1.2713210815429687,0,0,0.45864
2.951597449980909,0,0,1.3359645263671873,0,0,1.07016
2.952983544993913,0,0,1.3311761230468748,0,0,1.07016
2.954369768995093,0,0,1.2617442749023438,0,0,0.99372
2.9557564559800085,0,0,1.4772224243164063,0,0,1.68168
2.957142531988211,0,0,1.438915197753906,0,0,0.84084
2.9585300159815233,0,0,1.2641384765625,0,0,0.84084
2.9599257029767614,0,0,1.6208745239257811,0,0,0.91728
2.9613126309996005,0,0,1.3335703247070312,0,0,0.99372
2.9626995959843043,0,0,1.4149731811523436,0,0,0.84084
2.9640855789766647,0,0,1.3263877197265623,0,0,0.30576000000000003
2.96547882197774,0,0,1.3958195678710936,0,0,0.3822
2.9668755089805927,0,0,1.4508862060546874,0,0,0.45864
2.968261010973947,0,0,1.2497732666015624,0,0,0.99372
2.969647049991181,0,0,1.618480322265625,0,0,0.99372
2.971033774985699,0,0,1.2856862915039062,0,0,0.53508
2.9724201469798572,0,0,1.37906015625,0,0,0.6115200000000001
2.9738064639968798,0,0,1.2378022583007813,0,0,0.6115200000000001
2.975193206977565,0,0,1.47482822265625,0,0,1.07016
2.97658350499114,0,0,1.5729904907226562,0,0,0.53508
2.9779698959900998,0,0,1.6472107421875,0,0,1.07016
2.9793626759783365,0,0,1.4437036010742186,0,0,0.68796
2.980749417998595,0,0,1.3958195678710936,0,0,20
2.9821356799802743,0,0,1.3623007446289062,0,0,0.0
2.983522162976442,0,0,1.2856862915039062,0,0,0.7644
2.9849089429771993,0,0,1.2808978881835937,0,0,0.6115200000000001
2.986295333976159,0,0,1.39821376953125,0,0,1.60524
2.9876820399949793,0,0,1.5849614990234373,0,0,1.2230400000000001
2.9890685789869167,0,0,1.4173673828125,0,0,1.2230400000000001
2.9904555440007243,0,0,1.608903515625,0,0,0.68796
2.991841712995665,0,0,1.3623007446289062,0,0,0.7644
2.99324065897963,0,0,1.2401964599609374,0,0,0.53508
2.9946409940021113,0,0,1.3814543579101561,0,0,0.68796
2.99602731099003,0,0,1.2856862915039062,0,0,0.22932
2.9974137019889895,0,0,1.426944189453125,0,0,0.07644000000000001
2.998800740984734,0,0,1.3958195678710936,0,0,0.30576000000000003
3.000186538993148,0,0,1.659181750488281,0,0,0.91728
3.0015729299921077,0,0,1.2330138549804688,0,0,0.53508
3.0029591909842566,0,0,1.2497732666015624,0,0,1.1465999999999998
3.0043453969992697,0,0,1.3096283081054687,0,0,1.1465999999999998
3.0057316399761476,0,0,1.2928688964843749,0,0,1.07016
3.007118511974113,0,0,1.3958195678710936,0,0,1.75812
3.0085109029896557,0,0,1.4604630126953124,0,0,1.07016
3.0098974049906246,0,0,1.2330138549804688,0,0,0.6115200000000001
3.011283684987575,0,0,1.3958195678710936,0,0,1.1465999999999998
3.0126695199869573,0,0,1.2808978881835937,0,0,1.07016
3.014055522973649,0,0,1.2952630981445312,0,0,0.53508
3.0154422099876683,0,0,1.3407529296874998,0,0,0.30576000000000003
3.016828044987051,0,0,1.3670891479492187,0,0,0.45864
3.018213694973383,0,0,1.458068811035156,0,0,0.0
3.0196000119904056,0,0,1.3575123413085937,0,0,1.07016
3.020985661976738,0,0,1.4724340209960938,0,0,0.91728
3.022371460974682,0,0,1.2210428466796874,0,0,0.53508
3.0237579999957234,0,0,1.3144167114257812,0,0,0.84084
3.0251442059816327,0,0,1.2473790649414063,0,0,0.53508
3.026530818984611,0,0,1.2785036865234374,0,0,0.99372
3.027916153980186,0,0,1.4532804077148436,0,0,1.1465999999999998
3.02930200798437,0,0,1.35990654296875,0,0,0.68796
3.030688509985339,0,0,1.4125789794921875,0,0,0.99372
3.0320741969917435,0,0,1.465251416015625,0,0,1.07016
3.033469754998805,0,0,1.3359645263671873,0,0,1.07016
3.035049698984949,0,0,1.350329736328125,0,0,1.2230400000000001
3.036441089992877,0,0,1.3144167114257812,0,0,1.1465999999999998
3.0378286099876277,0,0,1.4006079711914061,0,0,1.45236
3.039215945987962,0,0,1.43652099609375,0,0,1.37592
3.040602687979117,0,0,1.2713210815429687,0,0,0.91728
3.041989282995928,0,0,1.5825672973632812,0,0,0.99372
3.043377192982007,0,0,1.3144167114257812,0,0,1.07016
3.044762749981601,0,0,1.369483349609375,0,0,0.3822
3.0461486970016267,0,0,1.5298948608398437,0,0,0.53508
3.0475346989987884,0,0,1.3862427612304686,0,0,0.7644
3.048920311994152,0,0,1.3814543579101561,0,0,0.07644000000000001
3.0503059809852857,0,0,1.3287819213867187,0,0,0.30576000000000003
3.052530749992002,0,0,1.3120225097656248,0,0,0.99372
3.0539288820000365,0,0,1.350329736328125,0,0,1.45236
3.0553182729927357,0,0,1.3407529296874998,0,0,0.99372
3.0567047559889033,0,0,1.4006079711914061,0,0,0.15288000000000002
3.058090906997677,0,0,1.4604630126953124,0,0,1.45236
3.0594772229960654,0,0,1.4532804077148436,0,0,0.84084
3.0608631139912177,0,0,1.3670891479492187,0,0,1.2230400000000001
3.0622495239949785,0,0,1.5921441040039062,0,0,1.07016
3.063636321981903,0,0,1.2928688964843749,0,0,0.68796
3.06502321298467,0,0,1.4987702392578124,0,0,0.30576000000000003
3.0664097519766074,0,0,1.4125789794921875,0,0,0.53508
3.0677957169828005,0,0,1.369483349609375,0,0,0.22932
3.0691818859777413,0,0,1.3838485595703125,0,0,0.07644000000000001
3.0705689799797256,0,0,1.3646949462890625,0,0,0.7644
3.0719545199826825,0,0,1.419761584472656,0,0,0.91728
3.073340909992112,0,0,1.2306196533203124,0,0,0.91728
3.074727597995661,0,0,1.419761584472656,0,0,1.2994800000000002
3.076113117975183,0,0,1.3551181396484375,0,0,1.1465999999999998
3.0774990649952088,0,0,1.3024457031249999,0,0,0.99372
3.078885844995966,0,0,1.4508862060546874,0,0,1.68168
3.08027145799133,0,0,1.3120225097656248,0,0,1.1465999999999998
3.0816572929907124,0,0,1.1659762084960936,0,0,0.7644
3.0830434800009243,0,0,1.6472107421875,0,0,1.07016
3.0844288709922694,0,0,1.2976572998046874,0,0,0.91728
3.0858151329739485,0,0,1.3623007446289062,0,0,0.3822
3.0872101159766316,0,0,1.3000515014648437,0,0,0.6115200000000001
3.0885959699808154,0,0,1.369483349609375,0,0,0.15288000000000002
3.0899817679892294,0,0,1.4796166259765624,0,0,-0.30576000000000003
3.091370417998405,0,0,1.3455413330078123,0,0,1.07016
3.0927563089935575,0,0,1.6807295654296874,0,0,0.84084
3.094142551999539,0,0,1.4245499877929686,0,0,0.30576000000000003
3.0955286099924706,0,0,1.3910311645507811,0,0,0.99372
3.096923037985107,0,0,1.4030021728515625,0,0,0.84084
3.098309798981063,0,0,1.3527239379882812,0,0,0.91728
3.099696227000095,0,0,1.4604630126953124,0,0,1.2994800000000002
3.101081932982197,0,0,1.467645617675781,0,0,0.99372
3.1024692119972315,0,0,1.5514426757812498,0,0,0.53508
3.103854713990586,0,0,1.4987702392578124,0,0,0.84084
3.1052426979877055,0,0,1.2761094848632812,0,0,1.1465999999999998
3.106629717978649,0,0,1.37906015625,0,0,0.91728
3.108015257981606,0,0,1.4341267944335936,0,0,0.53508
3.1094010929809883,0,0,1.4125789794921875,0,0,0.6115200000000001
3.1107943169772625,0,0,1.5634136840820312,0,0,1.1465999999999998
3.112180392985465,0,0,1.3814543579101561,0,0,1.1465999999999998
3.1135659319988918,0,0,1.649604943847656,0,0,0.99372
3.1149521569896024,0,0,1.3670891479492187,0,0,0.6115200000000001
3.1163377329939976,0,0,1.3239935180664062,0,0,0.53508
3.1177237349911593,0,0,1.3311761230468748,0,0,0.53508
3.1191099399875384,0,0,1.3407529296874998,0,0,0.91728
3.120495554001536,0,0,1.5921441040039062,0,0,0.53508
3.1218814259918872,0,0,1.4221557861328125,0,0,0.6115200000000001
3.123267760995077,0,0,1.3263877197265623,0,0,0.68796
3.1246535969839897,0,0,1.3431471313476562,0,0,0.68796
3.1260395429853816,0,0,1.3527239379882812,0,0,1.07016
3.1274255639873445,0,0,1.3311761230468748,0,0,1.2230400000000001
3.1288116029754747,0,0,1.20667763671875,0,0,0.84084
3.13019736399292,0,0,1.2593500732421874,0,0,1.83456
3.131583237001905,0,0,1.4724340209960938,0,0,1.2994800000000002
3.1329692199942656,0,0,1.2282254516601563,0,0,0.91728
3.1343549820012413,0,0,1.2976572998046874,0,0,1.2994800000000002
3.135740279976744,0,0,1.2138602416992186,0,0,1.07016
3.1371263369801454,0,0,1.3934253662109375,0,0,0.68796
3.138513042998966,0,0,1.4413093994140624,0,0,0.45864
3.139898452995112,0,0,1.3910311645507811,0,0,0.6115200000000001
3.1412913439853583,0,0,1.4030021728515625,0,0,0.45864
3.1426778089953586,0,0,1.3168109130859373,0,0,0.68796
3.144063532992732,0,0,1.4149731811523436,0,0,0.91728
3.145449887000723,0,0,1.3335703247070312,0,0,0.84084
3.146836573985638,0,0,1.369483349609375,0,0,0.84084
3.148221890995046,0,0,1.2473790649414063,0,0,0.6115200000000001
3.1496077819901984,0,0,1.2617442749023438,0,0,1.1465999999999998
3.150993394985562,0,0,1.3215993164062498,0,0,1.2994800000000002
3.152379155973904,0,0,1.39821376953125,0,0,1.1465999999999998
3.1537696399900597,0,0,1.39821376953125,0,0,0.68796
3.155155789980199,0,0,1.6256629272460936,0,0,0.68796
3.156546106998576,0,0,1.2808978881835937,0,0,1.07016
3.15793320100056,0,0,1.3263877197265623,0,0,0.6115200000000001
3.159319869999308,0,0,1.4772224243164063,0,0,0.84084
3.1607057609944604,0,0,1.419761584472656,0,0,0.30576000000000003
3.1620919109846,0,0,1.6112977172851561,0,0,0.0
3.1634781539905816,0,0,1.2737152832031249,0,0,1.07016
3.164864136982942,0,0,1.714248388671875,0,0,0.91728
3.16624969500117,0,0,1.3910311645507811,0,0,0.45864
3.167644474975532,0,0,1.419761584472656,0,0,0.68796
3.1690414949844126,0,0,1.3623007446289062,0,0,0.6115200000000001
3.170433866995154,0,0,1.429338391113281,0,0,1.07016
3.1718216659792233,0,0,1.446097802734375,0,0,1.37592
3.1732081679801922,0,0,1.467645617675781,0,0,0.53508
3.1745945589791518,0,0,1.5227122558593749,0,0,0.84084
3.1759810789953917,0,0,1.4724340209960938,0,0,0.68796
3.1773668589885347,0,0,1.2713210815429687,0,0,0.91728
3.1787537499913014,0,0,1.369483349609375,0,0,1.2230400000000001
3.1801412709755823,0,0,1.4508862060546874,0,0,1.07016
3.1815274209948257,0,0,1.5251064575195312,0,0,0.7644
3.1829156079911627,0,0,1.5825672973632812,0,0,1.07016
3.184310590993846,0,0,1.4030021728515625,0,0,0.99372
3.1856971489905845,0,0,1.5753846923828123,0,0,0.91728
3.187083354976494,0,0,1.199495031738281,0,0,0.91728
3.188469874992734,0,0,1.3910311645507811,0,0,0.30576000000000003
3.189855748001719,0,0,1.5538368774414062,0,0,0.84084
3.1912417679850478,0,0,1.2904746948242187,0,0,0.7644
3.1926280669867992,0,0,1.5873557006835937,0,0,0.0
3.194013995002024,0,0,1.455674609375,0,0,0.68796
3.1953998300014064,0,0,1.3000515014648437,0,0,0.91728
3.1967900169838686,0,0,1.3024457031249999,0,0,0.53508
3.198175703990273,0,0,1.3646949462890625,0,0,0.91728
3.1995618919900153,0,0,1.426944189453125,0,0,1.2230400000000001
3.200947985984385,0,0,1.3814543579101561,0,0,1.2994800000000002
3.202333950990578,0,0,1.419761584472656,0,0,1.2994800000000002
3.203724582999712,0,0,1.4820108276367188,0,0,1.07016
3.2051112149783876,0,0,1.1923124267578125,0,0,0.6115200000000001
3.206515715981368,0,0,1.3934253662109375,0,0,1.07016
3.2079003299877513,0,0,1.3048399047851562,0,0,1.07016
3.2092846460000146,0,0,1.3623007446289062,0,0,0.45864
3.210710258979816,0,0,1.4221557861328125,0,0,0.7644
3.2120972799893934,0,0,1.3215993164062498,0,0,0.53508
3.213483836996602,0,0,1.5322890624999999,0,0,0.22932
3.2148702839913312,0,0,1.3551181396484375,0,0,1.1465999999999998
3.2162540079734754,0,0,1.637633935546875,0,0,1.07016
3.2176383619953413,0,0,1.2665326782226562,0,0,0.6115200000000001
3.2193507489864714,0,0,1.3239935180664062,0,0,0.45864
3.220731898996746,0,0,1.4532804077148436,0,0,0.53508
3.2221118269953877,0,0,1.4317325927734375,0,0,0.53508
3.223493162979139,0,0,1.5322890624999999,0,0,0.0
3.224871960992459,0,0,1.4173673828125,0,0,0.53508
3.226251518994104,0,0,1.4317325927734375,0,0,0.99372
3.227640798984794,0,0,1.2880804931640624,0,0,0.45864
3.2290256709966343,0,0,1.4413093994140624,0,0,1.1465999999999998
3.230409376992611,0,0,1.4437036010742186,0,0,0.84084
3.2317889719852246,0,0,1.2785036865234374,0,0,1.1465999999999998
3.2331667699909303,0,0,1.3383587280273437,0,0,1.75812
3.2345473829773255,0,0,1.4030021728515625,0,0,1.60524
3.2359256999916397,0,0,1.388636962890625,0,0,0.68796
3.2373038689838722,0,0,1.5682020874023437,0,0,0.84084
3.2386850749899168,0,0,1.3120225097656248,0,0,1.1465999999999998
3.2400632069911808,0,0,1.3407529296874998,0,0,0.45864
3.2414419489796273,0,0,1.2689268798828124,0,0,0.68796
3.242827340000076,0,0,1.407790576171875,0,0,0.45864
3.2442188790009823,0,0,1.6017209106445311,0,0,0.22932
3.245605917996727,0,0,1.2114660400390624,0,0,1.37592
3.2469931239902508,0,0,1.618480322265625,0,0,0.84084
3.2483794969739392,0,0,1.4245499877929686,0,0,0.6115200000000001
3.249766164983157,0,0,1.4245499877929686,0,0,0.91728
3.251153149001766,0,0,1.3168109130859373,0,0,0.68796
3.252539891982451,0,0,1.3766659545898436,0,0,0.91728
3.2539265049854293,0,0,1.5275006591796874,0,0,1.1465999999999998
3.255313635978382,0,0,1.6735469604492186,0,0,0.99372
3.2567004719749093,0,0,1.4437036010742186,0,0,0.3822
3.2580867699871305,0,0,1.4891934326171874,0,0,0.91728
3.2594731979770586,0,0,1.2114660400390624,0,0,0.99372
3.2608600889798254,0,0,1.3479355346679687,0,0,1.07016
3.2622937389824074,0,0,1.465251416015625,0,0,0.68796
3.2636765369970817,0,0,1.3958195678710936,0,0,0.53508
3.2650554459833074,0,0,1.5275006591796874,0,0,1.07016
3.2664462629763875,0,0,1.458068811035156,0,0,1.2230400000000001
3.267825709976023,0,0,1.5873557006835937,0,0,0.91728
3.269204489974072,0,0,1.2808978881835937,0,0,0.68796
3.2705846769968048,0,0,1.350329736328125,0,0,0.45864
3.271972697984893,0,0,1.4053963745117186,0,0,0.7644
3.2733521629997995,0,0,1.2330138549804688,0,0,0.30576000000000003
3.274820959981298,0,0,1.4796166259765624,0,0,0.07644000000000001
3.27621346199885,0,0,1.4508862060546874,0,0,0.7644
3.27760114899138,0,0,1.6519991455078125,0,0,0.84084
3.2789881879871245,0,0,1.3359645263671873,0,0,0.53508
3.2803749129816424,0,0,1.3215993164062498,0,0,1.2230400000000001
3.281761951977387,0,0,1.3742717529296875,0,0,0.91728
3.283148842980154,0,0,1.35990654296875,0,0,0.45864
3.2852757059736177,0,0,1.4867992309570313,0,0,0.0
3.2866946709982585,0,0,1.2808978881835937,0,0,1.1465999999999998
3.2880748579918873,0,0,1.659181750488281,0,0,0.91728
3.2894538789987564,0,0,1.4030021728515625,0,0,0.3822
3.29084225097904,0,0,1.4508862060546874,0,0,1.2994800000000002
3.2922295309836045,0,0,1.3120225097656248,0,0,0.84084
3.293616625975119,0,0,1.2617442749023438,0,0,1.2230400000000001
3.2950033679953776,0,0,1.438915197753906,0,0,1.5288
3.2963906479999423,0,0,1.4628572143554686,0,0,0.7644
3.2977779089997057,0,0,1.4149731811523436,0,0,0.7644
3.299164522992214,0,0,1.4101847778320311,0,0,1.07016
3.300551653985167,0,0,1.24498486328125,0,0,1.2994800000000002
3.3019379529869184,0,0,1.3263877197265623,0,0,0.91728
3.3033250469889026,0,0,1.4030021728515625,0,0,0.22932
3.3047116049856413,0,0,1.4006079711914061,0,0,0.22932
3.306098180997651,0,0,1.599326708984375,0,0,0.84084
3.307484997989377,0,0,1.5298948608398437,0,0,0.99372
3.3088723519758787,0,0,1.6711527587890624,0,0,1.2230400000000001
3.310259056976065,0,0,1.2497732666015624,0,0,0.91728
3.3116458369768225,0,0,1.3431471313476562,0,0,0.53508
3.313032709993422,0,0,1.3910311645507811,0,0,0.7644
3.3144203039992135,0,0,1.3623007446289062,0,0,0.99372
3.3158075099927373,0,0,1.5131354492187499,0,0,0.30576000000000003
3.317202918988187,0,0,1.4772224243164063,0,0,0.68796
3.318590698996559,0,0,1.3766659545898436,0,0,0.22932
3.3199766829784494,0,0,1.419761584472656,0,0,0.15288000000000002
3.3213634439744055,0,0,1.3814543579101561,0,0,1.1465999999999998
3.322750630992232,0,0,1.3527239379882812,0,0,0.91728
3.3241364849964157,0,0,1.4532804077148436,0,0,0.7644
3.325523079984123,0,0,1.388636962890625,0,0,1.5288
3.3269105819927063,0,0,1.4820108276367188,0,0,1.07016
3.3282962319790386,0,0,1.3838485595703125,0,0,1.1465999999999998
3.3296829189930577,0,0,1.5179238525390624,0,0,0.99372
3.331069790991023,0,0,1.20667763671875,0,0,0.7644
3.332456053001806,0,0,1.4221557861328125,0,0,0.53508
3.33384272098192,0,0,1.3742717529296875,0,0,0.45864
3.3352302049752325,0,0,1.2569558715820313,0,0,0.45864
3.3366168179782107,0,0,1.5227122558593749,0,0,0.30576000000000003
3.338005671976134,0,0,1.3431471313476562,0,0,0.84084
3.33939272997668,0,0,1.3455413330078123,0,0,0.68796
3.3407795279927086,0,0,1.2880804931640624,0,0,0.45864
3.3421661969914567,0,0,1.458068811035156,0,0,1.1465999999999998
3.34355297597358,0,0,1.2306196533203124,0,0,0.91728
3.344946237979457,0,0,1.24498486328125,0,0,1.07016
3.346333405992482,0,0,1.4053963745117186,0,0,1.60524
3.347721111989813,0,0,1.5203180541992187,0,0,1.1465999999999998
3.349107632995583,0,0,1.429338391113281,0,0,0.3822
3.3505118199973367,0,0,1.6639701538085936,0,0,1.07016
3.3518990989832673,0,0,1.3239935180664062,0,0,0.91728
3.3532856940000784,0,0,1.254561669921875,0,0,0.7644
3.3546731409733184,0,0,1.4173673828125,0,0,0.22932
3.356059142999584,0,0,1.3287819213867187,0,0,0.30576000000000003
3.3574456999776885,0,0,1.429338391113281,0,0,0.0
3.3588299059774727,0,0,1.3479355346679687,0,0,1.1465999999999998
3.3602144269971177,0,0,1.687912170410156,0,0,0.99372
3.3615931139793247,0,0,1.4149731811523436,0,0,0.22932
3.3629796899913345,0,0,1.3168109130859373,0,0,0.45864
3.3643659699882846,0,0,1.3120225097656248,0,0,0.91728
3.365751934994478,0,0,1.369483349609375,0,0,0.99372
3.367137806984829,0,0,1.484405029296875,0,0,1.37592
3.368532808992313,0,0,1.37906015625,0,0,0.53508
3.3699191999912728,0,0,1.4915876342773438,0,0,0.3822
3.371305553999264,0,0,1.419761584472656,0,0,0.91728
3.372690944990609,0,0,1.4006079711914061,0,0,1.2230400000000001
3.3740764839749318,0,0,1.3335703247070312,0,0,1.07016
3.375463022995973,0,0,1.4915876342773438,0,0,0.6115200000000001
3.3768481919832993,0,0,1.37906015625,0,0,0.53508
3.3782339899917133,0,0,1.3958195678710936,0,0,1.07016
3.3796202139928937,0,0,1.2282254516601563,0,0,1.2994800000000002
3.3810058829840273,0,0,1.6615759521484375,0,0,0.99372
3.382410088990582,0,0,1.2473790649414063,0,0,0.99372
3.383796886977507,0,0,1.3287819213867187,0,0,0.3822
3.38518261097488,0,0,1.4245499877929686,0,0,0.7644
3.3865693349798676,0,0,1.3287819213867187,0,0,0.6115200000000001
3.3879542450013105,0,0,1.4149731811523436,0,0,0.3822
3.389339765999466,0,0,1.4341267944335936,0,0,0.45864
3.3907261379936244,0,0,1.659181750488281,0,0,0.53508
3.3921110469964333,0,0,1.4245499877929686,0,0,0.68796
3.3934962899948005,0,0,1.5203180541992187,0,0,1.1465999999999998
3.3948824029939715,0,0,1.2617442749023438,0,0,1.07016
3.396267349977279,0,0,1.2952630981445312,0,0,1.1465999999999998
3.397652888990706,0,0,1.3144167114257812,0,0,1.911
3.399038871983066,0,0,1.4820108276367188,0,0,0.99372
3.400424559979001,0,0,1.2569558715820313,0,0,0.84084
3.4018099879904184,0,0,1.438915197753906,0,0,0.7644
3.4034880789986346,0,0,1.2952630981445312,0,0,0.68796
3.406303896976169,0,0,1.22583125,0,0,0.6115200000000001
3.4077429359895177,0,0,1.438915197753906,0,0,0.7644
3.4091332709940616,0,0,1.4101847778320311,0,0,-9.40212
3.4105255879985634,0,0,1.2497732666015624,0,0,0.91728
3.41190934900078,0,0,1.5897499023437498,0,0,0.7644
3.413296665996313,0,0,1.3048399047851562,0,0,0.22932
3.4146836680010892,0,0,1.5275006591796874,0,0,0.68796
3.4160695399914403,0,0,1.3910311645507811,0,0,0.6115200000000001
3.4174554130004253,0,0,1.3359645263671873,0,0,0.6115200000000001
3.4188419519923627,0,0,1.5753846923828123,0,0,0.53508
3.4202274909766857,0,0,1.458068811035156,0,0,0.6115200000000001
3.421613325976068,0,0,1.3024457031249999,0,0,0.45864
3.4229990689782426,0,0,1.3048399047851562,0,0,0.99372
3.424387533974368,0,0,1.3215993164062498,0,0,1.2230400000000001
3.4257741469773464,0,0,1.419761584472656,0,0,1.2994800000000002
3.427160797000397,0,0,1.3072341064453123,0,0,1.1465999999999998
3.428546817973256,0,0,1.2832920898437499,0,0,1.2994800000000002
3.429932115977863,0,0,1.455674609375,0,0,1.37592
3.431318488990655,0,0,1.3670891479492187,0,0,1.1465999999999998
3.4327041569922585,0,0,1.6519991455078125,0,0,0.84084
3.4340902709809598,0,0,1.2306196533203124,0,0,0.7644
3.435475790989585,0,0,1.5107412475585937,0,0,0.6115200000000001
3.4368615339917596,0,0,1.3551181396484375,0,0,0.3822
3.438247368991142,0,0,1.3335703247070312,0,0,0.7644
3.439633870992111,0,0,1.458068811035156,0,0,0.45864
3.4410190769995097,0,0,1.3311761230468748,0,0,0.91728
3.4424048379878514,0,0,1.4987702392578124,0,0,0.84084
3.4437902289791964,0,0,1.1875240234375,0,0,0.30576000000000003
3.445175749977352,0,0,1.3934253662109375,0,0,0.84084
3.446562233992154,0,0,1.2425906616210938,0,0,1.1465999999999998
3.4479474389809184,0,0,1.209071838378906,0,0,0.91728
3.44934901499073,0,0,1.3958195678710936,0,0,1.2994800000000002
3.4507364989840426,0,0,1.4532804077148436,0,0,1.1465999999999998
3.452122574992245,0,0,1.4317325927734375,0,0,1.07016
3.4535082249785773,0,0,1.5825672973632812,0,0,0.7644
3.454893911984982,0,0,1.3383587280273437,0,0,1.1465999999999998
3.456284710991895,0,0,1.3096283081054687,0,0,0.45864
3.4576705639774445,0,0,1.448492004394531,0,0,0.6115200000000001
3.4590593629982322,0,0,1.3623007446289062,0,0,0.30576000000000003
3.4604450309998356,0,0,1.448492004394531,0,0,0.0
3.461830440995982,0,0,1.3048399047851562,0,0,0.6115200000000001
3.4632246649998706,0,0,1.68551796875,0,0,0.99372
3.464611833973322,0,0,1.3239935180664062,0,0,0.45864
3.4659975769754965,0,0,1.407790576171875,0,0,0.68796
3.4673831159889232,0,0,1.4245499877929686,0,0,0.53508
3.46876952497405,0,0,1.2282254516601563,0,0,0.84084
3.470157785981428,0,0,1.4772224243164063,0,0,0.99372
3.4715421769942623,0,0,1.5275006591796874,0,0,1.1465999999999998
3.472925456997473,0,0,1.5538368774414062,0,0,0.84084
3.4743092189892195,0,0,1.3646949462890625,0,0,0.91728
3.4757128869823646,0,0,1.1180921752929687,0,0,0.91728
3.477101184980711,0,0,1.4772224243164063,0,0,1.2230400000000001
3.4785113539837766,0,0,1.5275006591796874,0,0,0.7644
3.47989837397472,0,0,1.458068811035156,0,0,0.53508
3.4812857839860953,0,0,1.4963760375976562,0,0,0.99372
3.4826733229856472,0,0,1.3072341064453123,0,0,0.91728
3.484059491980588,0,0,1.6256629272460936,0,0,1.07016
3.485449048981536,0,0,1.3575123413085937,0,0,0.84084
3.486956715991255,0,0,1.3814543579101561,0,0,0.6115200000000001
3.4884804019820876,0,0,1.426944189453125,0,0,0.53508
3.489905532973353,0,0,1.3862427612304686,0,0,0.22932
3.4912974239850882,0,0,1.5658078857421873,0,0,9.47856
3.4926847589958925,0,0,1.4700398193359374,0,0,1.1465999999999998
3.4940881869988516,0,0,1.659181750488281,0,0,0.91728
3.495476244977908,0,0,1.3670891479492187,0,0,0.53508
3.496894171985332,0,0,1.37906015625,0,0,0.68796
3.4982836559938733,0,0,1.3575123413085937,0,0,0.84084
3.499671731988201,0,0,1.3551181396484375,0,0,1.2230400000000001
3.5010587889992166,0,0,1.3934253662109375,0,0,0.6115200000000001
3.5025027910014614,0,0,1.37906015625,0,0,0.84084
3.5038908299757168,0,0,1.68551796875,0,0,0.91728
3.505277979973471,0,0,1.43652099609375,0,0,0.99372
3.5066662409808487,0,0,1.3527239379882812,0,0,1.2230400000000001
3.508052131976001,0,0,1.2785036865234374,0,0,0.84084
3.5094385049887933,0,0,1.3311761230468748,0,0,0.84084
3.5108265619783197,0,0,1.3383587280273437,0,0,1.45236
3.5122128239891026,0,0,1.4867992309570313,0,0,0.84084
3.5135990849812515,0,0,1.2306196533203124,0,0,1.2230400000000001
3.5149858459772076,0,0,1.5921441040039062,0,0,1.07016
3.516372069978388,0,0,1.3096283081054687,0,0,0.7644
3.517770776001271,0,0,1.2713210815429687,0,0,0.15288000000000002
3.51915403699968,0,0,1.3623007446289062,0,0,0.3822
3.5205331509932876,0,0,1.22583125,0,0,0.68796
3.521926781977527,0,0,1.455674609375,0,0,1.1465999999999998
3.5242724579875357,0,0,1.3335703247070312,0,0,1.1465999999999998
3.525660107989097,0,0,1.7429788085937499,0,0,0.99372
3.5270469620008953,0,0,1.3359645263671873,0,0,1.1465999999999998
3.5284331679868046,0,0,1.3263877197265623,0,0,0.53508
3.5298192619811743,0,0,1.4030021728515625,0,0,0.68796
3.531204615981551,0,0,1.5131354492187499,0,0,0.30576000000000003
3.532590173999779,0,0,1.6352397338867186,0,0,0.0
3.5339760829810984,0,0,1.3048399047851562,0,0,1.2994800000000002
3.535381306981435,0,0,1.5969325073242187,0,0,0.99372
3.5368003089970443,0,0,1.448492004394531,0,0,0.84084
3.5382067919999827,0,0,1.3575123413085937,0,0,0.3822
3.5395949609810486,0,0,1.2378022583007813,0,0,0.68796
3.5409806479874533,0,0,1.4317325927734375,0,0,0.91728
3.5423665389826056,0,0,1.448492004394531,0,0,1.37592
3.5437528749753255,0,0,1.4700398193359374,0,0,0.91728
3.5451670799811836,0,0,1.62805712890625,0,0,0.84084
3.5465589340019505,0,0,1.6831237670898436,0,0,0.91728
3.5479460469796322,0,0,1.3958195678710936,0,0,1.2230400000000001
3.549331529997289,0,0,1.3000515014648437,0,0,1.1465999999999998
3.5507185329915956,0,0,1.3862427612304686,0,0,0.53508
3.5521043489861768,0,0,1.4700398193359374,0,0,1.60524
