Time,AccelX1,AccelY1,AccelZ1,AccelX2,AccelY2,AccelZ2
0.000011129,0,0,1.3623007535934448,0,0,1.8345600366592407
0.009290232,0,0,1.4293384552001953,0,0,0.611519992351532
0.009487711,0,0,1.4293384552001953,0,0,1.375920057296753
0.009662652,0,0,1.4293384552001953,0,0,1.375920057296753
0.009841779,0,0,1.4293384552001953,0,0,0.305759996175766
0.010018591,0,0,1.4293384552001953,0,0,0.305759996175766
0.010312826,0,0,1.625662922859192,0,0,1.070159912109375
0.010494434,0,0,1.625662922859192,0,0,0.611519992351532
0.010665987,0,0,1.625662922859192,0,0,0.611519992351532
0.010838318,0,0,1.625662922859192,0,0,1.452359914779663
0.01100837,0,0,1.625662922859192,0,0,1.452359914779663
0.01118009,0,0,1.699883222579956,0,0,0.611519992351532
0.012239368,0,0,1.4724340438842773,0,0,0.9937199950218201
0.013236499,0,0,1.723825216293335,0,0,0.7644000053405762
0.014308,0,0,1.580173134803772,0,0,1.223039984703064
0.01523654,0,0,1.400607943534851,0,0,0.7644000053405762
0.016235171,0,0,1.316810965538025,0,0,0.6879600286483765
0.017256543,0,0,1.3862427473068237,0,0,0.611519992351532
0.01826673,0,0,1.4413094520568848,0,0,0.7644000053405762
0.019233102,0,0,1.338358759880066,0,0,0.611519992351532
0.020248437,0,0,1.5466543436050415,0,0,1.223039984703064
0.021231291,0,0,1.6615760326385498,0,0,0.2293200045824051
0.02223257,0,0,1.4915876388549805,0,0,0.9937199950218201
0.023234294,0,0,1.6089035272598267,0,0,0.6879600286483765
0.024231741,0,0,1.5490485429763794,0,0,0.5350799560546875
0.025231946,0,0,1.3958195447921753,0,0,0.611519992351532
0.026300539,0,0,1.4197616577148438,0,0,0.8408399820327759
0.027232931,0,0,1.3311761617660522,0,0,1.070159912109375
0.02823421,0,0,1.3670891523361206,0,0,0.8408399820327759
0.029231768,0,0,1.4197616577148438,0,0,0.9172800183296204
0.030234029,0,0,1.4269442558288574,0,0,0.8408399820327759
0.031231308,0,0,1.6304513216018677,0,0,0.152879998087883
0.032232532,0,0,1.5945383310317993,0,0,1.223039984703064
0.033247719,0,0,1.702277421951294,0,0,0.8408399820327759
0.034233498,0,0,1.577778935432434,0,0,0.8408399820327759
0.035232056,0,0,1.2737152576446533,0,0,0.6879600286483765
0.036231094,0,0,1.357512354850769,0,0,0.9172800183296204
0.037232022,0,0,1.316810965538025,0,0,1.070159912109375
0.038231653,0,0,1.5179238319396973,0,0,0.611519992351532
0.039231396,0,0,1.53707754611969,0,0,0.7644000053405762
0.040230879,0,0,1.5538369417190552,0,0,0.7644000053405762
0.041230807,0,0,1.6974890232086182,0,0,0.305759996175766
0.042231901,0,0,1.5849615335464478,0,0,0.9937199950218201
0.043231217,0,0,1.558625340461731,0,0,0.9937199950218201
0.04423096,0,0,1.599326729774475,0,0,1.070159912109375
0.04523085,0,0,1.4987702369689941,0,0,0.8408399820327759
0.046303684,0,0,1.50355863571167,0,0,1.223039984703064
0.04723278,0,0,1.3551181554794312,0,0,0.8408399820327759
0.048231578,0,0,1.4053963422775269,0,0,0.8408399820327759
0.049230617,0,0,1.53707754611969,0,0,0.7644000053405762
0.05023184,0,0,1.4867992401123047,0,0,0.7644000053405762
0.051231361,0,0,1.6496049165725708,0,0,0.8408399820327759
0.052230492,0,0,1.623268723487854,0,0,0.8408399820327759
0.053230697,0,0,1.4867992401123047,0,0,1.070159912109375
0.05423331,0,0,1.6543933153152466,0,0,1.070159912109375
0.055234256,0,0,1.4053963422775269,0,0,0.9937199950218201
0.056233536,0,0,1.5155296325683594,0,0,0.9937199950218201
0.057233315,0,0,1.4053963422775269,0,0,0.9172800183296204
0.058234891,0,0,1.3096283674240112,0,0,0.8408399820327759
0.05923293,0,0,1.4437036514282227,0,0,0.8408399820327759
0.060233432,0,0,1.479616641998291,0,0,0.9937199950218201
0.061233507,0,0,1.6496049165725708,0,0,1.758120059967041
0.062234639,0,0,1.6112977266311646,0,0,0.9172800183296204
0.063233085,0,0,1.501164436340332,0,0,0.9937199950218201
0.06423329,0,0,1.6400281190872192,0,0,0.6879600286483765
0.06524657,0,0,1.4389152526855469,0,0,1.1466000080108643
0.066245256,0,0,1.525106430053711,0,0,0.9937199950218201
0.067234518,0,0,1.41257905960083,0,0,0.6879600286483765
0.06826313,0,0,1.314416766166687,0,0,0.8408399820327759
0.069276409,0,0,1.5155296325683594,0,0,1.070159912109375
0.07023643,0,0,1.6065093278884888,0,0,0.9937199950218201
0.071307097,0,0,1.6759412288665771,0,0,1.375920057296753
0.072234434,0,0,1.644816517829895,0,0,0.3822000026702881
0.073234083,0,0,1.5873557329177856,0,0,0.9172800183296204
0.074253251,0,0,1.8171991109848022,0,0,0.8408399820327759
0.075235402,0,0,1.4939818382263184,0,0,1.070159912109375
0.076233589,0,0,1.5418659448623657,0,0,0.7644000053405762
0.077233516,0,0,1.5322890281677246,0,0,0.7644000053405762
0.078234296,0,0,1.403002142906189,0,0,0.611519992351532
0.079232946,0,0,1.403002142906189,0,0,0.8408399820327759
0.080233466,0,0,1.4724340438842773,0,0,0.9172800183296204
0.08123343,0,0,1.599326729774475,0,0,0.5350799560546875
0.082234747,0,0,1.53707754611969,0,0,0.305759996175766
0.083232915,0,0,1.455674648284912,0,0,0.9937199950218201
0.084233306,0,0,1.678335428237915,0,0,0.8408399820327759
0.085233289,0,0,1.558625340461731,0,0,0.9937199950218201
0.086234198,0,0,1.460463047027588,0,0,0.9172800183296204
0.087232774,0,0,1.3646949529647827,0,0,0.5350799560546875
0.088233628,0,0,1.3072341680526733,0,0,0.9172800183296204
0.089234314,0,0,1.3838485479354858,0,0,0.9937199950218201
0.090234816,0,0,1.5298948287963867,0,0,1.070159912109375
0.091232707,0,0,1.5682021379470825,0,0,0.152879998087883
0.092233042,0,0,1.5634137392044067,0,0,0.305759996175766
0.093233414,0,0,1.4867992401123047,0,0,1.1466000080108643
0.094234582,0,0,1.6400281190872192,0,0,0.7644000053405762
0.095232269,0,0,1.558625340461731,0,0,1.070159912109375
0.096232826,0,0,1.4173674583435059,0,0,0.7644000053405762
0.097233495,0,0,1.525106430053711,0,0,0.9937199950218201
0.098234348,0,0,1.381454348564148,0,0,0.6879600286483765
0.099232832,0,0,1.4724340438842773,0,0,0.5350799560546875
0.100233315,0,0,1.5658079385757446,0,0,0.8408399820327759
0.101233483,0,0,1.5825673341751099,0,0,0.4586400091648102
0.102234133,0,0,1.625662922859192,0,0,0.6879600286483765
0.103233024,0,0,1.5705963373184204,0,0,0.9937199950218201
0.104233433,0,0,1.5921441316604614,0,0,0.9172800183296204
0.105233564,0,0,1.6304513216018677,0,0,0.6879600286483765
0.106234381,0,0,1.3766659498214722,0,0,0.5350799560546875
0.107232771,0,0,1.436521053314209,0,0,0.9172800183296204
0.108233477,0,0,1.3048399686813354,0,0,0.8408399820327759
0.109233367,0,0,1.381454348564148,0,0,0.6879600286483765
0.110234461,0,0,1.5634137392044067,0,0,0.9172800183296204
0.111232834,0,0,1.5705963373184204,0,0,0.6879600286483765
0.112233557,0,0,1.6711528301239014,0,0,1.1466000080108643
0.113233392,0,0,1.5945383310317993,0,0,0.8408399820327759
0.114258449,0,0,1.580173134803772,0,0,0.7644000053405762
0.115236451,0,0,1.6687586307525635,0,0,0.9172800183296204
0.11623349,0,0,1.4724340438842773,0,0,0.5350799560546875
0.117233066,0,0,1.4772224426269531,0,0,0.9937199950218201
0.118234623,0,0,1.3096283674240112,0,0,0.9937199950218201
0.119232736,0,0,1.3742717504501343,0,0,0.611519992351532
0.12023346,0,0,1.5275006294250488,0,0,0.7644000053405762
0.121233388,0,0,1.5538369417190552,0,0,0.9172800183296204
0.122233575,0,0,1.6759412288665771,0,0,1.6816799640655518
0.123233428,0,0,1.6065093278884888,0,0,1.070159912109375
0.124233448,0,0,1.5490485429763794,0,0,0.8408399820327759
0.125233376,0,0,1.6615760326385498,0,0,0.9172800183296204
0.126307247,0,0,1.4724340438842773,0,0,0.9172800183296204
0.127234657,0,0,1.5155296325683594,0,0,1.375920057296753
0.12823377,0,0,1.3766659498214722,0,0,0.9172800183296204
0.129259364,0,0,1.3215993642807007,0,0,0.8408399820327759
0.130236218,0,0,1.400607943534851,0,0,0.8408399820327759
0.131233257,0,0,1.3862427473068237,0,0,0.8408399820327759
0.13223348,0,0,1.5897499322891235,0,0,1.452359914779663
0.133233686,0,0,1.6208745241165161,0,0,0.7644000053405762
0.134234336,0,0,1.525106430053711,0,0,0.9172800183296204
0.13523256,0,0,1.7334020137786865,0,0,0.6879600286483765
0.136233358,0,0,1.4389152526855469,0,0,1.2994799613952637
0.137233545,0,0,1.4700398445129395,0,0,0.9172800183296204
0.138234176,0,0,1.3910311460494995,0,0,0.9172800183296204
0.139232511,0,0,1.357512354850769,0,0,0.611519992351532
0.140233476,0,0,1.4772224426269531,0,0,0.7644000053405762
0.141233366,0,0,1.5179238319396973,0,0,0.9937199950218201
0.142234386,0,0,1.6927006244659424,0,0,1.452359914779663
0.143232999,0,0,1.5945383310317993,0,0,0.2293200045824051
0.144233482,0,0,1.534683346748352,0,0,0.6879600286483765
0.145233392,0,0,1.6615760326385498,0,0,0.6879600286483765
0.14623456,0,0,1.403002142906189,0,0,1.070159912109375
0.14723308,0,0,1.4724340438842773,0,0,1.1466000080108643
0.148233452,0,0,1.381454348564148,0,0,0.611519992351532
0.149233232,0,0,1.4508862495422363,0,0,0.9937199950218201
0.150234326,0,0,1.4748282432556152,0,0,1.1466000080108643
0.15123305,0,0,1.4173674583435059,0,0,1.1466000080108643
0.152233644,0,0,1.6136919260025024,0,0,0.9172800183296204
0.153233479,0,0,1.5897499322891235,0,0,0.2293200045824051
0.154234574,0,0,1.501164436340332,0,0,0.8408399820327759
0.155233279,0,0,1.659181833267212,0,0,0.7644000053405762
0.156233484,0,0,1.5418659448623657,0,0,0.7644000053405762
0.157233005,0,0,1.4269442558288574,0,0,0.4586400091648102
0.158234525,0,0,1.3670891523361206,0,0,0.4586400091648102
0.159233045,0,0,1.3527239561080933,0,0,0.9937199950218201
0.160232862,0,0,1.3958195447921753,0,0,0.9172800183296204
0.16123316,0,0,1.4939818382263184,0,0,0.8408399820327759
0.162234458,0,0,1.6328455209732056,0,0,0.4586400091648102
0.163233256,0,0,1.5921441316604614,0,0,0.2293200045824051
0.164233628,0,0,1.482010841369629,0,0,0.9937199950218201
0.16523337,0,0,1.702277421951294,0,0,0.611519992351532
0.166234372,0,0,1.580173134803772,0,0,0.7644000053405762
0.167233059,0,0,1.3718775510787964,0,0,0.611519992351532
0.168233523,0,0,1.3718775510787964,0,0,0.611519992351532
0.169233562,0,0,1.3239935636520386,0,0,0.9172800183296204
0.170234305,0,0,1.41257905960083,0,0,0.611519992351532
0.171232714,0,0,1.4844050407409668,0,0,0.7644000053405762
0.17223316,0,0,1.5418659448623657,0,0,0.2293200045824051
0.173233421,0,0,1.6831238269805908,0,0,0.305759996175766
0.174234441,0,0,1.5322890281677246,0,0,0.6879600286483765
0.175232813,0,0,1.5921441316604614,0,0,0.9937199950218201
0.176233574,0,0,1.522712230682373,0,0,0.9172800183296204
0.177233909,0,0,1.3527239561080933,0,0,0.6879600286483765
0.178234152,0,0,1.5107412338256836,0,0,1.1466000080108643
0.179232913,0,0,1.4413094520568848,0,0,0.8408399820327759
0.180233655,0,0,1.434126853942871,0,0,0.9172800183296204
0.181233342,0,0,1.3958195447921753,0,0,0.9172800183296204
0.182234195,0,0,1.4891934394836426,0,0,0.5350799560546875
0.183233012,0,0,1.623268723487854,0,0,0.7644000053405762
0.184233458,0,0,1.5322890281677246,0,0,0.6879600286483765
0.18523346,0,0,1.601720929145813,0,0,0.6879600286483765
0.186234313,0,0,1.6376339197158813,0,0,0.6879600286483765
0.187232852,0,0,1.460463047027588,0,0,1.070159912109375
0.188233446,0,0,1.4700398445129395,0,0,0.9172800183296204
0.189233244,0,0,1.3527239561080933,0,0,0.9172800183296204
0.190234654,0,0,1.381454348564148,0,0,0.9937199950218201
0.191232859,0,0,1.4963760375976563,0,0,0.611519992351532
0.192233361,0,0,1.5538369417190552,0,0,0.6879600286483765
0.193233603,0,0,1.699883222579956,0,0,1.605239987373352
0.194234401,0,0,1.5825673341751099,0,0,0.9172800183296204
0.195232884,0,0,1.4867992401123047,0,0,0.9172800183296204
0.19623359,0,0,1.6280571222305298,0,0,0.5350799560546875
0.19723348,0,0,1.400607943534851,0,0,0.9937199950218201
0.198234575,0,0,1.4700398445129395,0,0,0.9937199950218201
0.199232984,0,0,1.37906014919281,0,0,0.9172800183296204
0.200233263,0,0,1.3886369466781616,0,0,0.9937199950218201
0.201233358,0,0,1.4532804489135742,0,0,0.7644000053405762
0.202233489,0,0,1.4724340438842773,0,0,0.8408399820327759
0.203233083,0,0,1.5298948287963867,0,0,1.5288000106811523
0.204232992,0,0,1.6304513216018677,0,0,0.611519992351532
0.205233364,0,0,1.5921441316604614,0,0,0.9172800183296204
0.206234496,0,0,1.7310078144073486,0,0,0.8408399820327759
0.207232942,0,0,1.3838485479354858,0,0,1.1466000080108643
0.208233351,0,0,1.460463047027588,0,0,0.8408399820327759
0.209233242,0,0,1.3431471586227417,0,0,0.6879600286483765
0.210234317,0,0,1.2880805730819702,0,0,1.070159912109375
0.211252152,0,0,1.4317326545715332,0,0,0.7644000053405762
0.212235617,0,0,1.4389152526855469,0,0,0.9172800183296204
0.21323336,0,0,1.6304513216018677,0,0,1.5288000106811523
0.214273731,0,0,1.6352397203445435,0,0,0.305759996175766
0.215238381,0,0,1.6184803247451782,0,0,0.9937199950218201
0.216234124,0,0,1.7908629179000854,0,0,0.6879600286483765
0.217235755,0,0,1.4221558570861816,0,0,1.223039984703064
0.218234294,0,0,1.414973258972168,0,0,0.611519992351532
0.21923411,0,0,1.4939818382263184,0,0,0.9937199950218201
0.22023376,0,0,1.3958195447921753,0,0,0.9172800183296204
0.221233984,0,0,1.525106430053711,0,0,0.7644000053405762
0.222233616,0,0,1.501164436340332,0,0,0.9172800183296204
0.223234062,0,0,1.6184803247451782,0,0,1.1466000080108643
0.224234175,0,0,1.6927006244659424,0,0,0.305759996175766
0.225233399,0,0,1.525106430053711,0,0,0.9937199950218201
0.226234048,0,0,1.6879122257232666,0,0,0.6879600286483765
0.227234069,0,0,1.5179238319396973,0,0,0.9172800183296204
0.228233904,0,0,1.5131354331970215,0,0,0.6879600286483765
0.229233942,0,0,1.5275006294250488,0,0,1.070159912109375
0.23023474,0,0,1.3958195447921753,0,0,0.9937199950218201
0.231231168,0,0,1.4317326545715332,0,0,0.8408399820327759
0.23223117,0,0,1.436521053314209,0,0,1.070159912109375
0.233231227,0,0,1.5442601442337036,0,0,0.4586400091648102
0.234233692,0,0,1.6280571222305298,0,0,0.2293200045824051
0.23523499,0,0,1.5945383310317993,0,0,0.9937199950218201
0.236233936,0,0,1.6831238269805908,0,0,0.9172800183296204
0.237234123,0,0,1.4508862495422363,0,0,0.6879600286483765
0.238234865,0,0,1.3479355573654175,0,0,0.6879600286483765
0.239233182,0,0,1.4748282432556152,0,0,1.070159912109375
0.240233609,0,0,1.434126853942871,0,0,1.070159912109375
0.241233944,0,0,1.4939818382263184,0,0,0.7644000053405762
0.242235002,0,0,1.558625340461731,0,0,0.9172800183296204
0.243232855,0,0,1.5921441316604614,0,0,0.3822000026702881
0.244233968,0,0,1.6208745241165161,0,0,0.152879998087883
0.245234173,0,0,1.5682021379470825,0,0,0.9172800183296204
0.246234749,0,0,1.6950948238372803,0,0,0.8408399820327759
0.247242825,0,0,1.6041151285171509,0,0,0.9937199950218201
0.248272011,0,0,1.3646949529647827,0,0,0.9172800183296204
0.249249069,0,0,1.3766659498214722,0,0,1.070159912109375
0.250243552,0,0,1.3311761617660522,0,0,1.070159912109375
0.251233739,0,0,1.3862427473068237,0,0,0.7644000053405762
0.252233741,0,0,1.4939818382263184,0,0,0.6879600286483765
0.253234057,0,0,1.5203180313110352,0,0,0.7644000053405762
0.254234911,0,0,1.53707754611969,0,0,0.9937199950218201
0.255233209,0,0,1.5059528350830078,0,0,0.8408399820327759
0.256233785,0,0,1.644816517829895,0,0,0.8408399820327759
0.257266749,0,0,1.721431016921997,0,0,0.6879600286483765
0.258236899,0,0,1.3910311460494995,0,0,1.070159912109375
0.259233494,0,0,1.400607943534851,0,0,1.1466000080108643
0.260233699,0,0,1.3120225667953491,0,0,0.9172800183296204
0.26123359,0,0,1.4077905416488647,0,0,0.3822000026702881
0.262234888,0,0,1.403002142906189,0,0,0.305759996175766
0.263230575,0,0,1.1779472827911377,0,0,0.8408399820327759
0.264231113,0,0,1.2282254695892334,0,0,0.9172800183296204
0.265230652,0,0,1.5059528350830078,0,0,0.5350799560546875
0.266256005,0,0,1.7573440074920654,0,0,0.9937199950218201
0.267235452,0,0,2.0877439975738525,0,0,0.3822000026702881
0.268233639,0,0,1.2976573705673218,0,0,1.452359914779663
0.269233529,0,0,0.3926490843296051,0,0,1.070159912109375
0.270234883,0,0,0.4644751250743866,0,0,-0.305759996175766
0.271233107,0,0,0.8475474119186401,0,0,0
0.272233738,0,0,1.4077905416488647,0,0,0
0.273233869,0,0,1.3335703611373901,0,0,0.5350799560546875
0.274234649,0,0,1.2473790645599365,0,0,0.7644000053405762
0.275233262,0,0,1.278503656387329,0,0,0.9937199950218201
0.276233652,0,0,0.9648633003234863,0,0,0.611519992351532
0.277233654,0,0,1.1061211824417114,0,0,0.6879600286483765
0.278234322,0,0,0.9983820915222168,0,0,1.223039984703064
0.279233472,0,0,1.1468225717544556,0,0,0.305759996175766
0.280233418,0,0,1.6112977266311646,0,0,0.4586400091648102
0.281233457,0,0,1.7166426181793213,0,0,1.375920057296753
0.282234107,0,0,1.7190368175506592,0,0,0.7644000053405762
0.283233442,0,0,1.5442601442337036,0,0,1.2994799613952637
0.284233703,0,0,1.2952631711959839,0,0,0.8408399820327759
0.285233594,0,0,1.5083470344543457,0,0,0
0.286234317,0,0,1.4077905416488647,0,0,0.5350799560546875
0.287232782,0,0,1.7357962131500244,0,0,0.152879998087883
0.28823358,0,0,1.3934253454208374,0,0,0.8408399820327759
0.289233452,0,0,1.3072341680526733,0,0,0.152879998087883
0.290233547,0,0,1.1635819673538208,0,0,0.5350799560546875
0.291233659,0,0,0.8930372595787048,0,0,0.4586400091648102
0.292233828,0,0,0.9457096457481384,0,0,0.2293200045824051
0.293233811,0,0,0.9433154463768005,0,0,0.8408399820327759
0.294234831,0,0,1.3670891523361206,0,0,0
0.295230555,0,0,1.4652514457702637,0,0,0
0.296231057,0,0,1.4293384552001953,0,0,0.9172800183296204
0.297231133,0,0,1.4221558570861816,0,0,0.2293200045824051
0.298233171,0,0,1.2713210582733154,0,0,0.9937199950218201
0.299233784,0,0,1.2737152576446533,0,0,0.6879600286483765
0.300233212,0,0,1.2282254695892334,0,0,0.5350799560546875
0.301233139,0,0,1.1204863786697388,0,0,0.7644000053405762
0.302234141,0,0,1.2713210582733154,0,0,0.7644000053405762
0.303232495,0,0,1.381454348564148,0,0,0.6879600286483765
0.304233052,0,0,1.5610195398330688,0,0,0.5350799560546875
0.305233165,0,0,1.5897499322891235,0,0,1.1466000080108643
0.306234333,0,0,1.5514427423477173,0,0,0.9937199950218201
0.307232594,0,0,1.6639702320098877,0,0,0.6879600286483765
0.30823267,0,0,1.4508862495422363,0,0,0.8408399820327759
0.309233431,0,0,1.2880805730819702,0,0,0.5350799560546875
0.310233877,0,0,1.1875240802764893,0,0,0.8408399820327759
0.311232323,0,0,1.1252747774124146,0,0,0.7644000053405762
0.31223251,0,0,1.2306196689605713,0,0,0.4586400091648102
0.313233215,0,0,1.1013327836990356,0,0,0.4586400091648102
0.314273976,0,0,1.2114660739898682,0,0,0
0.315236478,0,0,1.3263877630233765,0,0,0.8408399820327759
0.316233035,0,0,1.2617442607879639,0,0,0.305759996175766
0.317233315,0,0,1.3838485479354858,0,0,0.4586400091648102
0.318233983,0,0,1.1324573755264282,0,0,0.9172800183296204
0.319232022,0,0,0.9481038451194763,0,0,0.152879998087883
0.320232839,0,0,1.1180921792984009,0,0,0.6879600286483765
0.321241507,0,0,1.1300631761550903,0,0,0.7644000053405762
0.322235064,0,0,1.2952631711959839,0,0,0.9172800183296204
0.323232918,0,0,1.3934253454208374,0,0,0.6879600286483765
0.324233253,0,0,1.5921441316604614,0,0,0.611519992351532
0.325233199,0,0,1.824381709098816,0,0,2.2167599201202393
0.326234386,0,0,1.7310078144073486,0,0,0.9172800183296204
0.327232888,0,0,1.680729627609253,0,0,1.070159912109375
0.328233056,0,0,1.625662922859192,0,0,1.070159912109375
0.329233187,0,0,1.2713210582733154,0,0,0.5350799560546875
0.330234189,0,0,1.2018892765045166,0,0,0.7644000053405762
0.33123245,0,0,1.1109095811843872,0,0,0.305759996175766
0.332233248,0,0,1.1180921792984009,0,0,0
0.333232601,0,0,1.091755986213684,0,0,0.305759996175766
0.334234362,0,0,0.9864110946655273,0,0,0.152879998087883
0.335232772,0,0,1.2641384601593018,0,0,1.1466000080108643
0.336233162,0,0,1.1252747774124146,0,0,-0.152879998087883
0.337233331,0,0,1.1324573755264282,0,0,0.611519992351532
0.338234184,0,0,1.2617442607879639,0,0,0.5350799560546875
0.339232815,0,0,1.1228805780410767,0,0,0.9937199950218201
0.340232891,0,0,1.2641384601593018,0,0,1.1466000080108643
0.341233319,0,0,1.2114660739898682,0,0,0.7644000053405762
0.342234246,0,0,1.3670891523361206,0,0,0.8408399820327759
0.343232785,0,0,1.335964560508728,0,0,0.9172800183296204
0.344233194,0,0,1.2497732639312744,0,0,0.6879600286483765
0.345233159,0,0,1.381454348564148,0,0,0.611519992351532
0.346352973,0,0,1.5418659448623657,0,0,-0.152879998087883
0.347234718,0,0,1.5729905366897583,0,0,0.9937199950218201
0.348233794,0,0,1.6950948238372803,0,0,0.8408399820327759
0.349233166,0,0,1.3455413579940796,0,0,1.223039984703064
0.350234242,0,0,1.2066776752471924,0,0,0.7644000053405762
0.351232132,0,0,1.1516109704971313,0,0,0.7644000053405762
0.352233245,0,0,1.1851298809051514,0,0,0.7644000053405762
0.353234062,0,0,1.3335703611373901,0,0,0.611519992351532
0.354234248,0,0,1.3192051649093628,0,0,0.4586400091648102
0.355232435,0,0,1.479616641998291,0,0,0.0764399990439415
0.356233344,0,0,1.525106430053711,0,0,-0.2293200045824051
0.357233198,0,0,1.434126853942871,0,0,0.5350799560546875
0.358234422,0,0,1.699883222579956,0,0,0.611519992351532
0.359232535,0,0,1.381454348564148,0,0,0.9172800183296204
0.360233203,0,0,1.3311761617660522,0,0,0.9172800183296204
0.36123339,0,0,1.1971008777618408,0,0,0.8408399820327759
0.362234558,0,0,1.072602391242981,0,0,0.9937199950218201
0.363232727,0,0,1.1324573755264282,0,0,0.611519992351532
0.364233173,0,0,0.9552865028381348,0,0,0.5350799560546875
0.365233156,0,0,1.1324573755264282,0,0,0
0.366234195,0,0,1.359906554222107,0,0,0
0.367233085,0,0,1.5322890281677246,0,0,0.152879998087883
0.368233291,0,0,1.8986018896102905,0,0,0.4586400091648102
0.369233033,0,0,1.7932571172714233,0,0,1.070159912109375
0.370234313,0,0,1.7070658206939697,0,0,1.070159912109375
0.371247592,0,0,1.50355863571167,0,0,1.1466000080108643
0.37223415,0,0,1.1013327836990356,0,0,0.8408399820327759
0.373232818,0,0,0.8858546018600464,0,0,0.611519992351532
0.374234134,0,0,0.7781155705451965,0,0,0.4586400091648102
0.375232525,0,0,0.8738836050033569,0,0,-0.611519992351532
0.37623323,0,0,1.2473790645599365,0,0,-0.3822000026702881
0.377234084,0,0,1.4867992401123047,0,0,0.152879998087883
0.378234549,0,0,1.8914192914962769,0,0,0.5350799560546875
0.379232587,0,0,1.7357962131500244,0,0,0.5350799560546875
0.380233274,0,0,1.359906554222107,0,0,1.223039984703064
0.381233239,0,0,0.8068459630012512,0,0,1.070159912109375
0.382234111,0,0,0.3495534360408783,0,0,0.611519992351532
0.383232502,0,0,0.38067805767059326,0,0,0.611519992351532
0.384233207,0,0,0.8068459630012512,0,0,0
0.385233098,0,0,1.4173674583435059,0,0,0
0.38623421,0,0,1.8938134908676147,0,0,0.9172800183296204
0.387232657,0,0,2.126051187515259,0,0,1.1466000080108643
0.38823314,0,0,2.233790159225464,0,0,1.070159912109375
0.389233271,0,0,1.8626888990402222,0,0,1.452359914779663
0.390234199,0,0,1.0773907899856567,0,0,1.5288000106811523
0.39123283,0,0,0.7924807667732239,0,0,0.9172800183296204
0.392233036,0,0,0.8930372595787048,0,0,0.611519992351532
0.393233278,0,0,1.50355863571167,0,0,0.305759996175766
0.394233835,0,0,1.941697597503662,0,0,0.3822000026702881
0.395232763,0,0,1.9991583824157715,0,0,0.7644000053405762
0.396233042,0,0,1.8555063009262085,0,0,1.452359914779663
0.397233081,0,0,1.2713210582733154,0,0,0.2293200045824051
0.398233694,0,0,0.8930372595787048,0,0,0.8408399820327759
0.399232603,0,0,0.7015010714530945,0,0,0.152879998087883
0.400233142,0,0,0.7852981686592102,0,0,0.305759996175766
0.401233218,0,0,1.3335703611373901,0,0,0.4586400091648102
0.402234164,0,0,1.4891934394836426,0,0,0.611519992351532
0.403232832,0,0,1.4724340438842773,0,0,0.9937199950218201
0.404233352,0,0,1.3862427473068237,0,0,0.8408399820327759
0.405233465,0,0,0.9481038451194763,0,0,0.8408399820327759
0.406234115,0,0,0.8451532125473022,0,0,1.1466000080108643
0.407232561,0,0,1.139639973640442,0,0,0.3822000026702881
0.408233137,0,0,1.6831238269805908,0,0,0.5350799560546875
0.409233083,0,0,1.886630892753601,0,0,0.3822000026702881
0.410234066,0,0,1.4915876388549805,0,0,0.9937199950218201
0.411232883,0,0,1.070208191871643,0,0,0.4586400091648102
0.412233014,0,0,0.706289529800415,0,0,0.305759996175766
0.413233127,0,0,0.6512228846549988,0,0,0
0.414260684,0,0,0.8427590131759644,0,0,0.305759996175766
0.41523726,0,0,1.235408067703247,0,0,0.3822000026702881
0.416233114,0,0,1.6280571222305298,0,0,0.9172800183296204
0.417233634,0,0,1.5155296325683594,0,0,0.3822000026702881
0.418235284,0,0,1.3455413579940796,0,0,1.070159912109375
0.419232822,0,0,1.6615760326385498,0,0,0.611519992351532
0.420233213,0,0,1.6927006244659424,0,0,1.605239987373352
0.421233307,0,0,1.6974890232086182,0,0,1.1466000080108643
0.422233328,0,0,1.4700398445129395,0,0,0.9937199950218201
0.4232332,0,0,1.316810965538025,0,0,0.8408399820327759
0.42423309,0,0,1.2665326595306396,0,0,0.6879600286483765
0.425233314,0,0,1.3862427473068237,0,0,0.3822000026702881
0.426247112,0,0,1.824381709098816,0,0,0.611519992351532
0.427234447,0,0,1.968033790588379,0,0,0.2293200045824051
0.428233616,0,0,1.599326729774475,0,0,0.611519992351532
0.429233414,0,0,1.3239935636520386,0,0,0.305759996175766
0.430233545,0,0,0.7254431247711182,0,0,1.070159912109375
0.431233602,0,0,0.4836287498474121,0,0,0
0.432233308,0,0,0.6488286852836609,0,0,0
0.433233531,0,0,0.8858546018600464,0,0,0.4586400091648102
0.434234755,0,0,1.0271124839782715,0,0,0.152879998087883
0.435245053,0,0,0.9552865028381348,0,0,0.152879998087883
0.436234,0,0,1.0247182846069336,0,0,0.7644000053405762
0.437233335,0,0,1.2042834758758545,0,0,-0.305759996175766
0.438234447,0,0,1.1492167711257935,0,0,1.070159912109375
0.439232782,0,0,1.7597382068634033,0,0,0.9172800183296204
0.440233543,0,0,1.5131354331970215,0,0,1.223039984703064
0.441233082,0,0,1.4197616577148438,0,0,1.1466000080108643
0.442234528,0,0,1.6639702320098877,0,0,1.2994799613952637
0.443232882,0,0,1.7836803197860718,0,0,1.452359914779663
0.444233532,0,0,1.7381904125213623,0,0,1.605239987373352
0.445233385,0,0,1.6855180263519287,0,0,0.9937199950218201
0.446234943,0,0,1.4317326545715332,0,0,0.6879600286483765
0.447283462,0,0,1.3431471586227417,0,0,0
0.448235131,0,0,1.6065093278884888,0,0,0
0.449233559,0,0,1.8746598958969116,0,0,0.0764399990439415
0.450233709,0,0,1.6735470294952393,0,0,0.4586400091648102
0.451233321,0,0,1.1061211824417114,0,0,0.4586400091648102
0.452233194,0,0,0.5315127968788147,0,0,0.611519992351532
0.453233214,0,0,0.4812345504760742,0,0,0.305759996175766
0.454233623,0,0,0.507570743560791,0,0,-0.152879998087883
0.455233291,0,0,0.7398083209991455,0,0,-9.784319877624512
0.456232997,0,0,0.8140285611152649,0,0,0
0.457233313,0,0,0.751779317855835,0,0,0
0.458233556,0,0,1.1779472827911377,0,0,0.3822000026702881
0.459232817,0,0,1.5945383310317993,0,0,0.8408399820327759
0.460233374,0,0,1.8986018896102905,0,0,0.5350799560546875
0.461232987,0,0,1.6496049165725708,0,0,1.9874399900436401
0.462233396,0,0,1.3263877630233765,0,0,1.8345600366592407
0.463233046,0,0,1.5921441316604614,0,0,0.8408399820327759
0.464233492,0,0,1.6304513216018677,0,0,1.9874399900436401
0.465233568,0,0,1.7836803197860718,0,0,0.9172800183296204
0.466234736,0,0,1.723825216293335,0,0,1.1466000080108643
0.467232608,0,0,1.577778935432434,0,0,1.452359914779663
0.468233462,0,0,1.9608511924743652,0,0,0.2293200045824051
0.469233204,0,0,1.8124107122421265,0,0,0.9172800183296204
0.470234224,0,0,1.7573440074920654,0,0,0.305759996175766
0.471232763,0,0,1.2880805730819702,0,0,0.5350799560546875
0.47223345,0,0,0.6607996821403503,0,0,0.611519992351532
0.473233211,0,0,0.8379706144332886,0,0,-0.3822000026702881
0.47423412,0,0,0.5386953949928284,0,0,0.0764399990439415
0.475233048,0,0,0.49320554733276367,0,0,0
0.476233327,0,0,0.5602431893348694,0,0,-0.152879998087883
0.477233125,0,0,0.6368576288223267,0,0,0.5350799560546875
0.478234349,0,0,1.280897855758667,0,0,-0.305759996175766
0.479241665,0,0,1.7693150043487549,0,0,0.8408399820327759
0.480311925,0,0,1.7334020137786865,0,0,0.8408399820327759
0.48128565,0,0,1.8100165128707886,0,0,1.8345600366592407
0.482465296,0,0,1.53707754611969,0,0,2.06387996673584
0.483261116,0,0,1.0989385843276978,0,0,1.605239987373352
0.484234433,0,0,1.1324573755264282,0,0,1.1466000080108643
0.485233491,0,0,1.0606313943862915,0,0,0.9172800183296204
0.486233381,0,0,1.9632453918457031,0,0,0.305759996175766
0.487233272,0,0,2.4396915435791016,0,0,0.0764399990439415
0.488232496,0,0,2.276885747909546,0,0,-0.152879998087883
0.489232442,0,0,1.8914192914962769,0,0,0.7644000053405762
0.490233666,0,0,1.0869675874710083,0,0,0.5350799560546875
0.491233538,0,0,0.5674257874488831,0,0,0.2293200045824051
0.492232669,0,0,0.5291185975074768,0,0,0.3822000026702881
0.493232375,0,0,0.26096799969673157,0,0,0
0.49423321,0,0,0.35434186458587646,0,0,-0.305759996175766
0.495232952,0,0,0.7493851184844971,0,0,-0.3822000026702881
0.496232398,0,0,1.479616641998291,0,0,-0.152879998087883
0.497238696,0,0,1.920149803161621,0,0,0.6879600286483765
0.498270457,0,0,1.9345149993896484,0,0,0.305759996175766
0.499277199,0,0,2.0159177780151367,0,0,1.6816799640655518
0.50023472,0,0,1.5179238319396973,0,0,1.6816799640655518
0.501232722,0,0,1.2282254695892334,0,0,1.223039984703064
0.502232612,0,0,1.1468225717544556,0,0,1.1466000080108643
0.503232799,0,0,1.460463047027588,0,0,0.6879600286483765
0.504232505,0,0,1.8938134908676147,0,0,0.6879600286483765
0.505231895,0,0,1.968033790588379,0,0,0.4586400091648102
0.506233915,0,0,1.699883222579956,0,0,0.4586400091648102
0.507235973,0,0,1.335964560508728,0,0,0.4586400091648102
0.508235048,0,0,0.9193734526634216,0,0,0.152879998087883
0.509235254,0,0,0.395043283700943,0,0,0.4586400091648102
0.510236311,0,0,0.48602294921875,0,0,-0.3822000026702881
0.511234202,0,0,0.5722141861915588,0,0,0
0.512235018,0,0,1.1635819673538208,0,0,-0.305759996175766
0.513264649,0,0,1.2737152576446533,0,0,0.9172800183296204
0.514238596,0,0,1.5179238319396973,0,0,0.9172800183296204
0.515238597,0,0,1.5682021379470825,0,0,1.2994799613952637
0.516235006,0,0,1.2880805730819702,0,0,1.452359914779663
0.517235045,0,0,1.259350061416626,0,0,1.5288000106811523
0.51823651,0,0,1.3096283674240112,0,0,1.605239987373352
0.519235271,0,0,2.027888774871826,0,0,0.152879998087883
0.520235347,0,0,2.4013843536376953,0,0,0.6879600286483765
0.521235052,0,0,2.0661959648132324,0,0,0.7644000053405762
0.522235869,0,0,1.886630892753601,0,0,0.305759996175766
0.523231444,0,0,1.4437036514282227,0,0,1.2994799613952637
0.524232317,0,0,0.646434485912323,0,0,0.8408399820327759
0.525232374,0,0,-0.0071826050989329815,0,0,0.3822000026702881
0.526241949,0,0,0.06224924325942993,0,0,0
0.52723684,0,0,0.7015010714530945,0,0,-0.7644000053405762
0.528235175,0,0,1.414973258972168,0,0,0.6879600286483765
0.529234973,0,0,1.7741034030914307,0,0,0.3822000026702881
0.530235679,0,0,2.145204782485962,0,0,0.9172800183296204
0.531234162,0,0,1.5203180313110352,0,0,1.8345600366592407
0.532234608,0,0,1.0749965906143188,0,0,1.375920057296753
0.533234961,0,0,1.0031704902648926,0,0,1.223039984703064
0.534235445,0,0,1.4173674583435059,0,0,1.223039984703064
0.535234039,0,0,1.5682021379470825,0,0,0.6879600286483765
0.536234504,0,0,1.7310078144073486,0,0,0.152879998087883
0.537234616,0,0,1.7477672100067139,0,0,0.5350799560546875
0.538235303,0,0,1.4269442558288574,0,0,1.758120059967041
0.539234046,0,0,0.9552865028381348,0,0,0.305759996175766
0.540234585,0,0,0.8236053586006165,0,0,0.6879600286483765
0.541234605,0,0,0.6703764796257019,0,0,0
0.542235532,0,0,1.170764684677124,0,0,0.611519992351532
0.543234053,0,0,1.3694833517074585,0,0,0.9937199950218201
0.544234777,0,0,2.0661959648132324,0,0,0.2293200045824051
0.545234056,0,0,1.7094600200653076,0,0,1.452359914779663
0.546235484,0,0,1.1492167711257935,0,0,1.452359914779663
0.547234134,0,0,0.8403648138046265,0,0,0.7644000053405762
0.548234209,0,0,1.2234370708465576,0,0,0.9937199950218201
0.549234526,0,0,1.8267759084701538,0,0,-0.305759996175766
0.550235528,0,0,2.1284453868865967,0,0,0.305759996175766
0.551234289,0,0,2.293645143508911,0,0,0.2293200045824051
0.552234957,0,0,1.37906014919281,0,0,1.2994799613952637
0.553234496,0,0,0.4572925269603729,0,0,1.070159912109375
0.55423572,0,0,0.11971008777618408,0,0,0.305759996175766
0.555233777,0,0,0.37828385829925537,0,0,0.152879998087883
0.556234556,0,0,0.7589619159698486,0,0,0.305759996175766
0.55723478,0,0,1.4053963422775269,0,0,0.152879998087883
0.558235467,0,0,1.9369091987609863,0,0,0.305759996175766
0.559234117,0,0,1.8938134908676147,0,0,0
0.560234674,0,0,1.5658079385757446,0,0,1.375920057296753
0.561234472,0,0,1.3934253454208374,0,0,1.070159912109375
0.562353139,0,0,1.3000515699386597,0,0,0.7644000053405762
0.563241624,0,0,1.2186486721038818,0,0,0.7644000053405762
0.564235551,0,0,1.170764684677124,0,0,0.2293200045824051
0.565235035,0,0,1.3527239561080933,0,0,0.305759996175766
0.566235573,0,0,1.1444283723831177,0,0,0.6879600286483765
0.567234242,0,0,1.1875240802764893,0,0,0.7644000053405762
0.568234929,0,0,1.3694833517074585,0,0,0.0764399990439415
0.569234893,0,0,1.3192051649093628,0,0,0.5350799560546875
0.570235136,0,0,1.4077905416488647,0,0,0.9937199950218201
0.571234545,0,0,1.659181833267212,0,0,0.5350799560546875
0.572234602,0,0,1.4844050407409668,0,0,1.1466000080108643
0.573234604,0,0,1.2449848651885986,0,0,0.6879600286483765
0.574239105,0,0,1.2832920551300049,0,0,0.5350799560546875
0.575234089,0,0,1.6208745241165161,0,0,0.611519992351532
0.576234516,0,0,1.460463047027588,0,0,1.1466000080108643
0.577234407,0,0,1.1779472827911377,0,0,0.5350799560546875
0.578239149,0,0,1.3000515699386597,0,0,0
0.579234225,0,0,0.8930372595787048,0,0,0.6879600286483765
0.580234708,0,0,1.0247182846069336,0,0,0.2293200045824051
0.581234543,0,0,1.9081788063049316,0,0,-0.152879998087883
0.582235397,0,0,1.5849615335464478,0,0,1.452359914779663
0.583233899,0,0,1.802833914756775,0,0,1.1466000080108643
0.584234752,0,0,1.3048399686813354,0,0,1.070159912109375
0.585234735,0,0,0.646434485912323,0,0,1.758120059967041
0.586235422,0,0,0.6224924325942993,0,0,0.305759996175766
0.587234091,0,0,1.0606313943862915,0,0,0
0.588234278,0,0,1.3766659498214722,0,0,0.305759996175766
0.589234816,0,0,1.4844050407409668,0,0,0.9172800183296204
0.5902353,0,0,1.886630892753601,0,0,-0.4586400091648102
0.591233912,0,0,1.5514427423477173,0,0,1.070159912109375
0.592234044,0,0,0.9624691009521484,0,0,1.070159912109375
0.59323486,0,0,1.3024457693099976,0,0,0
0.59423538,0,0,1.1827356815338135,0,0,2.2167599201202393
0.595234049,0,0,1.4293384552001953,0,0,0.8408399820327759
0.596234532,0,0,1.644816517829895,0,0,0.2293200045824051
0.597234608,0,0,1.161187767982483,0,0,2.06387996673584
0.598235461,0,0,1.091755986213684,0,0,0.9172800183296204
0.599234037,0,0,1.3503297567367554,0,0,0.611519992351532
0.600234206,0,0,1.1755530834197998,0,0,0.9172800183296204
0.601234207,0,0,1.556231141090393,0,0,0.6879600286483765
0.602249746,0,0,1.599326729774475,0,0,9.172800064086914
0.60333795,0,0,1.3311761617660522,0,0,0.9937199950218201
0.604241638,0,0,1.403002142906189,0,0,0.9172800183296204
0.605235918,0,0,1.2617442607879639,0,0,0.4586400091648102
0.606238549,0,0,1.1324573755264282,0,0,2.5989599227905273
0.607234217,0,0,0.9768342971801758,0,0,0.8408399820327759
0.608235108,0,0,0.9816226959228516,0,0,0.3822000026702881
0.609235073,0,0,0.49559974670410156,0,0,3.0576000213623047
0.610235482,0,0,0.9744400978088379,0,0,-0.8408399820327759
0.611234798,0,0,1.5490485429763794,0,0,-0.2293200045824051
0.612234745,0,0,1.6543933153152466,0,0,1.070159912109375
0.613234524,0,0,1.9512743949890137,0,0,0
0.614236526,0,0,1.6304513216018677,0,0,0
0.615235361,0,0,1.3311761617660522,0,0,2.2167599201202393
0.616234937,0,0,1.1851298809051514,0,0,0
0.617235068,0,0,1.091755986213684,0,0,1.9109998941421509
0.618239199,0,0,1.37906014919281,0,0,1.9874399900436401
0.619236368,0,0,1.1468225717544556,0,0,0.6879600286483765
0.620235314,0,0,0.7374141216278076,0,0,0.9172800183296204
0.621235075,0,0,1.2282254695892334,0,0,0.611519992351532
0.622235132,0,0,1.766920804977417,0,0,-1.1466000080108643
0.623234911,0,0,1.580173134803772,0,0,1.2994799613952637
0.624234876,0,0,1.987187385559082,0,0,0.2293200045824051
0.625235082,0,0,1.292868971824646,0,0,0.2293200045824051
0.626235065,0,0,1.2090718746185303,0,0,1.9109998941421509
0.627235048,0,0,1.4532804489135742,0,0,0.305759996175766
0.62823492,0,0,1.1276689767837524,0,0,1.223039984703064
0.629235033,0,0,1.5825673341751099,0,0,1.8345600366592407
0.630235146,0,0,1.3551181554794312,0,0,0.0764399990439415
0.631234814,0,0,0.40701428055763245,0,0,1.375920057296753
0.632234945,0,0,1.072602391242981,0,0,0.305759996175766
0.633235021,0,0,0.7230489253997803,0,0,0.305759996175766
0.634236671,0,0,0.8571242094039917,0,0,0
0.635234339,0,0,1.577778935432434,0,0,0.0764399990439415
0.63623536,0,0,0.8882488012313843,0,0,0.305759996175766
0.637234935,0,0,1.4724340438842773,0,0,0.9937199950218201
0.638236011,0,0,1.8698714971542358,0,0,1.223039984703064
0.639234254,0,0,1.5705963373184204,0,0,0.8408399820327759
0.640234996,0,0,2.346317768096924,0,0,0.305759996175766
0.641234961,0,0,1.1468225717544556,0,0,2.14031982421875
0.642235833,0,0,0.5746083855628967,0,0,1.5288000106811523
0.643234205,0,0,1.1779472827911377,0,0,-0.26753997802734375
0.64424741,0,0,0.5027823448181152,0,0,1.070159912109375
0.64523643,0,0,1.3646949529647827,0,0,-0.152879998087883
0.646242265,0,0,2.070984363555908,0,0,0
0.647235415,0,0,0.8068459630012512,0,0,1.605239987373352
0.648235121,0,0,2.58813214302063,0,0,9.172800064086914
0.649235085,0,0,1.7573440074920654,0,0,2.6754000186920166
0.650235643,0,0,1.4963760375976563,0,0,0.6879600286483765
0.651233996,0,0,1.6041151285171509,0,0,0.9172800183296204
0.652235202,0,0,0.26575639843940735,0,0,2.3696401119232178
0.653234592,0,0,0.3519476354122162,0,0,-0.305759996175766
0.65423602,0,0,0.5434837937355042,0,0,1.070159912109375
0.655234281,0,0,0.545877993106842,0,0,-0.9937199950218201
0.656234616,0,0,1.8171991109848022,0,0,-1.452359914779663
0.657234507,0,0,1.290474772453308,0,0,1.9874399900436401
0.658235786,0,0,1.9991583824157715,0,0,0
0.659234454,0,0,2.2409727573394775,0,0,1.223039984703064
0.660235049,0,0,1.7381904125213623,0,0,0.9937199950218201
0.661235236,0,0,1.7190368175506592,0,0,1.6816799640655518
0.662235626,0,0,0.5123591423034668,0,0,3.0576000213623047
0.66323448,0,0,-0.014365210197865963,0,0,-0.152879998087883
0.664234963,0,0,0.4381389021873474,0,0,0.7644000053405762
0.665235039,0,0,0.811634361743927,0,0,-0.8408399820327759
0.666235596,0,0,1.8195933103561401,0,0,-1.070159912109375
0.667234265,0,0,2.1332337856292725,0,0,1.452359914779663
0.668234988,0,0,2.695871114730835,0,0,-0.611519992351532
0.669235286,0,0,2.631227731704712,0,0,2.2932000160217285
0.670235807,0,0,2.248155355453491,0,0,3.0576000213623047
0.671234512,0,0,1.2306196689605713,0,0,2.5989599227905273
0.672235088,0,0,0.31364041566848755,0,0,2.904719829559326
0.67323483,0,0,0.05746084079146385,0,0,-0.6879600286483765
0.674235295,0,0,0.2753331959247589,0,0,0.9172800183296204
0.675234463,0,0,1.2737152576446533,0,0,-1.1466000080108643
0.676234891,0,0,1.4844050407409668,0,0,0
0.677235041,0,0,2.3127987384796143,0,0,0.2293200045824051
0.678235209,0,0,2.557007312774658,0,0,-0.611519992351532
0.679234655,0,0,2.322375535964966,0,0,2.5989599227905273
0.680235194,0,0,2.1547815799713135,0,0,1.605239987373352
0.68123514,0,0,0.730231523513794,0,0,1.758120059967041
0.682235624,0,0,0.1867477297782898,0,0,1.8345600366592407
0.683234385,0,0,0.1173158809542656,0,0,0
0.684235034,0,0,0.507570743560791,0,0,0.152879998087883
0.685235055,0,0,1.6711528301239014,0,0,-0.611519992351532
0.686235871,0,0,1.9560627937316895,0,0,0.6879600286483765
0.687234336,0,0,3.1651346683502197,0,0,0.9172800183296204
0.688239189,0,0,2.7269957065582275,0,0,1.8345600366592407
0.689235173,0,0,2.5474305152893066,0,0,3.4398000240325928
0.690236526,0,0,1.8291701078414917,0,0,1.9874399900436401
0.69123512,0,0,0.3663128614425659,0,0,2.5989599227905273
0.692234937,0,0,0.6057330369949341,0,0,0.9172800183296204
0.693235198,0,0,0.828393816947937,0,0,0.3822000026702881
0.694235977,0,0,1.5107412338256836,0,0,-1.1466000080108643
0.695234572,0,0,1.8052281141281128,0,0,-0.5350799560546875
0.696234573,0,0,1.7908629179000854,0,0,0.5350799560546875
0.69723526,0,0,2.427720546722412,0,0,0.305759996175766
0.698235744,0,0,1.7190368175506592,0,0,2.446079969406128
0.699234319,0,0,1.8339585065841675,0,0,1.605239987373352
0.700234469,0,0,0.8355764150619507,0,0,1.9109998941421509
0.701235026,0,0,0.16759411990642548,0,0,1.5288000106811523
0.702235769,0,0,0.6607996821403503,0,0,-0.2293200045824051
0.703234363,0,0,0.9289502501487732,0,0,0.8408399820327759
0.704234939,0,0,1.7501614093780518,0,0,-1.1466000080108643
0.705236163,0,0,1.7932571172714233,0,0,0.9937199950218201
0.706235905,0,0,2.516305923461914,0,0,0.2293200045824051
0.707234889,0,0,2.6839001178741455,0,0,1.2994799613952637
0.708235261,0,0,2.5282769203186035,0,0,3.2869198322296143
0.70923517,0,0,2.0398597717285156,0,0,1.8345600366592407
0.710235912,0,0,0.4692635238170624,0,0,2.904719829559326
0.71123184,0,0,0.43095630407333374,0,0,1.2994799613952637
0.712232657,0,0,0.45250412821769714,0,0,-0.305759996175766
0.713232177,0,0,1.314416766166687,0,0,0.2293200045824051
0.714235604,0,0,1.8387469053268433,0,0,8.561279296875
0.715237495,0,0,1.9249382019042969,0,0,0.5350799560546875
0.716235423,0,0,2.8419175148010254,0,0,0.0764399990439415
0.717235072,0,0,2.434903144836426,0,0,2.446079969406128
0.718235778,0,0,2.5091233253479004,0,0,1.5288000106811523
0.719234354,0,0,1.3311761617660522,0,0,2.446079969406128
0.720234985,0,0,0.2849099934101105,0,0,2.9811599254608154
0.721234598,0,0,0.3878606855869293,0,0,0.5350799560546875
0.722236081,0,0,0.3663128614425659,0,0,1.1466000080108643
0.723234398,0,0,1.4389152526855469,0,0,-0.4586400091648102
0.724234899,0,0,1.3527239561080933,0,0,-0.4586400091648102
0.725234957,0,0,2.209848165512085,0,0,0.305759996175766
0.726238829,0,0,2.782062292098999,0,0,0.6879600286483765
0.727234182,0,0,2.346317768096924,0,0,3.0576000213623047
0.728235147,0,0,2.410961151123047,0,0,1.452359914779663
0.729235075,0,0,0.7661445140838623,0,0,3.2869198322296143
0.73023591,0,0,0.48602294921875,0,0,2.14031982421875
0.731234448,0,0,0.5602431893348694,0,0,0.7644000053405762
0.732234876,0,0,0.5578489899635315,0,0,0.7644000053405762
0.733235155,0,0,1.7142484188079834,0,0,-0.7644000053405762
0.734235731,0,0,1.3718775510787964,0,0,0.2293200045824051
0.735232011,0,0,2.6575639247894287,0,0,-1.3377000093460083
0.736231975,0,0,2.6192567348480225,0,0,0.9937199950218201
0.737232348,0,0,2.7317841053009033,0,0,2.06387996673584
0.738234757,0,0,1.9297266006469727,0,0,2.06387996673584
0.739235258,0,0,0.3232172429561615,0,0,3.7455599308013916
0.740234908,0,0,0.5267243981361389,0,0,0.6879600286483765
0.741234651,0,0,0.3663128614425659,0,0,2.2167599201202393
0.742235486,0,0,0.9600749015808105,0,0,-0.8408399820327759
0.743233506,0,0,1.5682021379470825,0,0,-0.7644000053405762
0.744234748,0,0,2.027888774871826,0,0,0.152879998087883
0.745234806,0,0,2.782062292098999,0,0,-0.152879998087883
0.746235048,0,0,2.609679937362671,0,0,1.758120059967041
0.747235883,0,0,2.7293899059295654,0,0,1.452359914779663
0.748269736,0,0,1.2713210582733154,0,0,3.210479974746704
0.74927559,0,0,0.3974374830722809,0,0,2.446079969406128
0.75024287,0,0,0.3974374830722809,0,0,0.305759996175766
0.75123489,0,0,0.3878606855869293,0,0,1.8345600366592407
0.752234892,0,0,0.11971008777618408,0,0,8.331960678100586
0.753234671,0,0,1.1875240802764893,0,0,0.2293200045824051
0.754235543,0,0,1.7070658206939697,0,0,-0.8408399820327759
0.755251415,0,0,2.7485435009002686,0,0,0.5350799560546875
0.75623625,0,0,2.875436305999756,0,0,2.2932000160217285
0.757234585,0,0,2.5929205417633057,0,0,1.223039984703064
0.758235958,0,0,2.140416383743286,0,0,3.134040117263794
0.759233719,0,0,0.4357447028160095,0,0,0.9937199950218201
0.760234794,0,0,0.033518824726343155,0,0,0.611519992351532
0.761234426,0,0,0.24899697303771973,0,0,0
0.762235372,0,0,0.8571242094039917,0,0,-1.605239987373352
0.763233966,0,0,1.4269442558288574,0,0,0.611519992351532
0.764247042,0,0,2.013523578643799,0,0,-0.5350799560546875
0.765236284,0,0,3.0597896575927734,0,0,1.8345600366592407
0.766236268,0,0,2.279279947280884,0,0,1.6816799640655518
0.767234417,0,0,3.136404275894165,0,0,1.605239987373352
0.768234993,0,0,1.5442601442337036,0,0,3.516240119934082
0.769235125,0,0,0.6416460275650024,0,0,0.0764399990439415
0.770235737,0,0,0.5841852426528931,0,0,1.2994799613952637
0.771234554,0,0,0.272938996553421,0,0,-1.223039984703064
0.772235167,0,0,1.0247182846069336,0,0,-1.1466000080108643
0.773234928,0,0,1.2976573705673218,0,0,-0.3822000026702881
0.774235596,0,0,2.209848165512085,0,0,0
0.77523445,0,0,2.6360161304473877,0,0,2.5989599227905273
0.776235248,0,0,2.231395959854126,0,0,0.6879600286483765
0.777234861,0,0,2.434903144836426,0,0,2.904719829559326
0.778235881,0,0,0.7158663272857666,0,0,2.751840114593506
0.779234586,0,0,0.5650315880775452,0,0,0.0764399990439415
0.780235125,0,0,0.48602294921875,0,0,0.7644000053405762
0.781235034,0,0,0.6248866319656372,0,0,-1.1466000080108643
0.782235314,0,0,1.4389152526855469,0,0,0.305759996175766
0.783234593,0,0,1.3934253454208374,0,0,0
0.78423491,0,0,2.346317768096924,0,0,0.6879600286483765
0.785234911,0,0,2.535459518432617,0,0,1.452359914779663
0.786235431,0,0,2.892195701599121,0,0,0.9172800183296204
0.787234285,0,0,1.9608511924743652,0,0,3.2869198322296143
0.788234879,0,0,0.6655880808830261,0,0,1.2994799613952637
0.789235011,0,0,0.7158663272857666,0,0,0.9937199950218201
0.790235809,0,0,0.2753331959247589,0,0,0.5350799560546875
0.79123431,0,0,1.2737152576446533,0,0,-0.5350799560546875
0.792235071,0,0,1.1180921792984009,0,0,0.5350799560546875
0.793234999,0,0,2.0661959648132324,0,0,-29.582279205322266
0.794235704,0,0,2.4420857429504395,0,0,2.14031982421875
0.795234558,0,0,2.736572504043579,0,0,0.5350799560546875
0.796235041,0,0,2.473210334777832,0,0,2.14031982421875
0.797234913,0,0,1.4101848602294922,0,0,2.522519826889038
0.798235545,0,0,0.5889736413955688,0,0,0.2293200045824051
0.799234509,0,0,0.4213795065879822,0,0,1.605239987373352
0.800234993,0,0,0.37828385829925537,0,0,-29.888038635253906
0.801235216,0,0,0.8475474119186401,0,0,0.2293200045824051
0.802235589,0,0,1.3503297567367554,0,0,0
0.803234461,0,0,2.5977089405059814,0,0,0.2293200045824051
0.804234592,0,0,2.4396915435791016,0,0,1.452359914779663
0.805234909,0,0,2.9305028915405273,0,0,1.375920057296753
0.806235707,0,0,2.10210919380188,0,0,3.592679977416992
0.807234616,0,0,0.47165772318840027,0,0,1.605239987373352
0.808234636,0,0,0.5626373887062073,0,0,0.4586400091648102
0.809235286,0,0,0.5099649429321289,0,0,0.8408399820327759
0.810235695,0,0,0.9145850539207458,0,0,-0.5350799560546875
0.811231937,0,0,1.3838485479354858,0,0,1.375920057296753
0.812232495,0,0,1.946485996246338,0,0,0.4586400091648102
0.81323233,0,0,2.5713725090026855,0,0,1.9874399900436401
0.81423622,0,0,2.451662540435791,0,0,0.9172800183296204
0.815245092,0,0,3.1292216777801514,0,0,1.8345600366592407
0.816235742,0,0,1.86508309841156,0,0,3.2869198322296143
0.817234818,0,0,1.039083480834961,0,0,0.305759996175766
0.818235116,0,0,0.8834604024887085,0,0,1.5288000106811523
0.819371875,0,0,0.42856210470199585,0,0,-0.2293200045824051
0.820244027,0,0,1.039083480834961,0,0,9.478560447692871
0.821233084,0,0,0.9672574996948242,0,0,0.305759996175766
0.822233697,0,0,1.8195933103561401,0,0,9.402119636535645
0.823233606,0,0,1.987187385559082,0,0,1.375920057296753
0.824232756,0,0,2.011129379272461,0,0,0.6879600286483765
0.825232461,0,0,2.279279947280884,0,0,2.3696401119232178
0.826232185,0,0,0.7972691655158997,0,0,1.070159912109375
0.827232687,0,0,0.9097966551780701,0,0,0.152879998087883
0.828231967,0,0,0.9313444495201111,0,0,1.1466000080108643
0.829231876,0,0,0.8978256583213806,0,0,9.019920349121094
0.830232692,0,0,1.4389152526855469,0,0,0.6879600286483765
0.831232583,0,0,1.3479355573654175,0,0,0.152879998087883
0.832232344,0,0,2.2673089504241943,0,0,0.5350799560546875
0.833232327,0,0,2.123656988143921,0,0,0.7644000053405762
0.834234069,0,0,2.537853717803955,0,0,1.5288000106811523
0.835235201,0,0,1.702277421951294,0,0,2.6754000186920166
0.836234906,0,0,0.6368576288223267,0,0,0
0.837234723,0,0,1.0630255937576294,0,0,0.7644000053405762
0.838236206,0,0,0.9050082564353943,0,0,0
0.839234671,0,0,1.5418659448623657,0,0,-0.611519992351532
0.840234746,0,0,1.4891934394836426,0,0,1.223039984703064
0.841234878,0,0,1.9512743949890137,0,0,0.152879998087883
0.842235361,0,0,2.013523578643799,0,0,1.758120059967041
0.843234214,0,0,1.867477297782898,0,0,1.2994799613952637
0.844234512,0,0,2.006340980529785,0,0,2.446079969406128
0.845234625,0,0,0.9624691009521484,0,0,1.1466000080108643
0.846235312,0,0,0.8427590131759644,0,0,-0.3822000026702881
0.847233684,0,0,0.6584054827690125,0,0,0.9937199950218201
0.84823463,0,0,1.1276689767837524,0,0,-0.7644000053405762
0.849234817,0,0,1.6615760326385498,0,0,0.8408399820327759
0.850235393,0,0,1.4484920501708984,0,0,0.7644000053405762
0.851233524,0,0,2.212242364883423,0,0,1.070159912109375
0.852234693,0,0,1.9057846069335938,0,0,2.06387996673584
0.853234639,0,0,2.2625205516815186,0,0,1.223039984703064
0.85423577,0,0,1.7908629179000854,0,0,2.828279972076416
0.855234568,0,0,0.7422025203704834,0,0,0
0.856234681,0,0,1.259350061416626,0,0,1.070159912109375
0.857234757,0,0,0.8762778043746948,0,0,0.152879998087883
0.858235425,0,0,1.6112977266311646,0,0,0
0.859234242,0,0,1.5538369417190552,0,0,1.6816799640655518
0.860234836,0,0,1.6855180263519287,0,0,0.4586400091648102
0.861234671,0,0,2.121262788772583,0,0,1.8345600366592407
0.86223508,0,0,1.8914192914962769,0,0,1.2994799613952637
0.863234323,0,0,2.403778553009033,0,0,2.446079969406128
0.864234491,0,0,0.8906430602073669,0,0,2.06387996673584
0.86523466,0,0,0.5674257874488831,0,0,-0.4586400091648102
0.866235495,0,0,1.0630255937576294,0,0,0.9172800183296204
0.867234089,0,0,0.9744400978088379,0,0,-1.1466000080108643
0.868234628,0,0,1.9177556037902832,0,0,0
0.869234092,0,0,1.5107412338256836,0,0,0.9172800183296204
0.870235353,0,0,1.9512743949890137,0,0,1.070159912109375
0.871234022,0,0,1.6112977266311646,0,0,2.522519826889038
0.872234783,0,0,1.522712230682373,0,0,0.5350799560546875
0.873234396,0,0,1.3455413579940796,0,0,2.6754000186920166
0.874235416,0,0,0.38307225704193115,0,0,0.611519992351532
0.875233992,0,0,1.015141487121582,0,0,-0.4586400091648102
0.876236401,0,0,1.434126853942871,0,0,0.611519992351532
0.877252217,0,0,1.5705963373184204,0,0,-0.3822000026702881
0.878236774,0,0,1.8124107122421265,0,0,1.605239987373352
0.879234406,0,0,1.6160861253738403,0,0,0.3822000026702881
0.880234648,0,0,2.274491548538208,0,0,1.5288000106811523
0.881234724,0,0,2.054224967956543,0,0,1.9874399900436401
0.882235504,0,0,2.3726539611816406,0,0,1.2994799613952637
0.883254672,0,0,1.290474772453308,0,0,3.6691200733184814
0.884238007,0,0,0.5195417404174805,0,0,-0.9172800183296204
0.88523499,0,0,0.950498104095459,0,0,1.070159912109375
0.886235159,0,0,1.0127472877502441,0,0,-9.631440162658691
0.887233994,0,0,1.6400281190872192,0,0,0
0.888234755,0,0,1.4077905416488647,0,0,0.7644000053405762
0.889234516,0,0,2.011129379272461,0,0,0
0.890235036,0,0,2.403778553009033,0,0,1.6816799640655518
0.891234204,0,0,2.27209734916687,0,0,0.9937199950218201
0.89223441,0,0,2.248155355453491,0,0,2.2932000160217285
0.893234578,0,0,0.5171475410461426,0,0,1.9109998941421509
0.894234765,0,0,0.3758896589279175,0,0,-1.375920057296753
0.895234192,0,0,0.26336219906806946,0,0,0.9937199950218201
0.896234694,0,0,0.6823474764823914,0,0,-1.452359914779663
0.897234696,0,0,1.7717092037200928,0,0,1.2994799613952637
0.898235401,0,0,1.3742717504501343,0,0,0.3822000026702881
0.899234181,0,0,2.52109432220459,0,0,1.070159912109375
0.900234683,0,0,2.121262788772583,0,0,2.2167599201202393
0.901234425,0,0,2.631227731704712,0,0,1.758120059967041
0.902235038,0,0,1.702277421951294,0,0,3.210479974746704
0.903233799,0,0,0.5985504388809204,0,0,0.3822000026702881
0.904234041,0,0,0.8355764150619507,0,0,-0.0764399990439415
0.905234339,0,0,0.5650315880775452,0,0,0.152879998087883
0.906272414,0,0,1.699883222579956,0,0,-0.8408399820327759
0.907247065,0,0,2.0254945755004883,0,0,0.8408399820327759
0.908240048,0,0,2.346317768096924,0,0,0
0.909235346,0,0,2.918531894683838,0,0,1.9109998941421509
0.910235848,0,0,2.231395959854126,0,0,1.6816799640655518
0.91123409,0,0,2.2361843585968018,0,0,2.3696401119232178
0.912234481,0,0,0.42377370595932007,0,0,2.522519826889038
0.913234649,0,0,-0.10055647045373917,0,0,-0.5350799560546875
0.914237225,0,0,0.033518824726343155,0,0,0.2293200045824051
0.915234134,0,0,0.22026655077934265,0,0,-1.223039984703064
0.916234377,0,0,1.6950948238372803,0,0,-0.611519992351532
0.917234693,0,0,1.9632453918457031,0,0,0.305759996175766
0.918235695,0,0,2.913743495941162,0,0,0
0.919234085,0,0,3.002328872680664,0,0,2.5989599227905273
0.920234791,0,0,2.8155810832977295,0,0,1.8345600366592407
0.9212347,0,0,2.0207061767578125,0,0,3.9748799800872803
0.922235609,0,0,0.002394201699644327,0,0,1.5288000106811523
0.923234296,0,0,0.2298433631658554,0,0,0
0.924234927,0,0,-0.06224924325942993,0,0,0.8408399820327759
0.925234633,0,0,0.7996633648872375,0,0,-1.758120059967041
0.926235227,0,0,1.9704279899597168,0,0,0.2293200045824051
0.927234247,0,0,2.650381326675415,0,0,9.631440162658691
0.928234656,0,0,3.4380736351013184,0,0,1.5288000106811523
0.929234529,0,0,2.808398485183716,0,0,2.446079969406128
0.930235419,0,0,2.403778553009033,0,0,2.446079969406128
0.931234125,0,0,0.7852981686592102,0,0,2.9811599254608154
0.9322347,0,0,-0.17717093229293823,0,0,0
0.933234869,0,0,0.17956513166427612,0,0,0.2293200045824051
0.934235185,0,0,0.11013327538967133,0,0,0.305759996175766
0.935234206,0,0,1.2761094570159912,0,0,-30.19379997253418
0.936234633,0,0,1.599326729774475,0,0,0.7644000053405762
0.937234135,0,0,2.736572504043579,0,0,-0.2293200045824051
0.938235674,0,0,2.8203697204589844,0,0,2.2167599201202393
0.939234268,0,0,2.585737943649292,0,0,1.8345600366592407
0.94023464,0,0,2.343923568725586,0,0,3.2869198322296143
0.941234531,0,0,0.6607996821403503,0,0,1.9109998941421509
0.942235662,0,0,0.3447650372982025,0,0,0.305759996175766
0.943234071,0,0,-0.09576806426048279,0,0,0.6879600286483765
0.944234795,0,0,0.5722141861915588,0,0,-0.6879600286483765
0.945234519,0,0,1.5418659448623657,0,0,-0.2293200045824051
0.946240058,0,0,1.6208745241165161,0,0,-0.5350799560546875
0.947245485,0,0,3.19865345954895,0,0,0
0.948236376,0,0,2.8107926845550537,0,0,2.3696401119232178
0.949234785,0,0,2.762908697128296,0,0,1.6816799640655518
0.950235528,0,0,1.359906554222107,0,0,2.522519826889038
0.951233992,0,0,0.12210428714752197,0,0,0.6879600286483765
0.952234605,0,0,0.26815059781074524,0,0,0.7644000053405762
0.953234644,0,0,0.05027823522686958,0,0,0
0.95423509,0,0,1.0869675874710083,0,0,-0.305759996175766
0.955234092,0,0,1.357512354850769,0,0,0.3822000026702881
0.956234612,0,0,1.9153614044189453,0,0,-0.152879998087883
0.95723441,0,0,2.9664158821105957,0,0,1.605239987373352
0.958235356,0,0,2.6384103298187256,0,0,1.9874399900436401
0.959233673,0,0,2.8443117141723633,0,0,1.9109998941421509
0.960234693,0,0,1.3694833517074585,0,0,2.751840114593506
0.961234602,0,0,0.9313444495201111,0,0,0
0.962235122,0,0,0.6200982332229614,0,0,1.375920057296753
0.963231828,0,0,0.33039984107017517,0,0,-1.1466000080108643
0.964244774,0,0,1.1444283723831177,0,0,-0.152879998087883
0.965234072,0,0,1.0989385843276978,0,0,-0.8408399820327759
0.966234499,0,0,2.166752576828003,0,0,-0.152879998087883
0.967235834,0,0,2.7078421115875244,0,0,1.9109998941421509
0.968234947,0,0,2.5665841102600098,0,0,0.9172800183296204
0.969234653,0,0,2.0925323963165283,0,0,2.522519826889038
0.970235562,0,0,0.5913678407669067,0,0,2.2932000160217285
0.971234008,0,0,0.7493851184844971,0,0,0
0.972234843,0,0,0.22505496442317963,0,0,0.7644000053405762
0.973234734,0,0,0.6871358752250671,0,0,-0.8408399820327759
0.974235421,0,0,1.1540051698684692,0,0,0.2293200045824051
0.975234274,0,0,1.3192051649093628,0,0,-1.070159912109375
0.976234942,0,0,2.6839001178741455,0,0,1.1466000080108643
0.977234203,0,0,2.9712042808532715,0,0,1.6816799640655518
0.978235205,0,0,3.246537446975708,0,0,1.6816799640655518
0.979234244,0,0,1.601720929145813,0,0,3.516240119934082
0.980234153,0,0,0.8547300100326538,0,0,1.2994799613952637
0.981234414,0,0,0.5315127968788147,0,0,1.452359914779663
0.982235527,0,0,0.14365209639072418,0,0,-0.3822000026702881
0.983234251,0,0,0.8738836050033569,0,0,-0.4586400091648102
0.984234827,0,0,1.01753568649292,0,0,-0.4586400091648102
0.985235069,0,0,2.4229321479797363,0,0,-0.9937199950218201
0.986292607,0,0,2.875436305999756,0,0,1.605239987373352
0.987251943,0,0,3.1316158771514893,0,0,1.223039984703064
0.988237482,0,0,2.8227639198303223,0,0,3.134040117263794
0.989236039,0,0,0.6655880808830261,0,0,2.6754000186920166
0.990237059,0,0,0.21547815203666687,0,0,1.070159912109375
0.991234727,0,0,-0.31124621629714966,0,0,1.605239987373352
0.992235081,0,0,0.19393034279346466,0,0,-1.1466000080108643
0.993234916,0,0,1.213860273361206,0,0,0
0.994235399,0,0,1.800439715385437,0,0,-1.070159912109375
0.995233864,0,0,3.3303346633911133,0,0,0.4586400091648102
0.99623444,0,0,2.853888511657715,0,0,2.2167599201202393
0.997244867,0,0,2.9879636764526367,0,0,1.9109998941421509
0.99832933,0,0,1.9560627937316895,0,0,3.516240119934082
0.999372998,0,0,0.2537853717803955,0,0,1.375920057296753
1.000360185,0,0,0.5195417404174805,0,0,1.375920057296753
1.001298429,0,0,0.0933738648891449,0,0,0.305759996175766
1.002285523,0,0,1.0893617868423462,0,0,-0.9937199950218201
1.003317265,0,0,1.316810965538025,0,0,0.4586400091648102
1.004306415,0,0,1.8986018896102905,0,0,-0.8408399820327759
1.005287065,0,0,2.782062292098999,0,0,1.9874399900436401
1.006292697,0,0,2.5067291259765625,0,0,0.7644000053405762
1.007262754,0,0,2.6360161304473877,0,0,1.758120059967041
1.008262386,0,0,1.2018892765045166,0,0,2.6754000186920166
1.009277906,0,0,0.5889736413955688,0,0,0.2293200045824051
1.010299315,0,0,0.4429273009300232,0,0,1.375920057296753
1.011319168,0,0,0.4812345504760742,0,0,-0.6879600286483765
1.012279596,0,0,0.9241618514060974,0,0,-0.6879600286483765
1.013291838,0,0,1.1037269830703735,0,0,0
1.014391375,0,0,1.9943699836730957,0,0,0
1.015335045,0,0,2.346317768096924,0,0,2.9811599254608154
1.016273473,0,0,2.5450363159179688,0,0,0.611519992351532
1.017279919,0,0,2.1787235736846924,0,0,2.828279972076416
1.018261736,0,0,1.2090718746185303,0,0,1.5288000106811523
1.019267016,0,0,1.2425906658172607,0,0,1.1466000080108643
1.020286276,0,0,0.933738648891449,0,0,1.375920057296753
1.021250556,0,0,1.4652514457702637,0,0,-0.4586400091648102
1.022260854,0,0,1.4077905416488647,0,0,0.9937199950218201
1.023263152,0,0,1.6759412288665771,0,0,-0.4586400091648102
1.02443654,0,0,2.4588451385498047,0,0,1.375920057296753
1.025376228,0,0,2.164358377456665,0,0,1.758120059967041
1.026274861,0,0,2.6168625354766846,0,0,0.8408399820327759
1.02724353,0,0,1.170764684677124,0,0,2.6754000186920166
1.028238198,0,0,0.8475474119186401,0,0,-0.7644000053405762
1.0292388670000001,0,0,0.6991068720817566,0,0,0.6879600286483765
1.030240035,0,0,0.3519476354122162,0,0,-0.305759996175766
1.031240463,0,0,1.0773907899856567,0,0,-0.5350799560546875
1.032237779,0,0,0.8523358106613159,0,0,0.6879600286483765
1.033238911,0,0,1.7525556087493896,0,0,-0.2293200045824051
1.034239986,0,0,1.9249382019042969,0,0,1.605239987373352
1.035239655,0,0,2.2194249629974365,0,0,1.070159912109375
1.036238842,0,0,2.2840683460235596,0,0,1.6816799640655518
1.037239232,0,0,1.2521674633026123,0,0,2.06387996673584
1.038241586,0,0,1.7142484188079834,0,0,0.9172800183296204
1.039241717,0,0,1.0965443849563599,0,0,2.2167599201202393
1.040238126,0,0,1.2258312702178955,0,0,-0.2293200045824051
1.041236628,0,0,1.3982137441635132,0,0,0.611519992351532
1.042247074,0,0,1.3335703611373901,0,0,1.070159912109375
1.04339087,0,0,2.097320795059204,0,0,0
1.044274947,0,0,1.9369091987609863,0,0,1.5288000106811523
1.045262208,0,0,2.537853717803955,0,0,0.2293200045824051
1.046261544,0,0,1.8267759084701538,0,0,2.522519826889038
1.047301582,0,0,1.137245774269104,0,0,0.5350799560546875
1.048297435,0,0,1.2689268589019775,0,0,1.1466000080108643
1.049280178,0,0,0.768538773059845,0,0,0.3822000026702881
1.050281957,0,0,1.2258312702178955,0,0,-1.070159912109375
1.051348551,0,0,0.8954314589500427,0,0,1.452359914779663
1.052321497,0,0,1.2976573705673218,0,0,9.478560447692871
1.053312221,0,0,1.7262194156646729,0,0,1.758120059967041
1.0546395689999999,0,0,2.070984363555908,0,0,0.7644000053405762
1.055276225,0,0,2.7030537128448486,0,0,1.9109998941421509
1.0563303,0,0,1.5298948287963867,0,0,2.06387996673584
1.057432097,0,0,1.2665326595306396,0,0,0
1.058312397,0,0,1.1420341730117798,0,0,1.375920057296753
1.059279417,0,0,0.9409212470054626,0,0,-0.4586400091648102
1.060270697,0,0,1.170764684677124,0,0,0.4586400091648102
1.061281902,0,0,1.1061211824417114,0,0,0.611519992351532
1.062259738,0,0,1.9608511924743652,0,0,0
1.063277535,0,0,2.03507137298584,0,0,2.14031982421875
1.064271463,0,0,2.540247917175293,0,0,1.1466000080108643
1.06527065,0,0,2.073378562927246,0,0,2.446079969406128
1.066307984,0,0,0.8858546018600464,0,0,3.2869198322296143
1.067276042,0,0,1.036689281463623,0,0,0.7644000053405762
1.068267563,0,0,0.8595184087753296,0,0,1.1466000080108643
1.069258916,0,0,1.5394717454910278,0,0,8.484840393066406
1.070253066,0,0,1.4269442558288574,0,0,0.9172800183296204
1.071274549,0,0,1.7525556087493896,0,0,0
1.07227981,0,0,2.296039342880249,0,0,1.375920057296753
1.073271719,0,0,2.070984363555908,0,0,1.452359914779663
1.07426798,0,0,2.3032219409942627,0,0,0.8408399820327759
1.075268167,0,0,0.8834604024887085,0,0,2.6754000186920166
1.076237892,0,0,0.7086837291717529,0,0,0.9937199950218201
1.077231375,0,0,0.7996633648872375,0,0,0.5350799560546875
1.078232766,0,0,0.7852981686592102,0,0,-0.305759996175766
1.079231582,0,0,1.778891921043396,0,0,0
1.080231102,0,0,1.3215993642807007,0,0,0.6879600286483765
1.081230956,0,0,2.027888774871826,0,0,0
1.082231513,0,0,2.073378562927246,0,0,2.06387996673584
1.083231015,0,0,2.1284453868865967,0,0,1.070159912109375
1.084231091,0,0,1.7357962131500244,0,0,2.14031982421875
1.085230685,0,0,0.586579442024231,0,0,1.6816799640655518
1.086315204,0,0,1.072602391242981,0,0,0.152879998087883
1.0872338,0,0,0.9433154463768005,0,0,0.6879600286483765
1.088231042,0,0,1.4437036514282227,0,0,-0.3822000026702881
1.089230599,0,0,1.7573440074920654,0,0,1.375920057296753
1.090231305,0,0,1.7310078144073486,0,0,0.5350799560546875
1.091231288,0,0,2.387019157409668,0,0,1.8345600366592407
1.092231345,0,0,1.8483237028121948,0,0,2.6754000186920166
1.093230847,0,0,2.051830768585205,0,0,1.1466000080108643
1.094231478,0,0,1.3527239561080933,0,0,2.6754000186920166
1.0952313870000001,0,0,0.8475474119186401,0,0,0.611519992351532
1.096230648,0,0,1.0821791887283325,0,0,0.4586400091648102
1.097230872,0,0,0.9457096457481384,0,0,-29.582279205322266
1.098245874,0,0,1.9752163887023926,0,0,-1.2994799613952637
1.099232542,0,0,1.9608511924743652,0,0,0.611519992351532
1.100231155,0,0,2.296039342880249,0,0,0
1.1012311750000001,0,0,2.4875755310058594,0,0,2.14031982421875
1.102231473,0,0,1.7070658206939697,0,0,1.758120059967041
1.103231197,0,0,1.2856862545013428,0,0,1.5288000106811523
1.104231069,0,0,-0.043095629662275314,0,0,1.9109998941421509
1.10523109,0,0,0.4572925269603729,0,0,-0.3822000026702881
1.10623161,0,0,0.9481038451194763,0,0,-29.582279205322266
1.107231112,0,0,1.6112977266311646,0,0,8.484840393066406
1.108230928,0,0,2.161964178085327,0,0,-29.582279205322266
1.109230985,0,0,1.9919757843017578,0,0,1.1466000080108643
1.110231283,0,0,2.3774423599243164,0,0,0.8408399820327759
1.111230952,0,0,1.8171991109848022,0,0,2.5989599227905273
1.112231102,0,0,1.6376339197158813,0,0,0.9172800183296204
1.113230955,0,0,0.9696516990661621,0,0,2.446079969406128
1.114287586,0,0,0.26336219906806946,0,0,1.2994799613952637
1.115236885,0,0,0.8619126081466675,0,0,0.0764399990439415
1.116232016,0,0,1.1827356815338135,0,0,0
1.11723124,0,0,2.0805611610412598,0,0,9.019920349121094
1.118231908,0,0,1.7741034030914307,0,0,1.070159912109375
1.119231595,0,0,2.1523873805999756,0,0,0.611519992351532
1.120231004,0,0,2.3271639347076416,0,0,1.452359914779663
1.12123108,0,0,2.0254945755004883,0,0,1.375920057296753
1.122233915,0,0,2.0254945755004883,0,0,1.375920057296753
1.123234676,0,0,0.7757213711738586,0,0,2.2167599201202393
1.124234104,0,0,0.7565677165985107,0,0,0
1.125233865,0,0,0.8475474119186401,0,0,0.6879600286483765
1.126234107,0,0,0.9864110946655273,0,0,-0.4586400091648102
1.128040651,0,0,1.5442601442337036,0,0,-0.2293200045824051
1.128251092,0,0,1.3192051649093628,0,0,0.7644000053405762
1.129247834,0,0,2.2361843585968018,0,0,0.152879998087883
1.130241688,0,0,2.1547815799713135,0,0,2.06387996673584
1.131234116,0,0,2.0015525817871094,0,0,1.6816799640655518
1.13223484,0,0,1.6112977266311646,0,0,2.904719829559326
1.133236156,0,0,0.2777273952960968,0,0,2.14031982421875
1.134235973,0,0,0.6727706789970398,0,0,0
1.135234141,0,0,0.7110779285430908,0,0,1.070159912109375
1.136235402,0,0,1.482010841369629,0,0,8.867039680480957
1.137234941,0,0,1.886630892753601,0,0,1.1466000080108643
1.138236517,0,0,2.0829553604125977,0,0,0.305759996175766
1.139234407,0,0,3.047818660736084,0,0,0.6879600286483765
1.140235224,0,0,2.5929205417633057,0,0,2.6754000186920166
1.141234485,0,0,2.4372973442077637,0,0,1.452359914779663
1.142235727,0,0,1.2282254695892334,0,0,2.9811599254608154
1.14323421,0,0,0.35673606395721436,0,0,1.2994799613952637
1.144234638,0,0,0.37828385829925537,0,0,0.8408399820327759
1.145235195,0,0,0.27054479718208313,0,0,-0.611519992351532
1.146235567,0,0,1.4844050407409668,0,0,-1.223039984703064
1.147234014,0,0,1.5466543436050415,0,0,1.452359914779663
1.148234515,0,0,2.3942017555236816,0,0,-0.9937199950218201
1.149234535,0,0,2.6408045291900635,0,0,1.1466000080108643
1.150235426,0,0,2.3487119674682617,0,0,2.06387996673584
1.151234354,0,0,1.7118542194366455,0,0,2.14031982421875
1.1522343369999999,0,0,0.45489832758903503,0,0,2.5989599227905273
1.153234227,0,0,0.3447650372982025,0,0,0.4586400091648102
1.154235451,0,0,0.33997663855552673,0,0,0.7644000053405762
1.155252157,0,0,0.8738836050033569,0,0,-0.9937199950218201
1.1562357699999999,0,0,1.4724340438842773,0,0,0.152879998087883
1.157234568,0,0,1.9105730056762695,0,0,0.6879600286483765
1.15823544,0,0,3.0334534645080566,0,0,-0.611519992351532
1.159234182,0,0,2.741360902786255,0,0,2.522519826889038
1.160234702,0,0,2.8107926845550537,0,0,1.2994799613952637
1.161234686,0,0,1.5131354331970215,0,0,3.134040117263794
1.162235243,0,0,0.22026655077934265,0,0,2.2167599201202393
1.16323343,0,0,0.2753331959247589,0,0,0.2293200045824051
1.164246209,0,0,0.2298433631658554,0,0,0
1.165235989,0,0,1.2401964664459229,0,0,-1.6816799640655518
1.166235546,0,0,1.4460978507995605,0,0,-29.582279205322266
1.167233955,0,0,2.300827741622925,0,0,8.790599822998047
1.168234531,0,0,2.8371291160583496,0,0,0.9937199950218201
1.169234773,0,0,2.33913516998291,0,0,2.3696401119232178
1.170235275,0,0,2.3702597618103027,0,0,1.758120059967041
1.171233518,0,0,0.5817909836769104,0,0,3.210479974746704
1.17223439,0,0,0.05267243832349777,0,0,1.1466000080108643
1.173234373,0,0,0.11971008777618408,0,0,0.2293200045824051
1.174235467,0,0,0.646434485912323,0,0,9.019920349121094
1.175233284,0,0,1.7381904125213623,0,0,-0.5350799560546875
1.176234674,0,0,1.9991583824157715,0,0,0.2293200045824051
1.177234658,0,0,3.1196448802948,0,0,0
1.178235122,0,0,2.8634653091430664,0,0,1.9109998941421509
1.179234013,0,0,2.3558945655822754,0,0,1.758120059967041
1.180234552,0,0,1.8315643072128296,0,0,2.5989599227905273
1.181234405,0,0,0.15322890877723694,0,0,2.751840114593506
1.182235259,0,0,0.26336219906806946,0,0,0
1.183233872,0,0,0.26575639843940735,0,0,0.611519992351532
1.184234484,0,0,1.1971008777618408,0,0,-1.1466000080108643
1.185234449,0,0,1.7693150043487549,0,0,0.5350799560546875
1.186235284,0,0,2.0470423698425293,0,0,0.152879998087883
1.187233934,0,0,2.9257144927978516,0,0,0.5350799560546875
1.18823438,0,0,2.454056739807129,0,0,2.751840114593506
1.1892344559999999,0,0,2.188300371170044,0,0,1.452359914779663
1.190235161,0,0,0.9768342971801758,0,0,2.904719829559326
1.191233941,0,0,0.3256114423274994,0,0,1.223039984703064
1.192234405,0,0,0.6368576288223267,0,0,0.152879998087883
1.193234037,0,0,0.6416460275650024,0,0,0.5350799560546875
1.1942353159999999,0,0,1.45806884765625,0,0,-1.758120059967041
1.195233911,0,0,1.5275006294250488,0,0,0.2293200045824051
1.19623419,0,0,2.274491548538208,0,0,9.096360206604004
1.197234136,0,0,2.427720546722412,0,0,1.5288000106811523
1.198236916,0,0,2.2912509441375732,0,0,2.3696401119232178
1.199234399,0,0,2.013523578643799,0,0,2.2932000160217285
1.200234549,0,0,0.6871358752250671,0,0,3.0576000213623047
1.201234365,0,0,0.7206547260284424,0,0,0.152879998087883
1.202235423,0,0,0.5482721924781799,0,0,1.223039984703064
1.203233573,0,0,1.1444283723831177,0,0,9.478560447692871
1.20423463,0,0,1.3862427473068237,0,0,9.096360206604004
1.205234261,0,0,1.5634137392044067,0,0,0.3822000026702881
1.206235244,0,0,2.647987127304077,0,0,0.305759996175766
1.207234024,0,0,2.2649147510528564,0,0,2.2932000160217285
1.208234488,0,0,2.4803929328918457,0,0,2.14031982421875
1.20923449,0,0,1.5275006294250488,0,0,3.0576000213623047
1.210235047,0,0,0.811634361743927,0,0,1.9109998941421509
1.211233975,0,0,0.9744400978088379,0,0,-0.2293200045824051
1.212234606,0,0,0.6607996821403503,0,0,0.2293200045824051
1.2132343859999999,0,0,1.4245500564575195,0,0,-1.605239987373352
1.21423811,0,0,1.259350061416626,0,0,0
1.215235612,0,0,1.9488801956176758,0,0,-0.5350799560546875
1.216234317,0,0,2.3032219409942627,0,0,0.4586400091648102
1.21723443,0,0,2.0374655723571777,0,0,1.375920057296753
1.218234765,0,0,2.229001760482788,0,0,2.446079969406128
1.219245618,0,0,0.8547300100326538,0,0,2.828279972076416
1.220240953,0,0,0.5267243981361389,0,0,0.611519992351532
1.221234344,0,0,0.6847416758537292,0,0,0.3822000026702881
1.222232735,0,0,0.7781155705451965,0,0,-0.152879998087883
1.223233236,0,0,1.3431471586227417,0,0,-0.611519992351532
1.224232516,0,0,1.4413094520568848,0,0,0.3822000026702881
1.225232536,0,0,2.58813214302063,0,0,9.096360206604004
1.226232612,0,0,2.5546131134033203,0,0,2.06387996673584
1.227233947,0,0,2.7006595134735107,0,0,1.6816799640655518
1.228232338,0,0,2.2816741466522217,0,0,2.828279972076416
1.229232302,0,0,0.9433154463768005,0,0,1.758120059967041
1.230233211,0,0,0.9816226959228516,0,0,0.152879998087883
1.231232417,0,0,0.5602431893348694,0,0,0.8408399820327759
1.232232233,0,0,0.7709329724311829,0,0,9.019920349121094
1.23323218,0,0,1.1037269830703735,0,0,0.152879998087883
1.234234126,0,0,1.6112977266311646,0,0,9.478560447692871
1.235235775,0,0,2.3750481605529785,0,0,0.0764399990439415
1.236235036,0,0,2.1068975925445557,0,0,2.2167599201202393
1.237235464,0,0,2.2577321529388428,0,0,0.9172800183296204
1.238236244,0,0,1.3646949529647827,0,0,2.904719829559326
1.239233931,0,0,0.9074024558067322,0,0,0.152879998087883
1.240234691,0,0,0.9289502501487732,0,0,0.7644000053405762
1.241235138,0,0,1.0989385843276978,0,0,0.5350799560546875
1.24223575,0,0,1.158793568611145,0,0,-0.8408399820327759
1.243234604,0,0,1.039083480834961,0,0,0.9172800183296204
1.244235106,0,0,1.867477297782898,0,0,0
1.245235089,0,0,2.0422539710998535,0,0,2.06387996673584
1.24624072,0,0,2.255337953567505,0,0,2.14031982421875
1.247235,0,0,2.209848165512085,0,0,1.070159912109375
1.248235168,0,0,1.0654197931289673,0,0,2.904719829559326
1.249254595,0,0,1.3527239561080933,0,0,9.096360206604004
1.250278282,0,0,1.1827356815338135,0,0,1.2994799613952637
1.251248358,0,0,1.556231141090393,0,0,9.478560447692871
1.252235582,0,0,1.3215993642807007,0,0,0.3822000026702881
1.2532346030000001,0,0,1.3431471586227417,0,0,9.631440162658691
1.254236327,0,0,2.169146776199341,0,0,0
1.2552342539999999,0,0,1.8626888990402222,0,0,1.8345600366592407
1.256234404,0,0,2.2433669567108154,0,0,0.4586400091648102
1.257234591,0,0,1.3838485479354858,0,0,2.3696401119232178
1.258238148,0,0,0.6631938815116882,0,0,2.5989599227905273
1.259236113,0,0,0.8331822156906128,0,0,0.9937199950218201
1.260234818,0,0,0.5913678407669067,0,0,0.4586400091648102
1.261234153,0,0,1.314416766166687,0,0,9.096360206604004
1.2622359140000001,0,0,1.4676456451416016,0,0,0.3822000026702881
1.263234009,0,0,2.492363929748535,0,0,-0.5350799560546875
1.2642344730000001,0,0,2.669534921646118,0,0,1.375920057296753
1.265234568,0,0,1.9393033981323242,0,0,1.9109998941421509
1.266235551,0,0,1.778891921043396,0,0,1.5288000106811523
1.267233997,0,0,0.5051765441894531,0,0,3.2869198322296143
1.268234517,0,0,0.4692635238170624,0,0,0.4586400091648102
1.2692352040000001,0,0,0.8595184087753296,0,0,1.070159912109375
1.27023628,0,0,1.4245500564575195,0,0,9.478560447692871
1.271259355,0,0,2.0207061767578125,0,0,-0.4586400091648102
1.272236209,0,0,1.920149803161621,0,0,0.5350799560546875
1.273235822,0,0,2.477998733520508,0,0,0.0764399990439415
1.274237416,0,0,1.946485996246338,0,0,2.446079969406128
1.275234344,0,0,1.9033904075622559,0,0,1.1466000080108643
1.276234661,0,0,1.400607943534851,0,0,1.8345600366592407
1.2772345139999999,0,0,0.6153098344802856,0,0,2.2167599201202393
1.278235442,0,0,0.8906430602073669,0,0,-0.152879998087883
1.279233536,0,0,0.8331822156906128,0,0,1.452359914779663
1.28023476,0,0,1.278503656387329,0,0,-1.1466000080108643
1.2812344279999999,0,0,1.3694833517074585,0,0,0.4586400091648102
1.282235263,0,0,1.7884687185287476,0,0,-0.3822000026702881
1.283233599,0,0,2.0470423698425293,0,0,0.9937199950218201
1.284234563,0,0,1.9632453918457031,0,0,2.06387996673584
1.285234769,0,0,2.3343467712402344,0,0,0.7644000053405762
1.286235381,0,0,1.1779472827911377,0,0,2.446079969406128
1.287234087,0,0,1.0199298858642578,0,0,0.6879600286483765
1.28823457,0,0,1.2976573705673218,0,0,0.3822000026702881
1.289234516,0,0,1.2665326595306396,0,0,0.7644000053405762
1.290235407,0,0,1.5705963373184204,0,0,-1.223039984703064
1.291235372,0,0,1.3527239561080933,0,0,-8.943479537963867
1.292234558,0,0,2.2816741466522217,0,0,-0.305759996175766
1.293234671,0,0,1.7836803197860718,0,0,1.5288000106811523
1.294235617,0,0,2.03507137298584,0,0,1.1466000080108643
1.295233823,0,0,1.7525556087493896,0,0,1.375920057296753
1.29623475,0,0,0.7637503147125244,0,0,2.6754000186920166
1.29723466,0,0,1.0893617868423462,0,0,0.2293200045824051
1.2982354950000001,0,0,0.933738648891449,0,0,1.5288000106811523
1.299233774,0,0,1.3048399686813354,0,0,-0.3822000026702881
1.300234591,0,0,1.4437036514282227,0,0,-1.2994799613952637
1.301234092,0,0,1.7118542194366455,0,0,0
1.302235298,0,0,2.47560453414917,0,0,0
1.3032341330000001,0,0,1.8483237028121948,0,0,1.9874399900436401
1.3042341720000001,0,0,2.1930887699127197,0,0,0.611519992351532
1.305234821,0,0,1.1228805780410767,0,0,2.6754000186920166
1.306235305,0,0,0.4884171485900879,0,0,1.1466000080108643
1.307234084,0,0,0.9864110946655273,0,0,0.5350799560546875
1.308234419,0,0,0.7015010714530945,0,0,1.1466000080108643
1.309234773,0,0,1.3694833517074585,0,0,-1.223039984703064
1.310235589,0,0,1.3646949529647827,0,0,0.3822000026702881
1.31123398,0,0,2.255337953567505,0,0,0
1.312234593,0,0,2.650381326675415,0,0,0.9172800183296204
1.313234576,0,0,2.3798365592956543,0,0,1.452359914779663
1.314237948,0,0,2.255337953567505,0,0,1.070159912109375
1.315234913,0,0,0.608127236366272,0,0,3.2869198322296143
1.3162344510000001,0,0,0.4812345504760742,0,0,0.9172800183296204
1.317234805,0,0,0.5147533416748047,0,0,0.7644000053405762
1.318235714,0,0,0.8236053586006165,0,0,0
1.319233531,0,0,1.6927006244659424,0,0,-0.9937199950218201
1.320234588,0,0,1.920149803161621,0,0,0.7644000053405762
1.3212352379999999,0,0,2.626439332962036,0,0,0.0764399990439415
1.32223511,0,0,2.2888567447662354,0,0,2.446079969406128
1.323234093,0,0,2.279279947280884,0,0,1.452359914779663
1.3242345580000001,0,0,1.2976573705673218,0,0,2.3696401119232178
1.325234726,0,0,0.4429273009300232,0,0,1.605239987373352
1.3262557830000001,0,0,0.8451532125473022,0,0,0
1.327235785,0,0,0.7781155705451965,0,0,1.223039984703064
1.328235416,0,0,1.4963760375976563,0,0,9.096360206604004
1.329234881,0,0,1.9081788063049316,0,0,0.0764399990439415
1.330235605,0,0,2.183511972427368,0,0,1.6816799640655518
1.331233792,0,0,2.33913516998291,0,0,0.8408399820327759
1.332234646,0,0,2.2194249629974365,0,0,2.446079969406128
1.333234462,0,0,2.161964178085327,0,0,0.305759996175766
1.334235186,0,0,0.7876923680305481,0,0,1.8345600366592407
1.335233966,0,0,0.5817909836769104,0,0,0.611519992351532
1.336234671,0,0,0.6105214357376099,0,0,0.7644000053405762
1.3372347279999999,0,0,0.790086567401886,0,0,0.4586400091648102
1.338235415,0,0,1.6639702320098877,0,0,-0.611519992351532
1.339233954,0,0,1.8195933103561401,0,0,1.2994799613952637
1.340234622,0,0,2.8586769104003906,0,0,1.452359914779663
1.341234717,0,0,2.7078421115875244,0,0,1.452359914779663
1.342235329,0,0,2.7676970958709717,0,0,1.9874399900436401
1.343233924,0,0,2.011129379272461,0,0,1.8345600366592407
1.344234388,0,0,0.47884035110473633,0,0,3.516240119934082
1.345234501,0,0,0.751779317855835,0,0,0.152879998087883
1.346235225,0,0,0.9696516990661621,0,0,1.223039984703064
1.3472336710000001,0,0,1.5634137392044067,0,0,-0.3822000026702881
1.348234266,0,0,2.231395959854126,0,0,0
1.349234545,0,0,2.2194249629974365,0,0,0.9937199950218201
1.350235139,0,0,2.918531894683838,0,0,0.7644000053405762
1.35123416,0,0,2.4372973442077637,0,0,2.3696401119232178
1.35223468,0,0,2.4660277366638184,0,0,1.9874399900436401
1.3532347,0,0,1.4437036514282227,0,0,1.605239987373352
1.354235461,0,0,0.4381389021873474,0,0,2.751840114593506
1.355234333,0,0,1.0247182846069336,0,0,-9.784319877624512
1.356234557,0,0,1.2521674633026123,0,0,1.070159912109375
1.357234485,0,0,1.5825673341751099,0,0,-0.611519992351532
1.358235375,0,0,2.1547815799713135,0,0,0
1.359234284,0,0,1.8962076902389526,0,0,1.2994799613952637
1.360234638,0,0,2.410961151123047,0,0,0
1.361234603,0,0,2.164358377456665,0,0,1.605239987373352
1.362235178,0,0,2.2026655673980713,0,0,1.8345600366592407
1.363233828,0,0,1.6950948238372803,0,0,2.6754000186920166
1.364347421,0,0,0.3519476354122162,0,0,2.828279972076416
1.365237147,0,0,1.0654197931289673,0,0,-0.4586400091648102
1.366235815,0,0,1.1420341730117798,0,0,1.1466000080108643
1.367234076,0,0,1.623268723487854,0,0,9.096360206604004
1.368234652,0,0,2.3965959548950195,0,0,0
1.3692343390000001,0,0,2.3032219409942627,0,0,1.8345600366592407
1.370235581,0,0,2.52109432220459,0,0,0
1.371234212,0,0,2.2888567447662354,0,0,2.06387996673584
1.372234677,0,0,2.011129379272461,0,0,2.2167599201202393
1.373234716,0,0,2.049436569213867,0,0,1.5288000106811523
1.374235273,0,0,1.2880805730819702,0,0,3.210479974746704
1.375234108,0,0,0.7230489253997803,0,0,0.2293200045824051
1.376234795,0,0,1.7357962131500244,0,0,9.325679779052734
1.377234519,0,0,1.647210717201233,0,0,0.0764399990439415
1.378235354,0,0,1.8555063009262085,0,0,-0.9937199950218201
1.379234393,0,0,1.8746598958969116,0,0,1.2994799613952637
1.380234469,0,0,1.4772224426269531,0,0,0.152879998087883
1.381234748,0,0,2.0829553604125977,0,0,0.4586400091648102
1.382235565,0,0,1.8195933103561401,0,0,2.6754000186920166
1.383234029,0,0,1.9081788063049316,0,0,0.9172800183296204
1.38423455,0,0,1.3862427473068237,0,0,1.6816799640655518
1.3852344589999999,0,0,0.689530074596405,0,0,1.6816799640655518
1.386235312,0,0,1.4173674583435059,0,0,0.0764399990439415
1.387233703,0,0,1.7046716213226318,0,0,0.7644000053405762
1.388234501,0,0,1.6543933153152466,0,0,-0.3822000026702881
1.389234743,0,0,2.2697031497955322,0,0,0
1.390235356,0,0,1.8339585065841675,0,0,1.2994799613952637
1.39123371,0,0,2.1140801906585693,0,0,1.452359914779663
1.392234841,0,0,2.1092917919158936,0,0,2.2167599201202393
1.393234695,0,0,1.800439715385437,0,0,2.9811599254608154
1.394235363,0,0,1.7836803197860718,0,0,1.605239987373352
1.395234124,0,0,1.6376339197158813,0,0,2.5989599227905273
1.3962345520000001,0,0,1.436521053314209,0,0,2.14031982421875
1.397234776,0,0,1.9919757843017578,0,0,0.611519992351532
1.3982353330000001,0,0,2.0614075660705566,0,0,1.070159912109375
1.399234223,0,0,1.6759412288665771,0,0,0
1.40023454,0,0,2.051830768585205,0,0,0.0764399990439415
1.401234708,0,0,1.7477672100067139,0,0,1.223039984703064
1.40223558,0,0,1.6496049165725708,0,0,0.4586400091648102
1.403234082,0,0,2.051830768585205,0,0,0.5350799560546875
1.404234473,0,0,1.7357962131500244,0,0,1.452359914779663
1.405234456,0,0,1.599326729774475,0,0,1.6816799640655518
1.40623555,0,0,1.4700398445129395,0,0,1.070159912109375
1.407234256,0,0,1.0007762908935547,0,0,1.6816799640655518
1.408234572,0,0,0.912190854549408,0,0,1.2994799613952637
1.409235407,0,0,1.4748282432556152,0,0,0
1.410235872,0,0,1.4724340438842773,0,0,0.5350799560546875
1.4112340589999999,0,0,1.7262194156646729,0,0,1.1466000080108643
1.412234172,0,0,1.9776105880737305,0,0,0
1.413234896,0,0,1.9488801956176758,0,0,1.223039984703064
1.414236582,0,0,2.030282974243164,0,0,1.070159912109375
1.41523414,0,0,2.1715409755706787,0,0,1.375920057296753
1.416234901,0,0,1.889025092124939,0,0,2.904719829559326
1.417234476,0,0,1.7884687185287476,0,0,2.14031982421875
1.418235626,0,0,1.5322890281677246,0,0,2.14031982421875
1.419488013,0,0,1.161187767982483,0,0,2.446079969406128
1.420234463,0,0,1.8387469053268433,0,0,0.0764399990439415
1.421232613,0,0,2.3295583724975586,0,0,0.6879600286483765
1.422232615,0,0,2.363077163696289,0,0,0.305759996175766
1.423233283,0,0,2.499546527862549,0,0,0.3822000026702881
1.42423247,0,0,2.0614075660705566,0,0,0.4586400091648102
1.425232379,0,0,1.2449848651885986,0,0,1.758120059967041
1.426232529,0,0,1.3192051649093628,0,0,0.6879600286483765
1.427233031,0,0,1.2880805730819702,0,0,1.223039984703064
1.428232236,0,0,1.3335703611373901,0,0,1.8345600366592407
1.4292321270000001,0,0,1.699883222579956,0,0,1.070159912109375
1.430232128,0,0,1.6927006244659424,0,0,1.605239987373352
1.431232871,0,0,1.53707754611969,0,0,1.9874399900436401
1.432232169,0,0,1.8315643072128296,0,0,0.0764399990439415
1.4332322450000001,0,0,2.097320795059204,0,0,0.7644000053405762
1.434233635,0,0,1.8770540952682495,0,0,1.223039984703064
1.435235359,0,0,1.6639702320098877,0,0,0.611519992351532
1.4362347309999999,0,0,1.800439715385437,0,0,0.6879600286483765
1.4372345850000001,0,0,1.0845733880996704,0,0,1.5288000106811523
1.43823555,0,0,1.1420341730117798,0,0,0.5350799560546875
1.439234014,0,0,1.8387469053268433,0,0,0.2293200045824051
1.440234646,0,0,1.5466543436050415,0,0,1.8345600366592407
1.44123461,0,0,1.8531121015548706,0,0,0.2293200045824051
1.442235519,0,0,1.9249382019042969,0,0,0.8408399820327759
1.443233928,0,0,1.6160861253738403,0,0,2.2167599201202393
1.44423443,0,0,1.6950948238372803,0,0,1.2994799613952637
1.445234654,0,0,1.6903064250946045,0,0,1.070159912109375
1.446423745,0,0,1.8746598958969116,0,0,1.223039984703064
1.447270731,0,0,1.6687586307525635,0,0,0.9172800183296204
1.448236567,0,0,1.8555063009262085,0,0,0.8408399820327759
1.449234883,0,0,1.7525556087493896,0,0,0.6879600286483765
1.450234848,0,0,1.4484920501708984,0,0,0.9172800183296204
1.451235553,0,0,1.6160861253738403,0,0,0.6879600286483765
1.452234851,0,0,1.7980455160140991,0,0,0.7644000053405762
1.453235297,0,0,1.8171991109848022,0,0,1.223039984703064
1.454235688,0,0,2.056619167327881,0,0,1.758120059967041
1.455231671,0,0,1.8770540952682495,0,0,1.9874399900436401
1.456232099,0,0,1.766920804977417,0,0,1.758120059967041
1.457232397,0,0,1.6615760326385498,0,0,1.8345600366592407
1.458244324,0,0,1.8818424940109253,0,0,1.223039984703064
1.459235771,0,0,2.0925323963165283,0,0,0.9172800183296204
1.460234939,0,0,2.0015525817871094,0,0,1.223039984703064
1.461234793,0,0,1.889025092124939,0,0,0.4586400091648102
1.46223522,0,0,1.9057846069335938,0,0,0.9172800183296204
1.46323487,0,0,1.173158884048462,0,0,1.070159912109375
1.464234705,0,0,1.290474772453308,0,0,1.2994799613952637
1.4652346139999999,0,0,1.3886369466781616,0,0,0.5350799560546875
1.466235505,0,0,1.5634137392044067,0,0,1.375920057296753
1.4672343030000001,0,0,1.460463047027588,0,0,0.7644000053405762
1.46823449,0,0,1.9943699836730957,0,0,1.1466000080108643
1.4692346029999999,0,0,1.7142484188079834,0,0,1.452359914779663
1.470235623,0,0,1.5658079385757446,0,0,1.9109998941421509
1.471233939,0,0,1.6831238269805908,0,0,1.070159912109375
1.4722347,0,0,2.006340980529785,0,0,1.452359914779663
1.473234313,0,0,2.183511972427368,0,0,1.1466000080108643
1.474235426,0,0,2.31758713722229,0,0,0.9172800183296204
1.475234039,0,0,2.032677173614502,0,0,0.7644000053405762
1.476234707,0,0,1.522712230682373,0,0,1.2994799613952637
1.477234394,0,0,1.0271124839782715,0,0,0.5350799560546875
1.4782349510000001,0,0,0.8020575642585754,0,0,0.5350799560546875
1.479234805,0,0,0.9696516990661621,0,0,0.0764399990439415
1.4802453070000001,0,0,1.4077905416488647,0,0,0.3822000026702881
1.481316789,0,0,1.7717092037200928,0,0,0.9172800183296204
1.482291161,0,0,2.5474305152893066,0,0,1.1466000080108643
1.4839169669999999,0,0,2.3056161403656006,0,0,1.223039984703064
1.48423498,0,0,2.0374655723571777,0,0,2.06387996673584
1.485232204,0,0,1.7836803197860718,0,0,1.452359914779663
1.486232706,0,0,1.944091796875,0,0,1.605239987373352
1.487231819,0,0,2.013523578643799,0,0,1.5288000106811523
1.488231265,0,0,1.946485996246338,0,0,1.223039984703064
1.489231044,0,0,1.8914192914962769,0,0,0.8408399820327759
1.490231491,0,0,1.941697597503662,0,0,1.1466000080108643
1.491231344,0,0,1.4867992401123047,0,0,1.070159912109375
1.4922311609999999,0,0,1.235408067703247,0,0,0
1.493231033,0,0,1.1994950771331787,0,0,9.631440162658691
1.494232127,0,0,1.656787633895874,0,0,0.305759996175766
1.495231703,0,0,1.6280571222305298,0,0,0.152879998087883
1.496230686,0,0,1.4317326545715332,0,0,1.223039984703064
1.497248891,0,0,1.6974890232086182,0,0,0.611519992351532
1.4982324120000001,0,0,1.5873557329177856,0,0,1.8345600366592407
1.499231062,0,0,1.5753847360610962,0,0,1.8345600366592407
1.5002436559999999,0,0,1.4532804489135742,0,0,1.452359914779663
1.501382174,0,0,1.900996208190918,0,0,2.06387996673584
1.5022354930000001,0,0,2.27209734916687,0,0,0.5350799560546875
1.50323442,0,0,2.233790159225464,0,0,1.375920057296753
1.504233663,0,0,2.252943754196167,0,0,1.2994799613952637
1.505233424,0,0,2.449268341064453,0,0,0.8408399820327759
1.506234777,0,0,1.8962076902389526,0,0,1.2994799613952637
1.507233075,0,0,1.8962076902389526,0,0,0.611519992351532
1.50823367,0,0,1.4724340438842773,0,0,0.9937199950218201
1.509233634,0,0,1.0247182846069336,0,0,0.7644000053405762
1.510234395,0,0,0.8259995579719543,0,0,0.3822000026702881
1.5112328229999998,0,0,1.0606313943862915,0,0,0.305759996175766
1.5122335470000001,0,0,1.479616641998291,0,0,0.7644000053405762
1.513233641,0,0,1.7094600200653076,0,0,1.452359914779663
1.514276994,0,0,2.2433669567108154,0,0,1.605239987373352
1.515237256,0,0,2.1475989818573,0,0,1.9874399900436401
1.516233906,0,0,1.9369091987609863,0,0,1.9109998941421509
1.517233166,0,0,1.4724340438842773,0,0,1.6816799640655518
1.518234576,0,0,1.50355863571167,0,0,1.2994799613952637
1.519233318,0,0,1.9105730056762695,0,0,1.375920057296753
1.5202341160000001,0,0,2.0398597717285156,0,0,0.6879600286483765
1.521233229,0,0,2.207453966140747,0,0,0.7644000053405762
1.522252656,0,0,2.0398597717285156,0,0,1.223039984703064
1.523234084,0,0,1.8818424940109253,0,0,1.5288000106811523
1.524233734,0,0,1.6065093278884888,0,0,0.4586400091648102
1.525233791,0,0,1.0007762908935547,0,0,0.3822000026702881
1.5262348860000001,0,0,1.036689281463623,0,0,0
1.527230369,0,0,0.8882488012313843,0,0,0.4586400091648102
1.528231056,0,0,1.237802267074585,0,0,0.8408399820327759
1.529231298,0,0,1.3024457693099976,0,0,1.2994799613952637
1.530251077,0,0,1.482010841369629,0,0,1.223039984703064
1.5312369129999999,0,0,1.7405846118927002,0,0,1.452359914779663
1.532234026,0,0,2.0685901641845703,0,0,2.2932000160217285
1.533234027,0,0,2.0853497982025146,0,0,2.06387996673584
1.5342348989999999,0,0,2.1140801906585693,0,0,1.375920057296753
1.535233179,0,0,1.9991583824157715,0,0,1.2994799613952637
1.536233569,0,0,2.425326347351074,0,0,1.223039984703064
1.537233627,0,0,2.4372973442077637,0,0,1.452359914779663
1.538234499,0,0,2.360682964324951,0,0,1.375920057296753
1.539232704,0,0,2.051830768585205,0,0,1.375920057296753
1.5402335759999999,0,0,1.5442601442337036,0,0,1.1466000080108643
1.5412334300000001,0,0,1.37906014919281,0,0,0.4586400091648102
1.542234117,0,0,1.1635819673538208,0,0,0.6879600286483765
1.5432327300000002,0,0,0.9840168952941895,0,0,0.305759996175766
1.544233454,0,0,0.9816226959228516,0,0,9.096360206604004
1.545233437,0,0,1.0223240852355957,0,0,0.0764399990439415
1.546279401,0,0,1.6687586307525635,0,0,0.2293200045824051
1.547235477,0,0,1.702277421951294,0,0,1.223039984703064
1.548233923,0,0,1.766920804977417,0,0,1.758120059967041
1.5492337950000001,0,0,1.5059528350830078,0,0,1.8345600366592407
1.550234779,0,0,1.680729627609253,0,0,1.605239987373352
1.551232891,0,0,1.867477297782898,0,0,2.06387996673584
1.552233523,0,0,1.8579005002975464,0,0,1.5288000106811523
1.553233487,0,0,2.1978771686553955,0,0,1.223039984703064
1.554234637,0,0,2.070984363555908,0,0,0.3822000026702881
1.5552330460000001,0,0,2.2170307636260986,0,0,0.9172800183296204
1.556233178,0,0,2.5665841102600098,0,0,1.223039984703064
1.557233605,0,0,2.365471363067627,0,0,0.9172800183296204
1.55823444,0,0,1.9297266006469727,0,0,0.9172800183296204
1.5592352379999999,0,0,1.455674648284912,0,0,0.9172800183296204
1.560233222,0,0,1.0055646896362305,0,0,0.4586400091648102
1.561233705,0,0,1.1803414821624756,0,0,0.9172800183296204
1.5622349660000001,0,0,1.0606313943862915,0,0,0.4586400091648102
1.563233801,0,0,1.0989385843276978,0,0,0.2293200045824051
1.5642463389999999,0,0,1.170764684677124,0,0,9.402119636535645
1.56523673,0,0,1.2880805730819702,0,0,0.611519992351532
1.5662357500000001,0,0,1.8100165128707886,0,0,0.9937199950218201
1.567233493,0,0,2.070984363555908,0,0,1.1466000080108643
1.568233735,0,0,2.0231003761291504,0,0,1.452359914779663
1.569233719,0,0,1.9488801956176758,0,0,2.14031982421875
1.570234498,0,0,1.6400281190872192,0,0,1.452359914779663
1.571233037,0,0,1.9776105880737305,0,0,2.06387996673584
1.572233446,0,0,2.049436569213867,0,0,1.758120059967041
1.573233411,0,0,1.9847931861877441,0,0,0.611519992351532
1.574234357,0,0,1.9728221893310547,0,0,1.452359914779663
1.5752328960000002,0,0,1.7764976024627686,0,0,0.8408399820327759
1.576233471,0,0,1.7908629179000854,0,0,0.611519992351532
1.577237195,0,0,2.3127987384796143,0,0,0.7644000053405762
1.578234919,0,0,1.987187385559082,0,0,0.8408399820327759
1.579232902,0,0,1.7286136150360107,0,0,0.9937199950218201
1.580233608,0,0,1.2090718746185303,0,0,1.1466000080108643
1.5812335910000002,0,0,0.8020575642585754,0,0,0.5350799560546875
1.582234185,0,0,1.05105459690094,0,0,0.7644000053405762
1.5832330940000001,0,0,1.4724340438842773,0,0,0.305759996175766
1.584233504,0,0,1.7405846118927002,0,0,0.9937199950218201
1.585233061,0,0,1.7693150043487549,0,0,0.8408399820327759
1.586247192,0,0,1.702277421951294,0,0,1.605239987373352
1.5872338240000001,0,0,1.7286136150360107,0,0,1.2994799613952637
1.588233585,0,0,1.6711528301239014,0,0,0.9937199950218201
1.5892336230000002,0,0,1.8124107122421265,0,0,1.452359914779663
1.590234477,0,0,1.778891921043396,0,0,1.2994799613952637
1.5912331640000001,0,0,2.0015525817871094,0,0,1.452359914779663
1.592233443,0,0,1.8339585065841675,0,0,1.452359914779663
1.593233463,0,0,1.7764976024627686,0,0,1.2994799613952637
1.594234502,0,0,1.987187385559082,0,0,1.9109998941421509
1.595232948,0,0,2.315192937850952,0,0,0.8408399820327759
1.596233561,0,0,2.056619167327881,0,0,1.1466000080108643
1.597233452,0,0,2.032677173614502,0,0,0.6879600286483765
1.598234602,0,0,1.400607943534851,0,0,1.1466000080108643
1.599233066,0,0,1.1875240802764893,0,0,0.8408399820327759
1.600233383,0,0,1.2689268589019775,0,0,0
1.601233903,0,0,1.6639702320098877,0,0,0.9937199950218201
1.6022345709999999,0,0,1.944091796875,0,0,1.1466000080108643
1.603232999,0,0,1.7070658206939697,0,0,0.9172800183296204
1.604233056,0,0,1.6376339197158813,0,0,2.06387996673584
1.6052334099999999,0,0,1.5682021379470825,0,0,0.7644000053405762
1.6062343559999999,0,0,1.4532804489135742,0,0,1.070159912109375
1.607232469,0,0,1.7405846118927002,0,0,0.7644000053405762
1.608233434,0,0,1.7980455160140991,0,0,0.8408399820327759
1.609233361,0,0,2.161964178085327,0,0,0.9172800183296204
1.6102346779999999,0,0,2.0207061767578125,0,0,0.9172800183296204
1.611232791,0,0,1.6759412288665771,0,0,1.2994799613952637
1.6122333850000001,0,0,1.482010841369629,0,0,1.070159912109375
1.613233479,0,0,1.3000515699386597,0,0,0.7644000053405762
1.6142641100000001,0,0,1.4748282432556152,0,0,0.9937199950218201
1.615242149,0,0,1.8363527059555054,0,0,0.4586400091648102
1.616234281,0,0,1.8962076902389526,0,0,1.070159912109375
1.61723369,0,0,2.0590133666992188,0,0,0.9172800183296204
1.618234858,0,0,1.7860745191574097,0,0,1.6816799640655518
1.6192366009999999,0,0,1.479616641998291,0,0,1.5288000106811523
1.6202334729999999,0,0,1.3335703611373901,0,0,0.9937199950218201
1.62123353,0,0,1.3407529592514038,0,0,0.8408399820327759
1.6222337169999999,0,0,1.920149803161621,0,0,0.6879600286483765
1.623233311,0,0,2.1978771686553955,0,0,0.9937199950218201
1.62423348,0,0,2.205059766769409,0,0,1.452359914779663
1.6252330000000001,0,0,1.9752163887023926,0,0,0.6879600286483765
1.626273205,0,0,1.6759412288665771,0,0,1.223039984703064
1.627234188,0,0,1.4867992401123047,0,0,0.611519992351532
1.628233468,0,0,1.3263877630233765,0,0,0.9172800183296204
1.6292329140000001,0,0,1.5322890281677246,0,0,0.5350799560546875
1.630233971,0,0,1.8555063009262085,0,0,1.375920057296753
1.631233473,0,0,1.9704279899597168,0,0,1.5288000106811523
1.632233475,0,0,1.9177556037902832,0,0,1.605239987373352
1.633233477,0,0,1.6376339197158813,0,0,1.6816799640655518
1.6342337,0,0,1.4484920501708984,0,0,0.9937199950218201
1.635233424,0,0,1.4221558570861816,0,0,0.3822000026702881
1.6362334079999998,0,0,1.525106430053711,0,0,1.070159912109375
1.637233335,0,0,1.8962076902389526,0,0,0.6879600286483765
1.638234781,0,0,2.1380221843719482,0,0,1.2994799613952637
1.6392338199999998,0,0,2.0422539710998535,0,0,0.9937199950218201
1.640233266,0,0,1.9847931861877441,0,0,1.758120059967041
1.641233564,0,0,1.5682021379470825,0,0,1.605239987373352
1.642234473,0,0,1.194706678390503,0,0,1.1466000080108643
1.6432328269999998,0,0,0.9696516990661621,0,0,0.9937199950218201
1.644233699,0,0,1.0845733880996704,0,0,0.0764399990439415
1.645233312,0,0,1.5418659448623657,0,0,0
1.646234888,0,0,1.9728221893310547,0,0,0.6879600286483765
1.6472329449999998,0,0,2.27209734916687,0,0,1.1466000080108643
1.648233373,0,0,2.3798365592956543,0,0,1.758120059967041
1.649233337,0,0,1.86508309841156,0,0,1.605239987373352
1.650246246,0,0,1.556231141090393,0,0,1.8345600366592407
1.651233156,0,0,1.2497732639312744,0,0,1.6816799640655518
1.6522334170000001,0,0,1.3096283674240112,0,0,0.9937199950218201
1.653233511,0,0,1.4987702369689941,0,0,0.8408399820327759
1.654234346,0,0,1.8555063009262085,0,0,0.4586400091648102
1.6552329220000002,0,0,2.188300371170044,0,0,1.2994799613952637
1.6562335350000001,0,0,2.3511061668395996,0,0,1.1466000080108643
1.657233407,0,0,2.2026655673980713,0,0,1.758120059967041
1.658234556,0,0,2.099714994430542,0,0,1.8345600366592407
1.6592327249999999,0,0,1.479616641998291,0,0,1.452359914779663
1.660233523,0,0,1.192312479019165,0,0,1.223039984703064
1.661233469,0,0,1.1348515748977661,0,0,0.9172800183296204
1.662234674,0,0,1.403002142906189,0,0,0.4586400091648102
1.663232898,0,0,1.6759412288665771,0,0,0.305759996175766
1.664233548,0,0,1.7549498081207275,0,0,0.305759996175766
1.665233513,0,0,1.9560627937316895,0,0,2.06387996673584
1.666234385,0,0,1.9273324012756348,0,0,0.7644000053405762
1.667238942,0,0,1.6950948238372803,0,0,1.452359914779663
1.668233592,0,0,1.7717092037200928,0,0,1.1466000080108643
1.669233501,0,0,1.625662922859192,0,0,1.6816799640655518
1.6702345219999999,0,0,1.5490485429763794,0,0,1.452359914779663
1.671232801,0,0,1.6400281190872192,0,0,1.1466000080108643
1.672232951,0,0,1.7094600200653076,0,0,1.070159912109375
1.673233545,0,0,1.7597382068634033,0,0,0.9937199950218201
1.674234399,0,0,1.8148049116134644,0,0,0.8408399820327759
1.6752329559999999,0,0,1.886630892753601,0,0,0.611519992351532
1.6762335689999999,0,0,1.8626888990402222,0,0,0.4586400091648102
1.6772333480000001,0,0,1.647210717201233,0,0,0.9172800183296204
1.6782343320000002,0,0,1.6974890232086182,0,0,0.9172800183296204
1.6792328520000002,0,0,1.4748282432556152,0,0,1.375920057296753
1.680233298,0,0,1.4221558570861816,0,0,0.9172800183296204
1.681233355,0,0,1.4173674583435059,0,0,0.9937199950218201
1.682234357,0,0,1.5969325304031372,0,0,0.8408399820327759
1.68323284,0,0,1.7094600200653076,0,0,0.9172800183296204
1.684233398,0,0,1.6663644313812256,0,0,1.2994799613952637
1.685233455,0,0,1.7836803197860718,0,0,0.7644000053405762
1.68623442,0,0,1.680729627609253,0,0,0.6879600286483765
1.687233069,0,0,1.723825216293335,0,0,0.6879600286483765
1.688233312,0,0,1.821987509727478,0,0,1.1466000080108643
1.6892331839999999,0,0,1.7956513166427612,0,0,1.5288000106811523
1.690234093,0,0,1.6759412288665771,0,0,0.7644000053405762
1.691232965,0,0,1.6974890232086182,0,0,1.223039984703064
1.6922336150000001,0,0,1.580173134803772,0,0,1.1466000080108643
1.6932332460000001,0,0,1.5897499322891235,0,0,1.375920057296753
1.6942341,0,0,1.6831238269805908,0,0,1.223039984703064
1.695232879,0,0,1.8100165128707886,0,0,0.8408399820327759
1.6962333809999999,0,0,1.987187385559082,0,0,1.223039984703064
1.697233346,0,0,1.8698714971542358,0,0,1.223039984703064
1.698234662,0,0,1.9847931861877441,0,0,0.9937199950218201
1.699232868,0,0,1.968033790588379,0,0,1.375920057296753
1.700233518,0,0,1.6376339197158813,0,0,0.9172800183296204
1.7012334820000001,0,0,1.580173134803772,0,0,1.452359914779663
1.7022342799999999,0,0,1.5179238319396973,0,0,1.375920057296753
1.7032330039999999,0,0,1.5466543436050415,0,0,1.2994799613952637
1.704233636,0,0,1.6328455209732056,0,0,0.8408399820327759
1.7052334710000001,0,0,1.6041151285171509,0,0,0.6879600286483765
1.7062336390000001,0,0,1.5705963373184204,0,0,1.375920057296753
1.707233308,0,0,1.5490485429763794,0,0,0.3822000026702881
1.708233494,0,0,1.6663644313812256,0,0,0.9172800183296204
1.7092334409999999,0,0,1.7741034030914307,0,0,1.5288000106811523
1.710234553,0,0,1.5418659448623657,0,0,1.070159912109375
1.71123274,0,0,1.6735470294952393,0,0,1.5288000106811523
1.7122335199999998,0,0,1.6663644313812256,0,0,1.2994799613952637
1.713233299,0,0,1.6663644313812256,0,0,1.375920057296753
1.7142704119999999,0,0,1.8914192914962769,0,0,1.5288000106811523
1.715237377,0,0,1.9177556037902832,0,0,1.223039984703064
1.7162345449999998,0,0,1.98958158493042,0,0,2.14031982421875
1.71723414,0,0,1.8938134908676147,0,0,0.9172800183296204
1.718235141,0,0,1.9847931861877441,0,0,1.5288000106811523
1.719233513,0,0,2.078166961669922,0,0,0.8408399820327759
1.7202340889999999,0,0,1.764526605606079,0,0,1.070159912109375
1.721234109,0,0,1.702277421951294,0,0,0.6879600286483765
1.722234889,0,0,1.5083470344543457,0,0,0.9937199950218201
1.723233428,0,0,1.4245500564575195,0,0,0.611519992351532
1.724233818,0,0,1.45806884765625,0,0,0.9172800183296204
1.7252338759999999,0,0,1.5466543436050415,0,0,0.4586400091648102
1.7262346549999998,0,0,1.699883222579956,0,0,1.2994799613952637
1.727233527,0,0,1.6543933153152466,0,0,0.3822000026702881
1.728233881,0,0,1.702277421951294,0,0,1.070159912109375
1.7292340309999998,0,0,1.8363527059555054,0,0,1.2994799613952637
1.730234995,0,0,1.6831238269805908,0,0,1.375920057296753
1.731233645,0,0,1.8315643072128296,0,0,1.605239987373352
1.732232665,0,0,1.6184803247451782,0,0,1.5288000106811523
1.733230686,0,0,1.5825673341751099,0,0,0.9172800183296204
1.734233261,0,0,1.8962076902389526,0,0,1.223039984703064
1.735234448,0,0,1.8818424940109253,0,0,0.7644000053405762
1.736234117,0,0,1.8602946996688843,0,0,1.1466000080108643
1.737233581,0,0,1.886630892753601,0,0,0.2293200045824051
1.738234361,0,0,1.8626888990402222,0,0,1.375920057296753
1.739233992,0,0,1.9488801956176758,0,0,1.1466000080108643
1.74023379,0,0,1.50355863571167,0,0,0.8408399820327759
1.741233885,0,0,1.3766659498214722,0,0,1.1466000080108643
1.742235127,0,0,1.4389152526855469,0,0,0.5350799560546875
1.743230351,0,0,1.6280571222305298,0,0,0.8408399820327759
1.7442310189999999,0,0,1.8315643072128296,0,0,0.9937199950218201
1.74523104,0,0,1.6663644313812256,0,0,1.2994799613952637
1.746232967,0,0,1.7310078144073486,0,0,1.070159912109375
1.7472339319999999,0,0,1.680729627609253,0,0,0.4586400091648102
1.74823336,0,0,1.4700398445129395,0,0,0.7644000053405762
1.7492334349999998,0,0,1.7693150043487549,0,0,0.7644000053405762
1.750237104,0,0,1.723825216293335,0,0,1.070159912109375
1.751268623,0,0,1.8602946996688843,0,0,1.1466000080108643
1.752266644,0,0,1.845929503440857,0,0,1.6816799640655518
1.753234942,0,0,1.7190368175506592,0,0,1.223039984703064
1.7542378699999999,0,0,1.601720929145813,0,0,1.452359914779663
1.755232816,0,0,1.5179238319396973,0,0,1.223039984703064
1.75623354,0,0,1.5897499322891235,0,0,0.611519992351532
1.757233468,0,0,1.7884687185287476,0,0,0.6879600286483765
1.758233932,0,0,1.9081788063049316,0,0,0.4586400091648102
1.75923273,0,0,2.051830768585205,0,0,1.070159912109375
1.760233528,0,0,1.8339585065841675,0,0,0.9172800183296204
1.761233363,0,0,1.4652514457702637,0,0,0.6879600286483765
1.762234495,0,0,1.2330138683319092,0,0,0.7644000053405762
1.763233034,0,0,1.0821791887283325,0,0,0.9172800183296204
1.764233369,0,0,1.2665326595306396,0,0,1.1466000080108643
1.765234926,0,0,1.7381904125213623,0,0,0.8408399820327759
1.766234502,0,0,2.2840683460235596,0,0,1.070159912109375
1.767232837,0,0,2.0470423698425293,0,0,1.8345600366592407
1.768233487,0,0,1.8411411046981812,0,0,1.5288000106811523
1.769233359,0,0,1.9776105880737305,0,0,1.5288000106811523
1.770234138,0,0,2.1380221843719482,0,0,1.6816799640655518
1.7712437140000001,0,0,1.8195933103561401,0,0,1.375920057296753
1.77225053,0,0,1.9033904075622559,0,0,1.223039984703064
1.77324544,0,0,1.8962076902389526,0,0,1.452359914779663
1.774235386,0,0,1.8339585065841675,0,0,1.1466000080108643
1.775237276,0,0,1.7310078144073486,0,0,0.9172800183296204
1.776247167,0,0,1.6879122257232666,0,0,0.9937199950218201
1.777320278,0,0,1.5969325304031372,0,0,1.8345600366592407
1.778252355,0,0,1.6184803247451782,0,0,0.6879600286483765
1.7792361909999999,0,0,1.8076223134994507,0,0,1.1466000080108643
1.780233433,0,0,1.965639591217041,0,0,0.4586400091648102
1.781238898,0,0,1.7501614093780518,0,0,1.605239987373352
1.782235548,0,0,1.6831238269805908,0,0,1.5288000106811523
1.783233512,0,0,1.53707754611969,0,0,1.223039984703064
1.784233477,0,0,1.6663644313812256,0,0,1.2994799613952637
1.785233368,0,0,1.6879122257232666,0,0,0.9937199950218201
1.786234536,0,0,1.7764976024627686,0,0,0.9937199950218201
1.787233075,0,0,1.9105730056762695,0,0,1.452359914779663
1.788233447,0,0,1.920149803161621,0,0,0.611519992351532
1.789233152,0,0,1.7980455160140991,0,0,1.2994799613952637
1.790234487,0,0,1.7764976024627686,0,0,0.7644000053405762
1.791232952,0,0,1.5610195398330688,0,0,1.452359914779663
1.792233676,0,0,1.6496049165725708,0,0,0.8408399820327759
1.7932334,0,0,1.482010841369629,0,0,0.9172800183296204
1.7942414389999999,0,0,1.5682021379470825,0,0,0.7644000053405762
1.795234385,0,0,1.5466543436050415,0,0,0.9172800183296204
1.796233609,0,0,1.6041151285171509,0,0,0.9172800183296204
1.7972335739999998,0,0,1.7884687185287476,0,0,1.223039984703064
1.7982342980000001,0,0,1.8124107122421265,0,0,0.5350799560546875
1.7992327989999999,0,0,1.8339585065841675,0,0,0.9172800183296204
1.800234208,0,0,2.070984363555908,0,0,0.9172800183296204
1.801232729,0,0,1.8842366933822632,0,0,1.5288000106811523
1.80223436,0,0,1.9129672050476074,0,0,1.1466000080108643
1.803232862,0,0,1.6759412288665771,0,0,1.1466000080108643
1.8042686589999999,0,0,1.7094600200653076,0,0,1.2994799613952637
1.805235884,0,0,1.7357962131500244,0,0,1.070159912109375
1.806235311,0,0,1.6615760326385498,0,0,1.223039984703064
1.807233832,0,0,1.8363527059555054,0,0,0.5350799560546875
1.808233815,0,0,2.1116859912872314,0,0,0
1.809233705,0,0,2.0805611610412598,0,0,0.7644000053405762
1.810248429,0,0,2.0829553604125977,0,0,0.7644000053405762
1.8112350419999999,0,0,1.522712230682373,0,0,0.6879600286483765
1.8122340810000002,0,0,1.161187767982483,0,0,1.070159912109375
1.813233694,0,0,1.113303780555725,0,0,0.611519992351532
1.814281917,0,0,1.1492167711257935,0,0,0.5350799560546875
1.8152369560000001,0,0,1.381454348564148,0,0,0.8408399820327759
1.816234329,0,0,1.647210717201233,0,0,0.7644000053405762
1.817234108,0,0,1.8339585065841675,0,0,0.7644000053405762
1.8182353500000001,0,0,2.1356279850006104,0,0,0.611519992351532
1.8192341490000001,0,0,2.0614075660705566,0,0,1.5288000106811523
1.820233947,0,0,2.183511972427368,0,0,1.605239987373352
1.821233374,0,0,1.941697597503662,0,0,1.758120059967041
1.8222335429999998,0,0,1.7046716213226318,0,0,1.452359914779663
1.823233211,0,0,1.5969325304031372,0,0,2.06387996673584
1.824233509,0,0,1.6543933153152466,0,0,1.6816799640655518
1.825233492,0,0,1.8602946996688843,0,0,0.7644000053405762
1.826233549,0,0,1.9704279899597168,0,0,0.5350799560546875
1.82723331,0,0,2.094926595687866,0,0,0.2293200045824051
1.82823322,0,0,2.0159177780151367,0,0,0.611519992351532
1.829233351,0,0,1.6400281190872192,0,0,1.070159912109375
1.830233853,0,0,1.3263877630233765,0,0,1.1466000080108643
1.831233503,0,0,0.8188169598579407,0,0,0.5350799560546875
1.832233504,0,0,0.7948749661445618,0,0,0.0764399990439415
1.8332335990000002,0,0,1.2856862545013428,0,0,0.4586400091648102
1.834233915,0,0,1.6496049165725708,0,0,0.611519992351532
1.835233361,0,0,1.8746598958969116,0,0,1.223039984703064
1.83623353,0,0,1.886630892753601,0,0,1.605239987373352
1.8372335130000002,0,0,1.6519991159439087,0,0,1.5288000106811523
1.83824794,0,0,1.5298948287963867,0,0,2.446079969406128
1.839233702,0,0,1.6304513216018677,0,0,1.070159912109375
1.84023337,0,0,1.8962076902389526,0,0,1.375920057296753
1.841233186,0,0,2.1475989818573,0,0,0.7644000053405762
1.842240503,0,0,2.0398597717285156,0,0,1.070159912109375
1.843233357,0,0,2.2242133617401123,0,0,1.375920057296753
1.8442357660000002,0,0,2.008735179901123,0,0,1.375920057296753
1.8452332120000001,0,0,1.7501614093780518,0,0,1.1466000080108643
1.8463445269999998,0,0,1.6160861253738403,0,0,1.070159912109375
1.8472336409999999,0,0,1.53707754611969,0,0,0.8408399820327759
1.848233661,0,0,1.6352397203445435,0,0,1.9109998941421509
1.849233367,0,0,1.6424223184585571,0,0,0.7644000053405762
1.850234683,0,0,1.6519991159439087,0,0,0.9172800183296204
1.8512326300000002,0,0,1.800439715385437,0,0,0.4586400091648102
1.852233205,0,0,1.4987702369689941,0,0,1.1466000080108643
1.85323317,0,0,1.577778935432434,0,0,0.7644000053405762
1.854234487,0,0,1.7836803197860718,0,0,1.070159912109375
1.855232859,0,0,1.9273324012756348,0,0,1.223039984703064
1.8562332860000001,0,0,1.9057846069335938,0,0,1.2994799613952637
1.857233381,0,0,1.800439715385437,0,0,1.605239987373352
1.858234253,0,0,1.702277421951294,0,0,2.14031982421875
1.8592330879999999,0,0,1.6759412288665771,0,0,0.8408399820327759
1.86023333,0,0,1.6950948238372803,0,0,0.4586400091648102
1.861242443,0,0,1.8531121015548706,0,0,0.152879998087883
1.8622349630000001,0,0,1.742978811264038,0,0,0.6879600286483765
1.863232521,0,0,1.8267759084701538,0,0,0.5350799560546875
1.864233356,0,0,1.843535304069519,0,0,1.070159912109375
1.865233524,0,0,1.8531121015548706,0,0,1.070159912109375
1.866234118,0,0,1.6903064250946045,0,0,1.605239987373352
1.8672329159999999,0,0,1.3742717504501343,0,0,1.6816799640655518
1.868233585,0,0,1.4437036514282227,0,0,1.070159912109375
1.86923342,0,0,1.5634137392044067,0,0,0.0764399990439415
1.87023444,0,0,1.6615760326385498,0,0,0.6879600286483765
1.871232571,0,0,2.1571757793426514,0,0,0.611519992351532
1.872233444,0,0,2.0231003761291504,0,0,1.223039984703064
1.873233427,0,0,2.0374655723571777,0,0,0.7644000053405762
1.8742348359999998,0,0,1.8148049116134644,0,0,1.223039984703064
1.875232819,0,0,1.5753847360610962,0,0,1.452359914779663
1.8762333020000002,0,0,1.4197616577148438,0,0,1.070159912109375
1.877236989,0,0,1.1540051698684692,0,0,1.070159912109375
1.878251194,0,0,1.1803414821624756,0,0,0.2293200045824051
1.8792339930000002,0,0,1.4173674583435059,0,0,0
1.8802335129999999,0,0,1.6927006244659424,0,0,0.6879600286483765
1.881233589,0,0,2.097320795059204,0,0,0.7644000053405762
1.882234331,0,0,2.1380221843719482,0,0,1.5288000106811523
1.883232907,0,0,1.8315643072128296,0,0,1.605239987373352
1.884232946,0,0,1.6400281190872192,0,0,1.758120059967041
1.885233558,0,0,1.5873557329177856,0,0,1.605239987373352
1.88623893,0,0,1.5634137392044067,0,0,1.2994799613952637
1.88723508,0,0,1.6615760326385498,0,0,0.9172800183296204
1.888232916,0,0,2.094926595687866,0,0,0.6879600286483765
1.889233565,0,0,2.4684219360351563,0,0,1.070159912109375
1.890234604,0,0,2.4612393379211426,0,0,1.2994799613952637
1.891233698,0,0,2.2242133617401123,0,0,1.452359914779663
1.892233571,0,0,1.721431016921997,0,0,1.375920057296753
1.893233313,0,0,1.137245774269104,0,0,1.452359914779663
1.894234296,0,0,1.0319008827209473,0,0,1.223039984703064
1.895232965,0,0,1.05105459690094,0,0,0.9172800183296204
1.896233244,0,0,1.6041151285171509,0,0,0.7644000053405762
1.897233542,0,0,1.9632453918457031,0,0,0.4586400091648102
1.898234599,0,0,1.9488801956176758,0,0,0.9937199950218201
1.899233083,0,0,2.0231003761291504,0,0,1.758120059967041
1.9002333249999999,0,0,1.7405846118927002,0,0,1.5288000106811523
1.901233401,0,0,1.6184803247451782,0,0,1.452359914779663
1.902234569,0,0,1.625662922859192,0,0,1.070159912109375
1.903232738,0,0,1.5753847360610962,0,0,1.2994799613952637
1.9042334250000001,0,0,1.6759412288665771,0,0,1.2994799613952637
1.9052334260000001,0,0,1.7381904125213623,0,0,0.8408399820327759
1.906249743,0,0,1.6089035272598267,0,0,0.6879600286483765
1.907234189,0,0,1.41257905960083,0,0,0.7644000053405762
1.90823345,0,0,1.3862427473068237,0,0,0.6879600286483765
1.9092329700000001,0,0,1.8387469053268433,0,0,1.070159912109375
1.910234176,0,0,2.0422539710998535,0,0,1.223039984703064
1.9112418070000001,0,0,2.030282974243164,0,0,1.223039984703064
1.9122336789999999,0,0,2.0470423698425293,0,0,1.070159912109375
1.913233255,0,0,1.6136919260025024,0,0,2.2167599201202393
1.914273756,0,0,1.525106430053711,0,0,1.2994799613952637
1.915237036,0,0,1.656787633895874,0,0,1.1466000080108643
1.916234279,0,0,1.8794482946395874,0,0,0.9937199950218201
1.917233873,0,0,1.946485996246338,0,0,0.9172800183296204
1.9182351149999999,0,0,1.843535304069519,0,0,0.9172800183296204
1.919233265,0,0,1.7142484188079834,0,0,0.611519992351532
1.920234045,0,0,1.5466543436050415,0,0,0.611519992351532
1.921233917,0,0,1.5203180313110352,0,0,0.9172800183296204
1.922234863,0,0,1.8483237028121948,0,0,0.6879600286483765
1.923233328,0,0,1.6328455209732056,0,0,1.2994799613952637
1.9242342,0,0,1.7262194156646729,0,0,1.070159912109375
1.925233924,0,0,1.5059528350830078,0,0,1.5288000106811523
1.9262490730000001,0,0,1.5969325304031372,0,0,1.1466000080108643
1.927235279,0,0,1.8291701078414917,0,0,0.9172800183296204
1.9282339099999999,0,0,1.8411411046981812,0,0,1.2994799613952637
1.929234005,0,0,1.8339585065841675,0,0,0.2293200045824051
1.930234858,0,0,1.7860745191574097,0,0,0.2293200045824051
1.931233027,0,0,1.4724340438842773,0,0,0.9937199950218201
1.932237084,0,0,1.7812861204147339,0,0,0.2293200045824051
1.933234271,0,0,1.965639591217041,0,0,1.070159912109375
1.934235847,0,0,1.8962076902389526,0,0,1.223039984703064
1.935233682,0,0,1.501164436340332,0,0,1.070159912109375
1.9362338129999999,0,0,1.403002142906189,0,0,1.070159912109375
1.9372340000000001,0,0,1.256955862045288,0,0,1.9874399900436401
1.9382350019999999,0,0,1.4748282432556152,0,0,1.2994799613952637
1.9392334660000001,0,0,1.8698714971542358,0,0,0.611519992351532
1.940233857,0,0,2.0470423698425293,0,0,1.758120059967041
1.941234136,0,0,2.126051187515259,0,0,0.7644000053405762
1.942234879,0,0,2.2601263523101807,0,0,1.375920057296753
1.943233381,0,0,1.9823989868164063,0,0,1.6816799640655518
1.944233993,0,0,2.0422539710998535,0,0,1.2994799613952637
1.945233921,0,0,1.9919757843017578,0,0,2.06387996673584
1.946234682,0,0,1.5203180313110352,0,0,1.452359914779663
1.947233739,0,0,1.482010841369629,0,0,1.1466000080108643
1.9482339450000001,0,0,1.6543933153152466,0,0,0.5350799560546875
1.949233595,0,0,1.9129672050476074,0,0,0.6879600286483765
1.950234893,0,0,1.6903064250946045,0,0,1.1466000080108643
1.951233413,0,0,1.4484920501708984,0,0,0.5350799560546875
1.9526514449999999,0,0,1.3623007535934448,0,0,0.7644000053405762
1.953236935,0,0,1.1971008777618408,0,0,0.4586400091648102
1.954232325,0,0,1.4652514457702637,0,0,0.0764399990439415
1.955231438,0,0,1.623268723487854,0,0,1.5288000106811523
1.9562308659999998,0,0,1.656787633895874,0,0,0.9172800183296204
1.957230757,0,0,1.7405846118927002,0,0,1.8345600366592407
1.9582318509999999,0,0,1.702277421951294,0,0,1.8345600366592407
1.959231279,0,0,1.9345149993896484,0,0,0.9937199950218201
1.9602309839999998,0,0,2.0231003761291504,0,0,2.446079969406128
1.961231078,0,0,1.9800047874450684,0,0,0.5350799560546875
1.96223171,0,0,2.1954829692840576,0,0,1.2994799613952637
1.963231082,0,0,2.3774423599243164,0,0,1.223039984703064
1.964230843,0,0,2.31758713722229,0,0,1.452359914779663
1.9652316220000001,0,0,2.2625205516815186,0,0,2.06387996673584
1.9662316610000001,0,0,1.8842366933822632,0,0,1.452359914779663
1.967231218,0,0,1.6879122257232666,0,0,1.375920057296753
1.9682309980000001,0,0,1.6400281190872192,0,0,0.8408399820327759
1.9692308139999999,0,0,1.2497732639312744,0,0,0.6879600286483765
1.970247964,0,0,1.05105459690094,0,0,0.5350799560546875
1.9712319470000002,0,0,0.7996633648872375,0,0,9.478560447692871
1.972231134,0,0,0.9552865028381348,0,0,0
1.9732311550000001,0,0,1.6759412288665771,0,0,-0.611519992351532
1.974232675,0,0,1.6041151285171509,0,0,0.6879600286483765
1.9752339540000001,0,0,1.7621324062347412,0,0,0.9172800183296204
1.9762334,0,0,1.4891934394836426,0,0,1.605239987373352
1.977233421,0,0,1.338358759880066,0,0,1.452359914779663
1.978234404,0,0,1.5322890281677246,0,0,1.6816799640655518
1.979232924,0,0,1.4963760375976563,0,0,1.8345600366592407
1.9802335549999999,0,0,1.8291701078414917,0,0,0.9172800183296204
1.981233483,0,0,2.300827741622925,0,0,1.223039984703064
1.9822345399999999,0,0,2.7269957065582275,0,0,1.223039984703064
1.983232912,0,0,2.9688100814819336,0,0,1.375920057296753
1.984233488,0,0,2.3343467712402344,0,0,2.06387996673584
1.985233305,0,0,2.2361843585968018,0,0,0.9937199950218201
1.986234362,0,0,1.9393033981323242,0,0,2.06387996673584
1.987232771,0,0,1.2234370708465576,0,0,0.9172800183296204
1.988233384,0,0,0.8427590131759644,0,0,0
1.9892332750000001,0,0,0.5626373887062073,0,0,0.3822000026702881
1.990234369,0,0,1.0127472877502441,0,0,-1.1466000080108643
1.9912329450000001,0,0,1.7501614093780518,0,0,-0.5350799560546875
1.9922327800000001,0,0,1.8195933103561401,0,0,0.3822000026702881
1.993233356,0,0,1.9608511924743652,0,0,0.8408399820327759
1.994234394,0,0,1.5107412338256836,0,0,1.758120059967041
1.995232785,0,0,1.2401964664459229,0,0,1.2994799613952637
1.998555118,0,0,1.2401964664459229,0,0,1.2994799613952637
1.9987330220000001,0,0,1.6855180263519287,0,0,0.6879600286483765
1.998906223,0,0,1.6855180263519287,0,0,1.375920057296753
1.999240884,0,0,2.4157495498657227,0,0,1.1466000080108643
2.000337051,0,0,2.786850690841675,0,0,2.5989599227905273
2.002915008,0,0,2.8850131034851074,0,0,1.375920057296753
2.003128319,0,0,2.8850131034851074,0,0,1.375920057296753
2.003298909,0,0,2.4660277366638184,0,0,2.06387996673584
2.00423743,0,0,1.4245500564575195,0,0,1.5288000106811523
2.005233913,0,0,0.7781155705451965,0,0,1.1466000080108643
2.006232471,0,0,0.790086567401886,0,0,0
2.007239268,0,0,1.2114660739898682,0,0,0.305759996175766
2.008233659,0,0,1.4077905416488647,0,0,0
2.009231309,0,0,2.0183119773864746,0,0,0.7644000053405762
2.010231515,0,0,2.0805611610412598,0,0,1.452359914779663
2.011231294,0,0,1.8722656965255737,0,0,2.2932000160217285
2.012231129,0,0,1.237802267074585,0,0,1.758120059967041
2.013231057,0,0,1.259350061416626,0,0,2.2167599201202393
2.01429102,0,0,1.5682021379470825,0,0,0.8408399820327759
2.015234671,0,0,1.8315643072128296,0,0,1.375920057296753
2.016235747,0,0,1.9560627937316895,0,0,1.452359914779663
2.017231193,0,0,2.188300371170044,0,0,0.8408399820327759
2.018231436,0,0,2.279279947280884,0,0,1.758120059967041
2.019235789,0,0,1.5203180313110352,0,0,1.1466000080108643
2.020231921,0,0,1.0582371950149536,0,0,0.4586400091648102
2.021230978,0,0,0.7134721279144287,0,0,1.452359914779663
2.022231017,0,0,1.2976573705673218,0,0,-0.5350799560546875
2.023231759,0,0,1.680729627609253,0,0,0.3822000026702881
2.024230909,0,0,2.0853497982025146,0,0,0.5350799560546875
2.025231077,0,0,2.341529369354248,0,0,1.758120059967041
2.026344522,0,0,2.1571757793426514,0,0,1.8345600366592407
2.027244081,0,0,1.4915876388549805,0,0,2.14031982421875
2.02823549,0,0,1.525106430053711,0,0,1.9109998941421509
2.029234843,0,0,1.8387469053268433,0,0,1.5288000106811523
2.030232327,0,0,2.0685901641845703,0,0,1.070159912109375
2.03127268,0,0,2.3798365592956543,0,0,1.758120059967041
2.032261107,0,0,2.7988216876983643,0,0,0.152879998087883
2.033235998,0,0,2.513911724090576,0,0,1.452359914779663
2.034249537,0,0,1.623268723487854,0,0,0.5350799560546875
2.035236891,0,0,0.768538773059845,0,0,0.6879600286483765
2.036231189,0,0,0.9433154463768005,0,0,9.478560447692871
2.037231394,0,0,0.9145850539207458,0,0,-0.2293200045824051
2.038231729,0,0,0.9720458984375,0,0,0.305759996175766
2.039234157,0,0,1.5155296325683594,0,0,0.0764399990439415
2.0402320290000002,0,0,1.6927006244659424,0,0,1.375920057296753
2.041231827,0,0,1.2234370708465576,0,0,1.605239987373352
2.04223281,0,0,1.1444283723831177,0,0,0.611519992351532
2.043251756,0,0,1.721431016921997,0,0,1.6816799640655518
2.044245962,0,0,2.2457611560821533,0,0,1.5288000106811523
2.045233834,0,0,2.205059766769409,0,0,1.605239987373352
2.046234669,0,0,2.7078421115875244,0,0,1.223039984703064
2.047233763,0,0,2.449268341064453,0,0,2.446079969406128
2.048232043,0,0,1.8339585065841675,0,0,1.9109998941421509
2.04935195,0,0,1.601720929145813,0,0,0.9172800183296204
2.050240176,0,0,1.7812861204147339,0,0,0.8408399820327759
2.051232974,0,0,1.6950948238372803,0,0,0.305759996175766
2.052231642,0,0,1.7262194156646729,0,0,9.172800064086914
2.05323207,0,0,1.944091796875,0,0,0.2293200045824051
2.054233831,0,0,1.9321208000183105,0,0,1.223039984703064
2.05523311,0,0,1.1683704853057861,0,0,0.9937199950218201
2.056231686,0,0,1.0845733880996704,0,0,0.9172800183296204
2.057231503,0,0,1.036689281463623,0,0,1.375920057296753
2.05823243,0,0,1.2665326595306396,0,0,1.375920057296753
2.05924621,0,0,1.6759412288665771,0,0,1.1466000080108643
2.060233249,0,0,1.889025092124939,0,0,1.452359914779663
2.06127425,0,0,1.7597382068634033,0,0,0.8408399820327759
2.062239289,0,0,1.8267759084701538,0,0,0.7644000053405762
2.063240402,0,0,2.008735179901123,0,0,0.9172800183296204
2.064318958,0,0,2.2385785579681396,0,0,1.375920057296753
2.065492771,0,0,2.1140801906585693,0,0,1.2994799613952637
2.066295202,0,0,2.183511972427368,0,0,1.2994799613952637
2.067283408,0,0,1.6950948238372803,0,0,1.8345600366592407
2.068272132,0,0,1.2497732639312744,0,0,1.223039984703064
2.069325985,0,0,1.335964560508728,0,0,1.1466000080108643
2.07032182,0,0,1.455674648284912,0,0,1.375920057296753
2.071309229,0,0,1.7549498081207275,0,0,0.2293200045824051
2.072270917,0,0,2.1571757793426514,0,0,0.9172800183296204
2.073265382,0,0,1.86508309841156,0,0,1.223039984703064
2.074420881,0,0,1.414973258972168,0,0,0.8408399820327759
2.07524546,0,0,1.2306196689605713,0,0,0.2293200045824051
2.076273868,0,0,1.137245774269104,0,0,1.070159912109375
2.077280499,0,0,1.403002142906189,0,0,0.9937199950218201
2.07828776,0,0,1.9991583824157715,0,0,0.9937199950218201
2.079282892,0,0,2.33913516998291,0,0,1.8345600366592407
2.080301319,0,0,1.6615760326385498,0,0,2.522519826889038
2.081279043,0,0,1.8052281141281128,0,0,1.375920057296753
2.082281527,0,0,2.0614075660705566,0,0,2.14031982421875
2.08360956,0,0,2.0231003761291504,0,0,1.375920057296753
2.084252123,0,0,2.5067291259765625,0,0,0.5350799560546875
2.085254328,0,0,2.5522189140319824,0,0,0.9937199950218201
2.086305774,0,0,1.7142484188079834,0,0,1.452359914779663
2.087281406,0,0,1.534683346748352,0,0,0.0764399990439415
2.088269778,0,0,1.1444283723831177,0,0,0.152879998087883
2.089274039,0,0,0.7637503147125244,0,0,0.5350799560546875
2.090261189,0,0,1.0749965906143188,0,0,9.478560447692871
2.091292357,0,0,1.0797849893569946,0,0,0.8408399820327759
2.092271359,0,0,1.1468225717544556,0,0,1.9109998941421509
2.093255768,0,0,1.6543933153152466,0,0,0.3822000026702881
2.094283658,0,0,1.9560627937316895,0,0,1.9874399900436401
2.095282253,0,0,2.054224967956543,0,0,2.06387996673584
2.096271255,0,0,2.1380221843719482,0,0,1.2994799613952637
2.097235794,0,0,2.0829553604125977,0,0,1.9109998941421509
2.098234888,0,0,1.4269442558288574,0,0,1.8345600366592407
