Time,AccelX1,AccelY1,AccelZ1,AccelX2,AccelY2,AccelZ2
0.000009648,0,0,1.4700398445129395,0,0,0.6879600286483765
0.001255503,0,0,1.4628572463989258,0,0,0.6879600286483765
0.002223175,0,0,1.4293384552001953,0,0,0.9172800183296204
0.00322481,0,0,1.3742717504501343,0,0,1.1466000080108643
0.004279649,0,0,1.3934253454208374,0,0,0.8408399820327759
0.006021922,0,0,1.3934253454208374,0,0,0.8408399820327759
0.006186105,0,0,1.4987702369689941,0,0,0.5350799560546875
0.007226073,0,0,1.5083470344543457,0,0,0.6879600286483765
0.008222597,0,0,1.5658079385757446,0,0,0.611519992351532
0.009223047,0,0,1.5729905366897583,0,0,0.611519992351532
0.010222386,0,0,1.5418659448623657,0,0,0.8408399820327759
0.011223151,0,0,1.3910311460494995,0,0,0.9172800183296204
0.012222397,0,0,1.436521053314209,0,0,0.8408399820327759
0.013221699,0,0,1.4077905416488647,0,0,0.7644000053405762
0.01422202,0,0,1.4221558570861816,0,0,0.611519992351532
0.015222636,0,0,1.4173674583435059,0,0,0.6879600286483765
0.016222271,0,0,1.3431471586227417,0,0,0.5350799560546875
0.01722387,0,0,1.45806884765625,0,0,0.611519992351532
0.018222875,0,0,1.5658079385757446,0,0,0.8408399820327759
0.019223436,0,0,1.5897499322891235,0,0,0.9172800183296204
0.020221757,0,0,1.4891934394836426,0,0,0.9172800183296204
0.021222133,0,0,1.4939818382263184,0,0,0.8408399820327759
0.022222249,0,0,1.5298948287963867,0,0,0.8408399820327759
0.023222607,0,0,1.4173674583435059,0,0,0.8408399820327759
0.024222186,0,0,1.4676456451416016,0,0,1.070159912109375
0.025222044,0,0,1.434126853942871,0,0,0.5350799560546875
0.026222012,0,0,1.4652514457702637,0,0,0.8408399820327759
0.027229388,0,0,1.4724340438842773,0,0,0.5350799560546875
0.028224968,0,0,1.556231141090393,0,0,0.6879600286483765
0.02922514,0,0,1.5682021379470825,0,0,0.8408399820327759
0.030228719,0,0,1.4460978507995605,0,0,0.611519992351532
0.031232003,0,0,1.4844050407409668,0,0,0.7644000053405762
0.032312915,0,0,1.4700398445129395,0,0,0.8408399820327759
0.033240143,0,0,1.4724340438842773,0,0,0.7644000053405762
0.03422539,0,0,1.403002142906189,0,0,0.9937199950218201
0.035226729,0,0,1.3479355573654175,0,0,1.070159912109375
0.036224234,0,0,1.403002142906189,0,0,0.9172800183296204
0.037224277,0,0,1.3527239561080933,0,0,0.611519992351532
0.038224208,0,0,1.3646949529647827,0,0,0.8408399820327759
0.039225621,0,0,1.4915876388549805,0,0,0.8408399820327759
0.040224238,0,0,1.4772224426269531,0,0,0.7644000053405762
0.041223929,0,0,1.599326729774475,0,0,0.6879600286483765
0.042224212,0,0,1.534683346748352,0,0,0.9172800183296204
0.043225736,0,0,1.5322890281677246,0,0,0.9172800183296204
0.04422426,0,0,1.482010841369629,0,0,0.8408399820327759
0.045223747,0,0,1.37906014919281,0,0,0.6879600286483765
0.046224142,0,0,1.4437036514282227,0,0,0.9172800183296204
0.047225443,0,0,1.414973258972168,0,0,0.5350799560546875
0.048224097,0,0,1.4676456451416016,0,0,0.9172800183296204
0.04922414,0,0,1.4077905416488647,0,0,0.9937199950218201
0.050224071,0,0,1.50355863571167,0,0,0.611519992351532
0.05122541,0,0,1.522712230682373,0,0,0.9172800183296204
0.05222423,0,0,1.482010841369629,0,0,0.3822000026702881
0.053224236,0,0,1.4748282432556152,0,0,0.7644000053405762
0.054224075,0,0,1.5394717454910278,0,0,0.7644000053405762
0.055225451,0,0,1.4724340438842773,0,0,0.8408399820327759
0.056224068,0,0,1.4077905416488647,0,0,0.7644000053405762
0.057224277,0,0,1.4245500564575195,0,0,1.070159912109375
0.058224208,0,0,1.4389152526855469,0,0,0.611519992351532
0.059224288,0,0,1.4173674583435059,0,0,0.611519992351532
0.060224016,0,0,1.3742717504501343,0,0,0.9172800183296204
0.061224169,0,0,1.5203180313110352,0,0,0.7644000053405762
0.062224471,0,0,1.5298948287963867,0,0,0.9172800183296204
0.063225273,0,0,1.4867992401123047,0,0,0.6879600286483765
0.064224408,0,0,1.534683346748352,0,0,0.7644000053405762
0.065231951,0,0,1.4269442558288574,0,0,0.8408399820327759
0.066224808,0,0,1.3934253454208374,0,0,0.5350799560546875
0.06723461,0,0,1.3934253454208374,0,0,0.8408399820327759
0.068226467,0,0,1.3982137441635132,0,0,1.070159912109375
0.069225454,0,0,1.4197616577148438,0,0,0.7644000053405762
0.070224645,0,0,1.3766659498214722,0,0,0.9172800183296204
0.071226299,0,0,1.414973258972168,0,0,0.9937199950218201
0.072224619,0,0,1.5083470344543457,0,0,0.6879600286483765
0.07322481,0,0,1.479616641998291,0,0,0.9172800183296204
0.074224593,0,0,1.4508862495422363,0,0,0.7644000053405762
0.075227451,0,0,1.4293384552001953,0,0,0.9172800183296204
0.076269548,0,0,1.5466543436050415,0,0,0.9937199950218201
0.077767047,0,0,1.4748282432556152,0,0,0.7644000053405762
0.07823193,0,0,1.316810965538025,0,0,0.611519992351532
0.079225732,0,0,1.3646949529647827,0,0,0.9172800183296204
0.080228904,0,0,1.3431471586227417,0,0,0.8408399820327759
0.081224836,0,0,1.3623007535934448,0,0,0.6879600286483765
0.082243212,0,0,1.4460978507995605,0,0,0.7644000053405762
0.083751692,0,0,1.5466543436050415,0,0,1.1466000080108643
0.084244741,0,0,1.4987702369689941,0,0,0.9172800183296204
0.085253654,0,0,1.5418659448623657,0,0,0.5350799560546875
0.086255511,0,0,1.4652514457702637,0,0,0.611519992351532
0.088101969,0,0,1.4652514457702637,0,0,1.223039984703064
0.088267282,0,0,1.4245500564575195,0,0,0.5350799560546875
0.089256454,0,0,1.37906014919281,0,0,0.8408399820327759
0.090684417,0,0,1.4077905416488647,0,0,0.7644000053405762
0.091243169,0,0,1.359906554222107,0,0,0.6879600286483765
0.092289341,0,0,1.3670891523361206,0,0,0.8408399820327759
0.09326942,0,0,1.4891934394836426,0,0,0.7644000053405762
0.094266519,0,0,1.5753847360610962,0,0,0.611519992351532
0.095266043,0,0,1.5394717454910278,0,0,0.9172800183296204
0.096249419,0,0,1.558625340461731,0,0,0.611519992351532
0.097286702,0,0,1.460463047027588,0,0,0.7644000053405762
0.098253874,0,0,1.4844050407409668,0,0,0.9937199950218201
0.099253361,0,0,1.50355863571167,0,0,0.6879600286483765
0.1002672,0,0,1.4532804489135742,0,0,0.9937199950218201
0.101273335,0,0,1.4269442558288574,0,0,0.7644000053405762
0.102289341,0,0,1.3407529592514038,0,0,0.611519992351532
0.103228069,0,0,1.3239935636520386,0,0,0.9937199950218201
0.104224149,0,0,1.5275006294250488,0,0,0.9172800183296204
0.108709442,0,0,1.4963760375976563,0,0,0.8408399820327759
0.108924162,0,0,1.5753847360610962,0,0,0.8408399820327759
0.109091493,0,0,1.5753847360610962,0,0,0.9172800183296204
0.109254417,0,0,1.5753847360610962,0,0,0.9172800183296204
0.109417174,0,0,1.4413094520568848,0,0,1.070159912109375
0.110238293,0,0,1.403002142906189,0,0,0.6879600286483765
0.11123978,0,0,1.316810965538025,0,0,0.7644000053405762
0.11223136,0,0,1.400607943534851,0,0,0.9937199950218201
0.113248995,0,0,1.3910311460494995,0,0,0.6879600286483765
0.11426637,0,0,1.3646949529647827,0,0,0.7644000053405762
0.115227765,0,0,1.4724340438842773,0,0,0.9172800183296204
0.116356121,0,0,1.5155296325683594,0,0,0.9172800183296204
0.117250054,0,0,1.4676456451416016,0,0,0.9937199950218201
0.118233671,0,0,1.50355863571167,0,0,0.5350799560546875
0.119247028,0,0,1.5729905366897583,0,0,0.8408399820327759
0.120223978,0,0,1.5849615335464478,0,0,0.9937199950218201
0.121222132,0,0,1.37906014919281,0,0,0.7644000053405762
0.122222008,0,0,1.3670891523361206,0,0,0.7644000053405762
0.123225236,0,0,1.4389152526855469,0,0,1.070159912109375
0.124230056,0,0,1.3239935636520386,0,0,0.9937199950218201
0.125222488,0,0,1.3215993642807007,0,0,0.9172800183296204
0.126231326,0,0,1.479616641998291,0,0,0.611519992351532
0.127227351,0,0,1.4293384552001953,0,0,0.8408399820327759
0.128222319,0,0,1.460463047027588,0,0,0.9937199950218201
0.129244935,0,0,1.6328455209732056,0,0,0.5350799560546875
0.130224775,0,0,1.656787633895874,0,0,0.6879600286483765
0.131222502,0,0,1.4460978507995605,0,0,0.9172800183296204
0.132222045,0,0,1.403002142906189,0,0,0.8408399820327759
0.133221995,0,0,1.3479355573654175,0,0,0.7644000053405762
0.134222167,0,0,1.3838485479354858,0,0,0.9172800183296204
0.135222099,0,0,1.3862427473068237,0,0,0.9172800183296204
0.136221938,0,0,1.3527239561080933,0,0,0.9172800183296204
0.137222091,0,0,1.414973258972168,0,0,0.7644000053405762
0.138221967,0,0,1.4939818382263184,0,0,0.611519992351532
0.139222065,0,0,1.601720929145813,0,0,0.6879600286483765
0.140221997,0,0,1.501164436340332,0,0,0.8408399820327759
0.141221928,0,0,1.5514427423477173,0,0,0.611519992351532
0.142221915,0,0,1.5753847360610962,0,0,0.9937199950218201
0.143223088,0,0,1.5083470344543457,0,0,0.9172800183296204
0.14422213,0,0,1.460463047027588,0,0,0.7644000053405762
0.145221969,0,0,1.403002142906189,0,0,0.9937199950218201
0.1462219,0,0,1.381454348564148,0,0,1.070159912109375
0.147222388,0,0,1.4221558570861816,0,0,1.070159912109375
0.148221856,0,0,1.50355863571167,0,0,0.8408399820327759
0.149221695,0,0,1.522712230682373,0,0,1.1466000080108643
0.150221793,0,0,1.4197616577148438,0,0,0.8408399820327759
0.151223132,0,0,1.525106430053711,0,0,0.611519992351532
0.15222186,0,0,1.501164436340332,0,0,0.7644000053405762
0.153221254,0,0,1.4987702369689941,0,0,1.1466000080108643
0.154221982,0,0,1.3718775510787964,0,0,0.6879600286483765
0.155222469,0,0,1.4245500564575195,0,0,0.611519992351532
0.156221826,0,0,1.4221558570861816,0,0,1.2994799613952637
0.157221869,0,0,1.3048399686813354,0,0,0.8408399820327759
0.158221875,0,0,1.3527239561080933,0,0,0.7644000053405762
0.159226528,0,0,1.4867992401123047,0,0,1.070159912109375
0.160225034,0,0,1.50355863571167,0,0,0.611519992351532
0.161224706,0,0,1.5059528350830078,0,0,0.7644000053405762
0.162224897,0,0,1.644816517829895,0,0,0.6879600286483765
0.163225106,0,0,1.5418659448623657,0,0,0.5350799560546875
0.164222093,0,0,1.4915876388549805,0,0,1.070159912109375
0.165222487,0,0,1.4508862495422363,0,0,0.7644000053405762
0.166221974,0,0,1.3694833517074585,0,0,0.9937199950218201
0.167237147,0,0,1.434126853942871,0,0,0.9172800183296204
0.168236504,0,0,1.3958195447921753,0,0,0.7644000053405762
0.169264361,0,0,1.3623007535934448,0,0,0.9172800183296204
0.170234848,0,0,1.3862427473068237,0,0,0.7644000053405762
0.171292575,0,0,1.4724340438842773,0,0,0.7644000053405762
0.172261378,0,0,1.5634137392044067,0,0,0.611519992351532
0.173264809,0,0,1.6424223184585571,0,0,0.6879600286483765
0.174262574,0,0,1.6041151285171509,0,0,0.6879600286483765
0.175239969,0,0,1.4987702369689941,0,0,0.7644000053405762
0.176238974,0,0,1.4053963422775269,0,0,0.9172800183296204
0.177239443,0,0,1.3958195447921753,0,0,0.8408399820327759
0.178237911,0,0,1.3958195447921753,0,0,0.9172800183296204
0.179241546,0,0,1.3503297567367554,0,0,0.9172800183296204
0.180258459,0,0,1.3694833517074585,0,0,0.9937199950218201
0.181273742,0,0,1.4293384552001953,0,0,0.9172800183296204
0.182244452,0,0,1.580173134803772,0,0,0.8408399820327759
0.183243254,0,0,1.601720929145813,0,0,0.7644000053405762
0.184239241,0,0,1.5203180313110352,0,0,0.5350799560546875
0.185236209,0,0,1.4700398445129395,0,0,1.070159912109375
0.186236382,0,0,1.5658079385757446,0,0,0.9937199950218201
0.187253109,0,0,1.3958195447921753,0,0,0.8408399820327759
0.188250689,0,0,1.3623007535934448,0,0,0.7644000053405762
0.189238102,0,0,1.3958195447921753,0,0,0.9937199950218201
0.190234885,0,0,1.3263877630233765,0,0,0.6879600286483765
0.191250409,0,0,1.3215993642807007,0,0,0.7644000053405762
0.19222623,0,0,1.4101848602294922,0,0,0.9172800183296204
0.193281901,0,0,1.4987702369689941,0,0,0.6879600286483765
0.194227297,0,0,1.6304513216018677,0,0,0.9172800183296204
0.195229617,0,0,1.5825673341751099,0,0,0.611519992351532
0.196223789,0,0,1.5394717454910278,0,0,0.8408399820327759
0.197224239,0,0,1.4939818382263184,0,0,0.7644000053405762
0.198224245,0,0,1.501164436340332,0,0,0.6879600286483765
0.199225732,0,0,1.3455413579940796,0,0,0.7644000053405762
0.200224348,0,0,1.3862427473068237,0,0,0.5350799560546875
0.201224335,0,0,1.359906554222107,0,0,0.7644000053405762
0.202224063,0,0,1.403002142906189,0,0,1.070159912109375
0.20322555,0,0,1.4915876388549805,0,0,0.8408399820327759
0.204223982,0,0,1.5610195398330688,0,0,0.6879600286483765
0.205224247,0,0,1.525106430053711,0,0,1.070159912109375
0.2062304,0,0,1.4772224426269531,0,0,0.6879600286483765
0.207226924,0,0,1.53707754611969,0,0,0.7644000053405762
0.208224411,0,0,1.5131354331970215,0,0,0.9937199950218201
0.209224102,0,0,1.3982137441635132,0,0,0.8408399820327759
0.210224311,0,0,1.4508862495422363,0,0,0.7644000053405762
0.211224521,0,0,1.4652514457702637,0,0,0.9172800183296204
0.212224026,0,0,1.4317326545715332,0,0,1.1466000080108643
0.213224235,0,0,1.357512354850769,0,0,0.9172800183296204
0.214223796,0,0,1.436521053314209,0,0,1.070159912109375
0.215225783,0,0,1.5394717454910278,0,0,0.6879600286483765
0.216224474,0,0,1.5322890281677246,0,0,0.6879600286483765
0.217223684,0,0,1.5921441316604614,0,0,0.7644000053405762
0.218223671,0,0,1.5897499322891235,0,0,0.9937199950218201
0.219225509,0,0,1.4891934394836426,0,0,1.070159912109375
0.220224145,0,0,1.455674648284912,0,0,0.611519992351532
0.22122415,0,0,1.4101848602294922,0,0,0.8408399820327759
0.222224378,0,0,1.3742717504501343,0,0,0.9172800183296204
0.223225346,0,0,1.3096283674240112,0,0,1.1466000080108643
0.224224204,0,0,1.4460978507995605,0,0,0.9172800183296204
0.225224376,0,0,1.5634137392044067,0,0,0.6879600286483765
0.226224252,0,0,1.5969325304031372,0,0,0.9172800183296204
0.22722548,0,0,1.4748282432556152,0,0,1.2994799613952637
0.228224096,0,0,1.5658079385757446,0,0,0.8408399820327759
0.229224287,0,0,1.5490485429763794,0,0,0.9172800183296204
0.230223996,0,0,1.5107412338256836,0,0,1.070159912109375
0.231225298,0,0,1.460463047027588,0,0,0.611519992351532
0.232224341,0,0,1.3718775510787964,0,0,1.070159912109375
0.233224383,0,0,1.3024457693099976,0,0,0.4586400091648102
0.234223963,0,0,1.3455413579940796,0,0,0.8408399820327759
0.235225228,0,0,1.3527239561080933,0,0,1.223039984703064
0.236228326,0,0,1.4460978507995605,0,0,0.7644000053405762
0.237224554,0,0,1.5179238319396973,0,0,0.6879600286483765
0.238224374,0,0,1.644816517829895,0,0,0.9172800183296204
0.239225324,0,0,1.4987702369689941,0,0,0.5350799560546875
0.240224237,0,0,1.580173134803772,0,0,0.7644000053405762
0.241224076,0,0,1.5155296325683594,0,0,0.9172800183296204
0.242224119,0,0,1.4676456451416016,0,0,0.7644000053405762
0.243225476,0,0,1.3934253454208374,0,0,1.070159912109375
0.244224093,0,0,1.4053963422775269,0,0,0.9172800183296204
0.245224061,0,0,1.357512354850769,0,0,0.7644000053405762
0.246224344,0,0,1.335964560508728,0,0,0.7644000053405762
0.247225332,0,0,1.525106430053711,0,0,0.6879600286483765
0.248224244,0,0,1.6328455209732056,0,0,0.6879600286483765
0.249224102,0,0,1.5610195398330688,0,0,0.9937199950218201
0.25022433,0,0,1.5514427423477173,0,0,0.6879600286483765
0.251225391,0,0,1.5682021379470825,0,0,0.9937199950218201
0.252224285,0,0,1.4484920501708984,0,0,0.9937199950218201
0.253224143,0,0,1.4317326545715332,0,0,0.9172800183296204
0.254224185,0,0,1.37906014919281,0,0,0.9172800183296204
0.255224209,0,0,1.403002142906189,0,0,0.7644000053405762
0.25622403,0,0,1.455674648284912,0,0,0.7644000053405762
0.257250498,0,0,1.3934253454208374,0,0,0.7644000053405762
0.258226226,0,0,1.4939818382263184,0,0,0.8408399820327759
0.259225694,0,0,1.5514427423477173,0,0,0.9937199950218201
0.260224181,0,0,1.5514427423477173,0,0,0.9172800183296204
0.26122402,0,0,1.5466543436050415,0,0,0.5350799560546875
0.262224137,0,0,1.3910311460494995,0,0,0.7644000053405762
0.26322542,0,0,1.4652514457702637,0,0,0.6879600286483765
0.264224222,0,0,1.4508862495422363,0,0,0.7644000053405762
0.265224265,0,0,1.3623007535934448,0,0,0.7644000053405762
0.266224178,0,0,1.4508862495422363,0,0,0.6879600286483765
0.267233109,0,0,1.292868971824646,0,0,0.7644000053405762
0.268225281,0,0,1.3503297567367554,0,0,0.6879600286483765
0.26922425,0,0,1.4748282432556152,0,0,0.611519992351532
0.270224478,0,0,1.5107412338256836,0,0,0.8408399820327759
0.271231187,0,0,1.6160861253738403,0,0,0.7644000053405762
0.272225822,0,0,1.5969325304031372,0,0,0.5350799560546875
0.273224846,0,0,1.6089035272598267,0,0,0.4586400091648102
0.27422487,0,0,1.5729905366897583,0,0,0.7644000053405762
0.275226154,0,0,1.4532804489135742,0,0,0.7644000053405762
0.276227455,0,0,1.3886369466781616,0,0,0.9172800183296204
0.277224868,0,0,1.3670891523361206,0,0,0.8408399820327759
0.278224707,0,0,1.3407529592514038,0,0,0.9172800183296204
0.279224454,0,0,1.314416766166687,0,0,0.8408399820327759
0.280224774,0,0,1.4724340438842773,0,0,0.611519992351532
0.281224631,0,0,1.5322890281677246,0,0,0.7644000053405762
0.282224044,0,0,1.4652514457702637,0,0,0.8408399820327759
0.283224624,0,0,1.5394717454910278,0,0,0.6879600286483765
0.284224592,0,0,1.5298948287963867,0,0,0.5350799560546875
0.28522495,0,0,1.4053963422775269,0,0,1.070159912109375
0.28622427,0,0,1.4173674583435059,0,0,0.9172800183296204
0.287223498,0,0,1.4221558570861816,0,0,0.9937199950218201
0.288222115,0,0,1.4077905416488647,0,0,0.611519992351532
0.28922225,0,0,1.3072341680526733,0,0,0.7644000053405762
0.290222126,0,0,1.280897855758667,0,0,0.9172800183296204
0.291225928,0,0,1.3742717504501343,0,0,0.9172800183296204
0.292224563,0,0,1.4724340438842773,0,0,0.6879600286483765
0.293224568,0,0,1.558625340461731,0,0,0.8408399820327759
0.294224833,0,0,1.534683346748352,0,0,0.5350799560546875
0.295226172,0,0,1.482010841369629,0,0,0.8408399820327759
0.296224863,0,0,1.4652514457702637,0,0,0.8408399820327759
0.297224887,0,0,1.3958195447921753,0,0,0.5350799560546875
0.298224652,0,0,1.3623007535934448,0,0,1.070159912109375
0.299225324,0,0,1.3694833517074585,0,0,0.7644000053405762
0.300222052,0,0,1.2689268589019775,0,0,0.8408399820327759
0.301222168,0,0,1.359906554222107,0,0,1.223039984703064
0.302222081,0,0,1.4077905416488647,0,0,0.8408399820327759
0.303224272,0,0,1.4891934394836426,0,0,0.8408399820327759
0.304221815,0,0,1.6065093278884888,0,0,0.6879600286483765
0.305222209,0,0,1.5729905366897583,0,0,0.5350799560546875
0.306222104,0,0,1.4915876388549805,0,0,0.6879600286483765
0.307225294,0,0,1.3958195447921753,0,0,0.9172800183296204
0.308224652,0,0,1.414973258972168,0,0,0.8408399820327759
0.30924562,0,0,1.4460978507995605,0,0,0.8408399820327759
0.310225829,0,0,1.3742717504501343,0,0,0.5350799560546875
0.311226428,0,0,1.381454348564148,0,0,0.5350799560546875
0.312224637,0,0,1.3670891523361206,0,0,0.9172800183296204
0.313224642,0,0,1.5203180313110352,0,0,0.611519992351532
0.314224555,0,0,1.4437036514282227,0,0,0.8408399820327759
0.315224561,0,0,1.4844050407409668,0,0,0.7644000053405762
0.316222085,0,0,1.4891934394836426,0,0,0.8408399820327759
0.317222091,0,0,1.558625340461731,0,0,0.8408399820327759
0.318222189,0,0,1.45806884765625,0,0,1.1466000080108643
0.319225676,0,0,1.3694833517074585,0,0,0.8408399820327759
0.320224737,0,0,1.3694833517074585,0,0,0.8408399820327759
0.321224428,0,0,1.3694833517074585,0,0,0.8408399820327759
0.322224118,0,0,1.3120225667953491,0,0,0.6879600286483765
0.323225939,0,0,1.403002142906189,0,0,1.223039984703064
0.324224426,0,0,1.5107412338256836,0,0,0.611519992351532
0.325224135,0,0,1.6376339197158813,0,0,0.6879600286483765
0.326224048,0,0,1.5634137392044067,0,0,0.6879600286483765
0.327225831,0,0,1.5298948287963867,0,0,0.8408399820327759
0.328224337,0,0,1.5059528350830078,0,0,0.7644000053405762
0.329224527,0,0,1.4389152526855469,0,0,1.1466000080108643
0.330224663,0,0,1.482010841369629,0,0,0.8408399820327759
0.331225502,0,0,1.3910311460494995,0,0,0.7644000053405762
0.332230766,0,0,1.4269442558288574,0,0,0.8408399820327759
0.333683414,0,0,1.3694833517074585,0,0,0.7644000053405762
0.334228203,0,0,1.3742717504501343,0,0,0.9172800183296204
0.335230598,0,0,1.4700398445129395,0,0,0.8408399820327759
0.336225029,0,0,1.5059528350830078,0,0,0.9937199950218201
0.337224498,0,0,1.5849615335464478,0,0,0.8408399820327759
0.338227985,0,0,1.5275006294250488,0,0,0.6879600286483765
0.339243138,0,0,1.482010841369629,0,0,0.6879600286483765
0.340225477,0,0,1.50355863571167,0,0,0.8408399820327759
0.341224335,0,0,1.4221558570861816,0,0,0.6879600286483765
0.34222447,0,0,1.3934253454208374,0,0,0.7644000053405762
0.343225976,0,0,1.4939818382263184,0,0,0.7644000053405762
0.344224333,0,0,1.4484920501708984,0,0,0.9937199950218201
0.345224746,0,0,1.3192051649093628,0,0,0.6879600286483765
0.346224714,0,0,1.4891934394836426,0,0,0.8408399820327759
0.347224146,0,0,1.5514427423477173,0,0,0.611519992351532
0.348221985,0,0,1.5610195398330688,0,0,0.6879600286483765
0.349222027,0,0,1.5418659448623657,0,0,0.611519992351532
0.350222181,0,0,1.4652514457702637,0,0,0.6879600286483765
0.351225446,0,0,1.4987702369689941,0,0,0.9172800183296204
0.352224063,0,0,1.41257905960083,0,0,0.9172800183296204
0.353225031,0,0,1.4197616577148438,0,0,0.6879600286483765
0.354224648,0,0,1.359906554222107,0,0,0.611519992351532
0.35522519,0,0,1.37906014919281,0,0,0.9172800183296204
0.35622414,0,0,1.400607943534851,0,0,0.8408399820327759
0.35722409,0,0,1.4652514457702637,0,0,0.8408399820327759
0.358223874,0,0,1.5466543436050415,0,0,0.9172800183296204
0.359225324,0,0,1.5969325304031372,0,0,1.070159912109375
0.360224014,0,0,1.53707754611969,0,0,0.5350799560546875
0.361223909,0,0,1.5298948287963867,0,0,0.6879600286483765
0.362224137,0,0,1.414973258972168,0,0,0.8408399820327759
0.363225013,0,0,1.4053963422775269,0,0,0.9172800183296204
0.36422387,0,0,1.4389152526855469,0,0,0.7644000053405762
0.365223505,0,0,1.338358759880066,0,0,0.7644000053405762
0.366224159,0,0,1.3263877630233765,0,0,0.7644000053405762
0.367232275,0,0,1.455674648284912,0,0,0.611519992351532
0.368224892,0,0,1.50355863571167,0,0,0.7644000053405762
0.369223787,0,0,1.5514427423477173,0,0,0.5350799560546875
0.370223885,0,0,1.599326729774475,0,0,1.1466000080108643
0.371225316,0,0,1.5705963373184204,0,0,0.6879600286483765
0.372224155,0,0,1.5897499322891235,0,0,0.7644000053405762
0.37322405,0,0,1.4700398445129395,0,0,1.1466000080108643
0.374224166,0,0,1.37906014919281,0,0,0.8408399820327759
0.37522519,0,0,1.3982137441635132,0,0,0.9172800183296204
0.376224177,0,0,1.359906554222107,0,0,0.9172800183296204
0.377224294,0,0,1.3096283674240112,0,0,0.7644000053405762
0.378224448,0,0,1.359906554222107,0,0,0.8408399820327759
0.37922412,0,0,1.4724340438842773,0,0,0.7644000053405762
0.380224107,0,0,1.5729905366897583,0,0,1.070159912109375
0.381224131,0,0,1.5490485429763794,0,0,0.9172800183296204
0.382224044,0,0,1.460463047027588,0,0,0.611519992351532
0.383225457,0,0,1.4772224426269531,0,0,0.8408399820327759
0.384224351,0,0,1.4269442558288574,0,0,1.1466000080108643
0.385224079,0,0,1.434126853942871,0,0,0.7644000053405762
0.386224011,0,0,1.4389152526855469,0,0,0.9172800183296204
0.387225053,0,0,1.3886369466781616,0,0,0.9937199950218201
0.388224114,0,0,1.3934253454208374,0,0,0.6879600286483765
0.389224398,0,0,1.3766659498214722,0,0,0.9937199950218201
0.390223681,0,0,1.5682021379470825,0,0,0.6879600286483765
0.391224853,0,0,1.580173134803772,0,0,0.8408399820327759
0.39222397,0,0,1.5179238319396973,0,0,1.223039984703064
0.393224253,0,0,1.50355863571167,0,0,0.5350799560546875
0.394224166,0,0,1.5682021379470825,0,0,0.8408399820327759
0.395225209,0,0,1.525106430053711,0,0,0.8408399820327759
0.396224029,0,0,1.3455413579940796,0,0,0.7644000053405762
0.397224072,0,0,1.479616641998291,0,0,0.9172800183296204
0.398224188,0,0,1.4484920501708984,0,0,0.9937199950218201
0.399225231,0,0,1.460463047027588,0,0,0.7644000053405762
0.400224292,0,0,1.3838485479354858,0,0,0.9172800183296204
0.401224094,0,0,1.4939818382263184,0,0,0.7644000053405762
0.402322413,0,0,1.4748282432556152,0,0,0.7644000053405762
0.403226346,0,0,1.4772224426269531,0,0,0.8408399820327759
0.40422437,0,0,1.5131354331970215,0,0,0.5350799560546875
0.405223912,0,0,1.5131354331970215,0,0,0.611519992351532
0.40622414,0,0,1.455674648284912,0,0,0.9172800183296204
0.40722559,0,0,1.3982137441635132,0,0,0.7644000053405762
0.408223966,0,0,1.4413094520568848,0,0,0.8408399820327759
0.409224194,0,0,1.4173674583435059,0,0,0.7644000053405762
0.410223996,0,0,1.292868971824646,0,0,1.070159912109375
0.411225316,0,0,1.335964560508728,0,0,1.070159912109375
0.412223785,0,0,1.4772224426269531,0,0,1.070159912109375
0.413224364,0,0,1.4987702369689941,0,0,0.9172800183296204
0.41422411,0,0,1.4891934394836426,0,0,0.7644000053405762
0.415224153,0,0,1.5466543436050415,0,0,0.7644000053405762
0.416231658,0,0,1.558625340461731,0,0,0.8408399820327759
0.41722472,0,0,1.4700398445129395,0,0,0.9937199950218201
0.418224188,0,0,1.3694833517074585,0,0,0.8408399820327759
0.419225249,0,0,1.3551181554794312,0,0,1.1466000080108643
0.420224107,0,0,1.3838485479354858,0,0,0.7644000053405762
0.421224186,0,0,1.4077905416488647,0,0,0.6879600286483765
0.422224136,0,0,1.4772224426269531,0,0,0.8408399820327759
0.423225364,0,0,1.4628572463989258,0,0,0.6879600286483765
0.424225518,0,0,1.501164436340332,0,0,0.7644000053405762
0.425258967,0,0,1.5729905366897583,0,0,0.9172800183296204
0.426246325,0,0,1.5107412338256836,0,0,0.611519992351532
0.427230738,0,0,1.5179238319396973,0,0,0.8408399820327759
0.428224059,0,0,1.455674648284912,0,0,0.9172800183296204
0.429224009,0,0,1.3670891523361206,0,0,0.611519992351532
0.430223607,0,0,1.460463047027588,0,0,0.5350799560546875
0.431225334,0,0,1.4173674583435059,0,0,0.8408399820327759
0.432224081,0,0,1.37906014919281,0,0,0.611519992351532
0.433223883,0,0,1.3742717504501343,0,0,0.9172800183296204
0.434223796,0,0,1.45806884765625,0,0,0.8408399820327759
0.435225394,0,0,1.577778935432434,0,0,0.9937199950218201
0.43622401,0,0,1.6927006244659424,0,0,0.7644000053405762
0.437223905,0,0,1.599326729774475,0,0,0.9172800183296204
0.438224077,0,0,1.4772224426269531,0,0,0.6879600286483765
0.43922549,0,0,1.381454348564148,0,0,0.611519992351532
0.440224144,0,0,1.3862427473068237,0,0,0.7644000053405762
0.441224205,0,0,1.460463047027588,0,0,1.1466000080108643
0.44222397,0,0,1.403002142906189,0,0,0.9937199950218201
0.443225345,0,0,1.4101848602294922,0,0,0.8408399820327759
0.444224184,0,0,1.3910311460494995,0,0,0.9172800183296204
0.445224134,0,0,1.5179238319396973,0,0,0.9172800183296204
0.446224103,0,0,1.4652514457702637,0,0,0.7644000053405762
0.447225294,0,0,1.580173134803772,0,0,0.611519992351532
0.448224133,0,0,1.522712230682373,0,0,0.611519992351532
0.449224027,0,0,1.5466543436050415,0,0,0.8408399820327759
0.450223884,0,0,1.5682021379470825,0,0,0.9937199950218201
0.451225131,0,0,1.434126853942871,0,0,0.8408399820327759
0.452223895,0,0,1.3694833517074585,0,0,1.070159912109375
0.453224234,0,0,1.3287819623947144,0,0,1.070159912109375
0.454224018,0,0,1.3000515699386597,0,0,1.070159912109375
0.455224894,0,0,1.3527239561080933,0,0,0.9172800183296204
0.456224121,0,0,1.4628572463989258,0,0,0.611519992351532
0.457224016,0,0,1.53707754611969,0,0,0.6879600286483765
0.458223781,0,0,1.4867992401123047,0,0,0.9172800183296204
0.459225101,0,0,1.5107412338256836,0,0,0.5350799560546875
0.460223977,0,0,1.5131354331970215,0,0,0.7644000053405762
0.461224149,0,0,1.4700398445129395,0,0,0.9172800183296204
0.462224081,0,0,1.335964560508728,0,0,0.9172800183296204
0.463224975,0,0,1.4077905416488647,0,0,0.8408399820327759
0.464224092,0,0,1.381454348564148,0,0,0.9172800183296204
0.465224171,0,0,1.278503656387329,0,0,0.9172800183296204
0.466224066,0,0,1.3479355573654175,0,0,0.6879600286483765
0.467237404,0,0,1.4484920501708984,0,0,0.611519992351532
0.46822591,0,0,1.5298948287963867,0,0,0.8408399820327759
0.46922486,0,0,1.5107412338256836,0,0,0.8408399820327759
0.470224625,0,0,1.5634137392044067,0,0,0.9172800183296204
0.471226186,0,0,1.5442601442337036,0,0,0.7644000053405762
0.472224544,0,0,1.479616641998291,0,0,0.9172800183296204
0.473224086,0,0,1.4221558570861816,0,0,1.223039984703064
0.474224647,0,0,1.4245500564575195,0,0,0.8408399820327759
0.475226856,0,0,1.3479355573654175,0,0,0.9937199950218201
0.476225103,0,0,1.338358759880066,0,0,0.6879600286483765
0.477224849,0,0,1.3048399686813354,0,0,1.223039984703064
0.478224706,0,0,1.4389152526855469,0,0,0.6879600286483765
0.479224656,0,0,1.5753847360610962,0,0,0.8408399820327759
0.480246014,0,0,1.5682021379470825,0,0,0.8408399820327759
0.481225779,0,0,1.5179238319396973,0,0,0.6879600286483765
0.482224729,0,0,1.5322890281677246,0,0,0.9172800183296204
0.483224568,0,0,1.4484920501708984,0,0,0.7644000053405762
0.48422474,0,0,1.357512354850769,0,0,0.7644000053405762
0.485224801,0,0,1.3934253454208374,0,0,1.070159912109375
0.486224658,0,0,1.3694833517074585,0,0,0.7644000053405762
0.487224682,0,0,1.381454348564148,0,0,0.9172800183296204
0.488224595,0,0,1.4724340438842773,0,0,0.8408399820327759
0.489224379,0,0,1.4772224426269531,0,0,0.6879600286483765
0.490224718,0,0,1.5083470344543457,0,0,0.611519992351532
0.491224612,0,0,1.5203180313110352,0,0,0.7644000053405762
0.492224729,0,0,1.479616641998291,0,0,0.8408399820327759
0.493224679,0,0,1.4197616577148438,0,0,0.9172800183296204
0.494224573,0,0,1.41257905960083,0,0,0.8408399820327759
0.495225838,0,0,1.3838485479354858,0,0,0.9172800183296204
0.496224658,0,0,1.3646949529647827,0,0,0.8408399820327759
0.497224553,0,0,1.278503656387329,0,0,0.7644000053405762
0.498224077,0,0,1.335964560508728,0,0,0.611519992351532
0.499225619,0,0,1.4413094520568848,0,0,1.1466000080108643
0.500224717,0,0,1.4628572463989258,0,0,0.7644000053405762
0.501224816,0,0,1.5610195398330688,0,0,0.7644000053405762
0.502224506,0,0,1.5729905366897583,0,0,0.9172800183296204
0.503225771,0,0,1.5538369417190552,0,0,0.7644000053405762
0.504224629,0,0,1.4915876388549805,0,0,0.9937199950218201
0.505224616,0,0,1.4652514457702637,0,0,0.7644000053405762
0.506228584,0,0,1.4269442558288574,0,0,0.6879600286483765
0.507226164,0,0,1.4317326545715332,0,0,0.9937199950218201
0.508224484,0,0,1.3694833517074585,0,0,0.8408399820327759
0.509224804,0,0,1.357512354850769,0,0,0.7644000053405762
0.51022444,0,0,1.4293384552001953,0,0,0.611519992351532
0.511225871,0,0,1.482010841369629,0,0,0.9172800183296204
0.512224562,0,0,1.556231141090393,0,0,0.6879600286483765
0.513255178,0,0,1.6184803247451782,0,0,1.070159912109375
0.514227221,0,0,1.5083470344543457,0,0,0.5350799560546875
0.515225912,0,0,1.4915876388549805,0,0,0.8408399820327759
0.516224658,0,0,1.4508862495422363,0,0,0.611519992351532
0.517224701,0,0,1.3503297567367554,0,0,1.070159912109375
0.518224632,0,0,1.3503297567367554,0,0,1.070159912109375
0.519225767,0,0,1.3431471586227417,0,0,0.7644000053405762
0.520224125,0,0,1.3479355573654175,0,0,0.8408399820327759
0.521224871,0,0,1.4245500564575195,0,0,0.9172800183296204
0.522224877,0,0,1.5059528350830078,0,0,0.611519992351532
0.523225549,0,0,1.4987702369689941,0,0,0.7644000053405762
0.524224703,0,0,1.5682021379470825,0,0,0.9172800183296204
0.525224745,0,0,1.5298948287963867,0,0,0.9937199950218201
0.526224566,0,0,1.5873557329177856,0,0,0.6879600286483765
0.527225571,0,0,1.522712230682373,0,0,0.8408399820327759
0.528224595,0,0,1.414973258972168,0,0,0.5350799560546875
0.529224675,0,0,1.4173674583435059,0,0,0.8408399820327759
0.53022468,0,0,1.3431471586227417,0,0,0.611519992351532
0.53122563,0,0,1.4053963422775269,0,0,0.8408399820327759
0.53222484,0,0,1.3934253454208374,0,0,0.7644000053405762
0.533224493,0,0,1.5753847360610962,0,0,0.9172800183296204
0.534224554,0,0,1.5682021379470825,0,0,0.8408399820327759
0.535224523,0,0,1.558625340461731,0,0,0.7644000053405762
0.536221917,0,0,1.5634137392044067,0,0,0.611519992351532
0.537221923,0,0,1.5921441316604614,0,0,0.7644000053405762
0.538221669,0,0,1.4700398445129395,0,0,0.7644000053405762
0.539226415,0,0,1.4101848602294922,0,0,0.9172800183296204
0.540224717,0,0,1.3623007535934448,0,0,0.9937199950218201
0.541224038,0,0,1.292868971824646,0,0,0.7644000053405762
0.542224395,0,0,1.3431471586227417,0,0,0.7644000053405762
0.543223234,0,0,1.3215993642807007,0,0,0.9172800183296204
0.544222388,0,0,1.5442601442337036,0,0,0.6879600286483765
0.545222412,0,0,1.5682021379470825,0,0,0.8408399820327759
0.54622201,0,0,1.5610195398330688,0,0,0.6879600286483765
0.547222552,0,0,1.4963760375976563,0,0,0.7644000053405762
0.548222132,0,0,1.434126853942871,0,0,0.9172800183296204
0.54922199,0,0,1.5155296325683594,0,0,0.8408399820327759
0.550221902,0,0,1.4173674583435059,0,0,0.6879600286483765
0.551224982,0,0,1.4053963422775269,0,0,0.9172800183296204
0.552295135,0,0,1.414973258972168,0,0,0.6879600286483765
0.553225623,0,0,1.4389152526855469,0,0,0.6879600286483765
0.554224165,0,0,1.41257905960083,0,0,0.8408399820327759
0.555224189,0,0,1.436521053314209,0,0,0.9172800183296204
0.556224306,0,0,1.4748282432556152,0,0,0.7644000053405762
0.557224256,0,0,1.5418659448623657,0,0,0.7644000053405762
0.558224373,0,0,1.5945383310317993,0,0,0.6879600286483765
0.559224212,0,0,1.558625340461731,0,0,0.9172800183296204
0.560224051,0,0,1.4652514457702637,0,0,1.1466000080108643
0.561224278,0,0,1.4724340438842773,0,0,0.9172800183296204
0.562224321,0,0,1.4101848602294922,0,0,0.7644000053405762
0.563225623,0,0,1.3335703611373901,0,0,0.4586400091648102
0.564224276,0,0,1.2761094570159912,0,0,0.6879600286483765
0.565223986,0,0,1.3766659498214722,0,0,1.070159912109375
0.566224306,0,0,1.5705963373184204,0,0,0.7644000053405762
0.567233682,0,0,1.4844050407409668,0,0,0.611519992351532
0.568225169,0,0,1.5418659448623657,0,0,1.070159912109375
0.569224545,0,0,1.580173134803772,0,0,0.9172800183296204
0.570224125,0,0,1.4748282432556152,0,0,0.8408399820327759
0.571225501,0,0,1.4317326545715332,0,0,0.7644000053405762
0.572224284,0,0,1.3646949529647827,0,0,0.6879600286483765
0.573224049,0,0,1.414973258972168,0,0,0.7644000053405762
0.574224221,0,0,1.335964560508728,0,0,0.611519992351532
0.57522506,0,0,1.482010841369629,0,0,0.7644000053405762
0.576224269,0,0,1.4508862495422363,0,0,0.5350799560546875
0.577224071,0,0,1.5514427423477173,0,0,0.6879600286483765
0.578224225,0,0,1.577778935432434,0,0,0.8408399820327759
0.579225415,0,0,1.656787633895874,0,0,1.070159912109375
0.580224106,0,0,1.6160861253738403,0,0,0.6879600286483765
0.581224019,0,0,1.5131354331970215,0,0,0.8408399820327759
0.582224173,0,0,1.4987702369689941,0,0,0.8408399820327759
0.583234715,0,0,1.3311761617660522,0,0,0.8408399820327759
0.584692807,0,0,1.4676456451416016,0,0,1.070159912109375
0.585228023,0,0,1.4484920501708984,0,0,0.611519992351532
0.586224732,0,0,1.3934253454208374,0,0,0.6879600286483765
0.587229774,0,0,1.45806884765625,0,0,0.9172800183296204
0.588224243,0,0,1.45806884765625,0,0,0.8408399820327759
0.589224323,0,0,1.4628572463989258,0,0,0.8408399820327759
0.59022755,0,0,1.5131354331970215,0,0,0.9172800183296204
0.591225741,0,0,1.5155296325683594,0,0,0.7644000053405762
0.592224099,0,0,1.5825673341751099,0,0,0.7644000053405762
0.593224141,0,0,1.5107412338256836,0,0,0.7644000053405762
0.594224239,0,0,1.4053963422775269,0,0,0.9172800183296204
0.595243448,0,0,1.381454348564148,0,0,1.070159912109375
0.596225213,0,0,1.3862427473068237,0,0,0.6879600286483765
0.597224182,0,0,1.3910311460494995,0,0,0.9172800183296204
0.599067473,0,0,1.4173674583435059,0,0,0.9172800183296204
0.599259785,0,0,1.5155296325683594,0,0,0.9937199950218201
0.600236643,0,0,1.556231141090393,0,0,0.611519992351532
0.601246963,0,0,1.6112977266311646,0,0,0.8408399820327759
0.60222658,0,0,1.6184803247451782,0,0,0.7644000053405762
0.603231604,0,0,1.580173134803772,0,0,0.6879600286483765
0.604225721,0,0,1.4772224426269531,0,0,0.9937199950218201
0.60522556,0,0,1.41257905960083,0,0,0.8408399820327759
0.606225639,0,0,1.3958195447921753,0,0,0.9172800183296204
0.607227404,0,0,1.3670891523361206,0,0,0.611519992351532
0.608225447,0,0,1.4317326545715332,0,0,0.6879600286483765
0.609225434,0,0,1.434126853942871,0,0,0.9172800183296204
0.610225217,0,0,1.4987702369689941,0,0,0.7644000053405762
0.611226926,0,0,1.482010841369629,0,0,0.7644000053405762
0.612225432,0,0,1.4652514457702637,0,0,0.8408399820327759
0.613225289,0,0,1.4772224426269531,0,0,0.8408399820327759
0.614225628,0,0,1.5394717454910278,0,0,0.9937199950218201
0.6152268,0,0,1.5514427423477173,0,0,0.8408399820327759
0.616225491,0,0,1.5083470344543457,0,0,0.611519992351532
0.617225515,0,0,1.4317326545715332,0,0,1.1466000080108643
0.618225502,0,0,1.3048399686813354,0,0,0.611519992351532
0.619226767,0,0,1.338358759880066,0,0,0.6879600286483765
0.620225384,0,0,1.400607943534851,0,0,0.6879600286483765
0.621225185,0,0,1.4628572463989258,0,0,0.7644000053405762
0.622225376,0,0,1.5873557329177856,0,0,0.6879600286483765
0.623226623,0,0,1.6615760326385498,0,0,0.9937199950218201
0.624225535,0,0,1.6112977266311646,0,0,0.8408399820327759
0.625225485,0,0,1.5179238319396973,0,0,0.7644000053405762
0.626225361,0,0,1.4197616577148438,0,0,1.070159912109375
0.627226571,0,0,1.4077905416488647,0,0,1.070159912109375
0.628225261,0,0,1.455674648284912,0,0,0.8408399820327759
0.629225471,0,0,1.3646949529647827,0,0,0.611519992351532
0.630225402,0,0,1.2880805730819702,0,0,0.9172800183296204
0.631226352,0,0,1.3192051649093628,0,0,0.9172800183296204
0.632225061,0,0,1.482010841369629,0,0,0.6879600286483765
0.633225289,0,0,1.5083470344543457,0,0,0.9172800183296204
0.634225369,0,0,1.5203180313110352,0,0,0.6879600286483765
0.635226652,0,0,1.5059528350830078,0,0,0.8408399820327759
0.636225269,0,0,1.479616641998291,0,0,0.6879600286483765
0.637225422,0,0,1.4413094520568848,0,0,0.8408399820327759
0.638225261,0,0,1.3527239561080933,0,0,0.8408399820327759
0.639225452,0,0,1.460463047027588,0,0,1.070159912109375
0.640225643,0,0,1.4628572463989258,0,0,0.5350799560546875
0.641225334,0,0,1.4460978507995605,0,0,0.9937199950218201
0.642225506,0,0,1.4173674583435059,0,0,0.6879600286483765
0.643226845,0,0,1.5083470344543457,0,0,0.6879600286483765
0.644225535,0,0,1.5490485429763794,0,0,0.8408399820327759
0.645225189,0,0,1.525106430053711,0,0,0.9172800183296204
0.64622538,0,0,1.53707754611969,0,0,0.6879600286483765
0.647226663,0,0,1.5179238319396973,0,0,0.9937199950218201
0.648225169,0,0,1.460463047027588,0,0,0.8408399820327759
0.649225489,0,0,1.403002142906189,0,0,0.8408399820327759
0.650225587,0,0,1.3910311460494995,0,0,0.9937199950218201
0.651226574,0,0,1.3287819623947144,0,0,1.070159912109375
0.652225413,0,0,1.3192051649093628,0,0,0.8408399820327759
0.65322503,0,0,1.381454348564148,0,0,0.9937199950218201
0.654225424,0,0,1.4915876388549805,0,0,0.7644000053405762
0.655287744,0,0,1.5275006294250488,0,0,0.6879600286483765
0.656233343,0,0,1.5107412338256836,0,0,0.8408399820327759
0.657226145,0,0,1.5298948287963867,0,0,0.6879600286483765
0.658225595,0,0,1.4437036514282227,0,0,0.8408399820327759
0.659226878,0,0,1.4460978507995605,0,0,0.611519992351532
0.660225532,0,0,1.3958195447921753,0,0,0.611519992351532
0.6612255,0,0,1.4939818382263184,0,0,1.070159912109375
0.66222545,0,0,1.4460978507995605,0,0,0.7644000053405762
0.663226808,0,0,1.434126853942871,0,0,0.9172800183296204
0.664225387,0,0,1.3646949529647827,0,0,0.7644000053405762
0.665225374,0,0,1.4484920501708984,0,0,0.6879600286483765
0.666225343,0,0,1.5298948287963867,0,0,1.070159912109375
0.66722657,0,0,1.6041151285171509,0,0,0.8408399820327759
0.668225391,0,0,1.5705963373184204,0,0,0.6879600286483765
0.669225433,0,0,1.4772224426269531,0,0,0.8408399820327759
0.670225124,0,0,1.4221558570861816,0,0,0.9937199950218201
0.671226519,0,0,1.4053963422775269,0,0,0.611519992351532
0.672225265,0,0,1.455674648284912,0,0,0.7644000053405762
0.673225437,0,0,1.400607943534851,0,0,0.9937199950218201
0.674225295,0,0,1.3862427473068237,0,0,0.9172800183296204
0.675439816,0,0,1.4724340438842773,0,0,0.9172800183296204
0.676225195,0,0,1.522712230682373,0,0,0.611519992351532
0.677232811,0,0,1.5059528350830078,0,0,0.4586400091648102
0.678225224,0,0,1.5705963373184204,0,0,0.7644000053405762
0.679224322,0,0,1.4748282432556152,0,0,0.611519992351532
0.680223402,0,0,1.4508862495422363,0,0,0.9172800183296204
0.681223352,0,0,1.4173674583435059,0,0,0.7644000053405762
0.682223172,0,0,1.4460978507995605,0,0,0.9172800183296204
0.683223863,0,0,1.436521053314209,0,0,1.070159912109375
0.684223257,0,0,1.290474772453308,0,0,0.6879600286483765
0.68522317,0,0,1.3718775510787964,0,0,0.8408399820327759
0.686223194,0,0,1.3311761617660522,0,0,0.8408399820327759
0.68722433,0,0,1.4700398445129395,0,0,0.9172800183296204
0.688223594,0,0,1.534683346748352,0,0,0.8408399820327759
0.689223322,0,0,1.5107412338256836,0,0,1.452359914779663
0.690223161,0,0,1.4987702369689941,0,0,0.3822000026702881
0.691226685,0,0,1.6328455209732056,0,0,0.7644000053405762
0.692226228,0,0,1.4963760375976563,0,0,0.7644000053405762
0.693225659,0,0,1.4987702369689941,0,0,0.9172800183296204
0.694226091,0,0,1.4293384552001953,0,0,0.8408399820327759
0.695225689,0,0,1.3000515699386597,0,0,0.6879600286483765
0.696223157,0,0,1.4173674583435059,0,0,0.7644000053405762
0.697223644,0,0,1.4389152526855469,0,0,0.9937199950218201
0.69822328,0,0,1.4915876388549805,0,0,0.5350799560546875
0.699228637,0,0,1.5394717454910278,0,0,0.7644000053405762
0.700225587,0,0,1.53707754611969,0,0,0.9172800183296204
0.701225463,0,0,1.455674648284912,0,0,0.611519992351532
0.702225302,0,0,1.5634137392044067,0,0,0.7644000053405762
0.703226789,0,0,1.4700398445129395,0,0,0.6879600286483765
0.704619919,0,0,1.37906014919281,0,0,0.9172800183296204
0.705229578,0,0,1.403002142906189,0,0,0.9172800183296204
0.706226213,0,0,1.3431471586227417,0,0,0.8408399820327759
0.707229459,0,0,1.3718775510787964,0,0,0.5350799560546875
0.708225557,0,0,1.3742717504501343,0,0,0.6879600286483765
0.709225415,0,0,1.4245500564575195,0,0,0.9172800183296204
0.710225309,0,0,1.5418659448623657,0,0,0.3822000026702881
0.711226759,0,0,1.5490485429763794,0,0,0.7644000053405762
0.71222882,0,0,1.525106430053711,0,0,0.4586400091648102
0.713227715,0,0,1.4987702369689941,0,0,0.6879600286483765
0.714269535,0,0,1.3958195447921753,0,0,0.9172800183296204
0.715235429,0,0,1.3742717504501343,0,0,0.6879600286483765
0.716226602,0,0,1.359906554222107,0,0,0.9937199950218201
0.717225922,0,0,1.3431471586227417,0,0,0.7644000053405762
0.718225113,0,0,1.335964560508728,0,0,1.070159912109375
0.719227618,0,0,1.259350061416626,0,0,1.070159912109375
0.720225439,0,0,1.316810965538025,0,0,0.6879600286483765
0.721225352,0,0,1.4197616577148438,0,0,0.9172800183296204
0.722225191,0,0,1.414973258972168,0,0,1.070159912109375
0.723226529,0,0,1.4867992401123047,0,0,0.7644000053405762
0.724225424,0,0,1.482010841369629,0,0,0.7644000053405762
0.725225226,0,0,1.4269442558288574,0,0,1.070159912109375
0.726229028,0,0,1.3910311460494995,0,0,0.9937199950218201
0.727226737,0,0,1.3551181554794312,0,0,0.9172800183296204
0.728225317,0,0,1.3455413579940796,0,0,0.9937199950218201
0.729225285,0,0,1.359906554222107,0,0,0.9172800183296204
0.730225235,0,0,1.3670891523361206,0,0,0.9172800183296204
0.731226574,0,0,1.434126853942871,0,0,0.9172800183296204
0.732225542,0,0,1.5203180313110352,0,0,0.5350799560546875
0.733225307,0,0,1.5490485429763794,0,0,0.9172800183296204
0.73422522,0,0,1.522712230682373,0,0,0.8408399820327759
0.735226763,0,0,1.5322890281677246,0,0,0.8408399820327759
0.73624175,0,0,1.5107412338256836,0,0,1.1466000080108643
0.737227089,0,0,1.4317326545715332,0,0,0.8408399820327759
0.73822552,0,0,1.4867992401123047,0,0,1.1466000080108643
0.739226507,0,0,1.4173674583435059,0,0,0.611519992351532
0.740224883,0,0,1.3527239561080933,0,0,0.9172800183296204
0.741225389,0,0,1.414973258972168,0,0,0.8408399820327759
0.742225394,0,0,1.5179238319396973,0,0,0.611519992351532
0.743226585,0,0,1.5490485429763794,0,0,0.9172800183296204
0.744225202,0,0,1.5059528350830078,0,0,0.6879600286483765
0.745225374,0,0,1.4963760375976563,0,0,0.611519992351532
0.74622525,0,0,1.556231141090393,0,0,0.611519992351532
0.747226144,0,0,1.436521053314209,0,0,0.9937199950218201
0.748225242,0,0,1.3862427473068237,0,0,0.7644000053405762
0.749225063,0,0,1.3766659498214722,0,0,0.8408399820327759
0.750225457,0,0,1.335964560508728,0,0,0.9172800183296204
0.751226722,0,0,1.335964560508728,0,0,0.9172800183296204
0.752225376,0,0,1.3958195447921753,0,0,0.8408399820327759
0.753225363,0,0,1.4532804489135742,0,0,0.7644000053405762
0.754225461,0,0,1.5131354331970215,0,0,0.9172800183296204
0.755226763,0,0,1.50355863571167,0,0,0.7644000053405762
0.75622549,0,0,1.5275006294250488,0,0,0.8408399820327759
0.757225218,0,0,1.5131354331970215,0,0,1.070159912109375
0.758225187,0,0,1.414973258972168,0,0,0.9937199950218201
0.759226563,0,0,1.3838485479354858,0,0,0.6879600286483765
0.760225476,0,0,1.436521053314209,0,0,0.9937199950218201
0.761225203,0,0,1.3766659498214722,0,0,0.6879600286483765
0.762225579,0,0,1.3455413579940796,0,0,0.611519992351532
0.763226511,0,0,1.3862427473068237,0,0,0.611519992351532
0.764225294,0,0,1.482010841369629,0,0,0.7644000053405762
0.765231596,0,0,1.4867992401123047,0,0,0.9172800183296204
0.766225898,0,0,1.4844050407409668,0,0,0.9937199950218201
0.767227848,0,0,1.5083470344543457,0,0,0.6879600286483765
0.768225483,0,0,1.5466543436050415,0,0,0.8408399820327759
0.769225359,0,0,1.4772224426269531,0,0,0.9172800183296204
0.770225346,0,0,1.479616641998291,0,0,0.5350799560546875
0.771226759,0,0,1.45806884765625,0,0,0.9937199950218201
0.772225376,0,0,1.357512354850769,0,0,0.611519992351532
0.773225418,0,0,1.3431471586227417,0,0,0.9172800183296204
0.774225368,0,0,1.335964560508728,0,0,0.9172800183296204
0.775226614,0,0,1.4676456451416016,0,0,0.611519992351532
0.776225676,0,0,1.556231141090393,0,0,0.9172800183296204
0.777225218,0,0,1.5083470344543457,0,0,0.9172800183296204
0.778225261,0,0,1.5203180313110352,0,0,0.5350799560546875
0.779226081,0,0,1.5466543436050415,0,0,0.8408399820327759
0.780225383,0,0,1.5107412338256836,0,0,0.8408399820327759
0.781225092,0,0,1.4245500564575195,0,0,0.6879600286483765
0.782224801,0,0,1.3431471586227417,0,0,1.1466000080108643
0.78322627,0,0,1.3239935636520386,0,0,0.9937199950218201
0.784225572,0,0,1.3694833517074585,0,0,0.9172800183296204
0.785225374,0,0,1.460463047027588,0,0,0.8408399820327759
0.786225435,0,0,1.501164436340332,0,0,0.6879600286483765
0.787226533,0,0,1.5298948287963867,0,0,0.5350799560546875
0.788225242,0,0,1.5610195398330688,0,0,1.070159912109375
0.789225266,0,0,1.4676456451416016,0,0,0.3822000026702881
0.790225364,0,0,1.558625340461731,0,0,0.5350799560546875
0.791225722,0,0,1.414973258972168,0,0,1.1466000080108643
0.792225227,0,0,1.3766659498214722,0,0,0.9172800183296204
0.793225344,0,0,1.4245500564575195,0,0,1.070159912109375
0.79422535,0,0,1.3551181554794312,0,0,0.9172800183296204
0.795226781,0,0,1.3742717504501343,0,0,0.8408399820327759
0.796225157,0,0,1.4844050407409668,0,0,1.070159912109375
0.797225274,0,0,1.5538369417190552,0,0,0.8408399820327759
0.798225501,0,0,1.50355863571167,0,0,0.9172800183296204
0.799225637,0,0,1.5059528350830078,0,0,0.7644000053405762
0.800232827,0,0,1.4891934394836426,0,0,0.4586400091648102
0.801226203,0,0,1.5275006294250488,0,0,0.8408399820327759
0.802225468,0,0,1.4676456451416016,0,0,1.070159912109375
0.803226696,0,0,1.359906554222107,0,0,0.4586400091648102
0.804224961,0,0,1.400607943534851,0,0,0.9937199950218201
0.805225466,0,0,1.3934253454208374,0,0,0.5350799560546875
0.806226731,0,0,1.3263877630233765,0,0,0.9937199950218201
0.807225533,0,0,1.381454348564148,0,0,0.7644000053405762
0.808225335,0,0,1.5059528350830078,0,0,0.7644000053405762
0.80922534,0,0,1.5418659448623657,0,0,0.8408399820327759
0.81022542,0,0,1.522712230682373,0,0,0.7644000053405762
0.811225537,0,0,1.5083470344543457,0,0,0.6879600286483765
0.812225653,0,0,1.525106430053711,0,0,0.7644000053405762
0.813225159,0,0,1.4508862495422363,0,0,1.1466000080108643
0.814225257,0,0,1.4652514457702637,0,0,0.9172800183296204
0.815226892,0,0,1.455674648284912,0,0,0.9937199950218201
0.816225379,0,0,1.4221558570861816,0,0,0.7644000053405762
0.817225292,0,0,1.41257905960083,0,0,0.5350799560546875
0.818225612,0,0,1.3311761617660522,0,0,0.9172800183296204
0.819226581,0,0,1.4460978507995605,0,0,0.7644000053405762
0.820225272,0,0,1.601720929145813,0,0,0.9172800183296204
0.821225333,0,0,1.647210717201233,0,0,0.7644000053405762
0.822225116,0,0,1.6041151285171509,0,0,0.6879600286483765
0.82322664,0,0,1.556231141090393,0,0,0.9172800183296204
0.824225386,0,0,1.4413094520568848,0,0,1.1466000080108643
0.825225374,0,0,1.3910311460494995,0,0,0.611519992351532
0.826224861,0,0,1.357512354850769,0,0,0.611519992351532
0.827226662,0,0,1.3192051649093628,0,0,1.070159912109375
0.82822552,0,0,1.3096283674240112,0,0,0.6879600286483765
0.829225155,0,0,1.3407529592514038,0,0,1.223039984703064
0.830225531,0,0,1.6065093278884888,0,0,0.611519992351532
0.831226592,0,0,1.6352397203445435,0,0,0.7644000053405762
0.832225431,0,0,1.522712230682373,0,0,0.7644000053405762
0.833225455,0,0,1.4987702369689941,0,0,0.6879600286483765
0.834260793,0,0,1.5155296325683594,0,0,0.7644000053405762
0.835261873,0,0,1.434126853942871,0,0,0.9172800183296204
0.836232157,0,0,1.2952631711959839,0,0,0.7644000053405762
0.837225477,0,0,1.400607943534851,0,0,0.8408399820327759
0.838225723,0,0,1.3527239561080933,0,0,0.7644000053405762
0.839230081,0,0,1.400607943534851,0,0,1.070159912109375
0.840225235,0,0,1.3934253454208374,0,0,1.1466000080108643
0.841225277,0,0,1.4772224426269531,0,0,0.6879600286483765
0.842225227,0,0,1.4844050407409668,0,0,0.6879600286483765
0.843226659,0,0,1.5945383310317993,0,0,1.070159912109375
0.844225146,0,0,1.50355863571167,0,0,0.611519992351532
0.845225651,0,0,1.460463047027588,0,0,0.9172800183296204
0.84622536,0,0,1.4676456451416016,0,0,0.7644000053405762
0.847226236,0,0,1.4748282432556152,0,0,0.9172800183296204
0.848225075,0,0,1.4389152526855469,0,0,0.9937199950218201
0.849225451,0,0,1.3958195447921753,0,0,0.6879600286483765
0.85022529,0,0,1.4652514457702637,0,0,0.8408399820327759
0.851226666,0,0,1.4437036514282227,0,0,0.9937199950218201
0.852225431,0,0,1.5322890281677246,0,0,0.611519992351532
0.853225473,0,0,1.5682021379470825,0,0,0.8408399820327759
0.854225257,0,0,1.5083470344543457,0,0,0.7644000053405762
0.855226651,0,0,1.5466543436050415,0,0,0.8408399820327759
0.856225379,0,0,1.5155296325683594,0,0,0.5350799560546875
0.857225329,0,0,1.4867992401123047,0,0,0.8408399820327759
0.85822526,0,0,1.3742717504501343,0,0,0.7644000053405762
0.859226451,0,0,1.3718775510787964,0,0,0.9172800183296204
0.860225457,0,0,1.3646949529647827,0,0,1.1466000080108643
0.861225314,0,0,1.3646949529647827,0,0,1.070159912109375
0.862225375,0,0,1.4053963422775269,0,0,0.9172800183296204
0.86322627,0,0,1.5610195398330688,0,0,0.6879600286483765
0.864241682,0,0,1.558625340461731,0,0,0.7644000053405762
0.865227003,0,0,1.556231141090393,0,0,0.6879600286483765
0.866225397,0,0,1.5705963373184204,0,0,0.8408399820327759
0.867226847,0,0,1.580173134803772,0,0,0.8408399820327759
0.868225057,0,0,1.4891934394836426,0,0,0.8408399820327759
0.869225007,0,0,1.4484920501708984,0,0,0.9172800183296204
0.870225346,0,0,1.4891934394836426,0,0,0.8408399820327759
0.871226629,0,0,1.359906554222107,0,0,1.070159912109375
0.872225412,0,0,1.338358759880066,0,0,0.8408399820327759
0.873225473,0,0,1.4101848602294922,0,0,0.8408399820327759
0.874226534,0,0,1.5275006294250488,0,0,0.3822000026702881
0.87522654,0,0,1.534683346748352,0,0,0.6879600286483765
0.876241971,0,0,1.5322890281677246,0,0,0.7644000053405762
0.877236384,0,0,1.5825673341751099,0,0,0.611519992351532
0.87822576,0,0,1.5658079385757446,0,0,0.6879600286483765
0.879224692,0,0,1.4460978507995605,0,0,1.070159912109375
0.880223679,0,0,1.3527239561080933,0,0,0.6879600286483765
0.881223647,0,0,1.3287819623947144,0,0,0.9937199950218201
0.882223246,0,0,1.3072341680526733,0,0,0.6879600286483765
0.883224066,0,0,1.3215993642807007,0,0,0.8408399820327759
0.884223257,0,0,1.3718775510787964,0,0,0.7644000053405762
0.885223244,0,0,1.4891934394836426,0,0,0.9937199950218201
0.886717169,0,0,1.5418659448623657,0,0,0.8408399820327759
0.887269847,0,0,1.5203180313110352,0,0,0.9172800183296204
0.888257075,0,0,1.4891934394836426,0,0,0.5350799560546875
0.889268284,0,0,1.5322890281677246,0,0,0.8408399820327759
0.890235253,0,0,1.4652514457702637,0,0,0.6879600286483765
0.891226629,0,0,1.3766659498214722,0,0,0.611519992351532
0.89222569,0,0,1.4053963422775269,0,0,0.9937199950218201
0.893225584,0,0,1.2976573705673218,0,0,0.6879600286483765
0.894225794,0,0,1.3215993642807007,0,0,0.7644000053405762
0.895227762,0,0,1.4700398445129395,0,0,1.1466000080108643
0.896227286,0,0,1.5322890281677246,0,0,0.9937199950218201
0.89722581,0,0,1.5155296325683594,0,0,0.6879600286483765
0.898225557,0,0,1.5873557329177856,0,0,0.9937199950218201
0.89923421,0,0,1.5155296325683594,0,0,0.6879600286483765
0.900277234,0,0,1.4867992401123047,0,0,0.5350799560546875
0.901241684,0,0,1.4652514457702637,0,0,0.8408399820327759
0.902226301,0,0,1.3910311460494995,0,0,0.7644000053405762
0.90322514,0,0,1.4652514457702637,0,0,1.070159912109375
0.904223794,0,0,1.4269442558288574,0,0,0.611519992351532
0.905223521,0,0,1.3623007535934448,0,0,0.7644000053405762
0.906222786,0,0,1.359906554222107,0,0,0.8408399820327759
0.907230403,0,0,1.501164436340332,0,0,0.5350799560546875
0.908227705,0,0,1.5682021379470825,0,0,0.8408399820327759
0.909227358,0,0,1.5155296325683594,0,0,0.9937199950218201
0.910227382,0,0,1.5514427423477173,0,0,0.9937199950218201
0.911224888,0,0,1.5729905366897583,0,0,0.8408399820327759
0.912223375,0,0,1.5418659448623657,0,0,0.9937199950218201
0.913223288,0,0,1.4173674583435059,0,0,0.8408399820327759
0.914223127,0,0,1.37906014919281,0,0,1.070159912109375
0.915227818,0,0,1.335964560508728,0,0,0.9172800183296204
0.916225934,0,0,1.3910311460494995,0,0,0.5350799560546875
0.917226014,0,0,1.434126853942871,0,0,0.9172800183296204
0.918225945,0,0,1.4963760375976563,0,0,0.6879600286483765
0.919224932,0,0,1.4963760375976563,0,0,0.9172800183296204
0.920223142,0,0,1.5753847360610962,0,0,0.8408399820327759
0.921223314,0,0,1.5083470344543457,0,0,0.8408399820327759
0.922223208,0,0,1.4221558570861816,0,0,0.7644000053405762
0.923226825,0,0,1.4293384552001953,0,0,0.9937199950218201
0.924225164,0,0,1.4101848602294922,0,0,0.8408399820327759
0.925225818,0,0,1.4389152526855469,0,0,0.9172800183296204
0.926225527,0,0,1.3958195447921753,0,0,0.8408399820327759
0.92722594,0,0,1.3718775510787964,0,0,0.6879600286483765
0.92824126,0,0,1.4269442558288574,0,0,0.8408399820327759
0.929226766,0,0,1.5155296325683594,0,0,0.6879600286483765
0.930225364,0,0,1.4532804489135742,0,0,0.9172800183296204
0.93122724,0,0,1.5107412338256836,0,0,0.8408399820327759
0.932225486,0,0,1.482010841369629,0,0,0.3822000026702881
0.93322551,0,0,1.5442601442337036,0,0,0.7644000053405762
0.934225293,0,0,1.5322890281677246,0,0,1.1466000080108643
0.935225743,0,0,1.455674648284912,0,0,0.6879600286483765
0.936225508,0,0,1.434126853942871,0,0,0.9172800183296204
0.937225514,0,0,1.3982137441635132,0,0,0.6879600286483765
0.938225538,0,0,1.3742717504501343,0,0,0.7644000053405762
0.939227025,0,0,1.4676456451416016,0,0,0.7644000053405762
0.940225475,0,0,1.4915876388549805,0,0,0.9172800183296204
0.94122561,0,0,1.5155296325683594,0,0,0.6879600286483765
0.94222569,0,0,1.5753847360610962,0,0,0.9937199950218201
0.943226992,0,0,1.5131354331970215,0,0,0.6879600286483765
0.944225534,0,0,1.577778935432434,0,0,0.7644000053405762
0.945225484,0,0,1.4413094520568848,0,0,0.6879600286483765
0.946225249,0,0,1.403002142906189,0,0,0.8408399820327759
0.947227088,0,0,1.403002142906189,0,0,0.8408399820327759
0.948225556,0,0,1.455674648284912,0,0,0.6879600286483765
0.94922521,0,0,1.3862427473068237,0,0,0.8408399820327759
0.950225179,0,0,1.4269442558288574,0,0,0.6879600286483765
0.951227073,0,0,1.4269442558288574,0,0,0.9937199950218201
0.952225467,0,0,1.4891934394836426,0,0,0.9937199950218201
0.953225603,0,0,1.5155296325683594,0,0,0.8408399820327759
0.954225404,0,0,1.4652514457702637,0,0,0.6879600286483765
0.955226817,0,0,1.5179238319396973,0,0,0.6879600286483765
0.956225416,0,0,1.4508862495422363,0,0,0.9172800183296204
0.957225551,0,0,1.3886369466781616,0,0,0.5350799560546875
0.95822539,0,0,1.482010841369629,0,0,0.8408399820327759
0.959226784,0,0,1.4053963422775269,0,0,0.8408399820327759
0.96022566,0,0,1.381454348564148,0,0,0.9172800183296204
0.961225573,0,0,1.3431471586227417,0,0,0.8408399820327759
0.962225375,0,0,1.3670891523361206,0,0,0.6879600286483765
0.963226954,0,0,1.50355863571167,0,0,0.6879600286483765
0.96422533,0,0,1.50355863571167,0,0,0.8408399820327759
0.965225484,0,0,1.5298948287963867,0,0,0.7644000053405762
0.966225564,0,0,1.6160861253738403,0,0,0.9172800183296204
0.967226699,0,0,1.4844050407409668,0,0,0.611519992351532
0.968225575,0,0,1.4173674583435059,0,0,0.8408399820327759
0.969225451,0,0,1.3694833517074585,0,0,0.9937199950218201
0.970225512,0,0,1.3910311460494995,0,0,0.8408399820327759
0.971226517,0,0,1.414973258972168,0,0,0.9172800183296204
0.972225578,0,0,1.45806884765625,0,0,0.9937199950218201
0.973225917,0,0,1.4460978507995605,0,0,0.7644000053405762
0.974225701,0,0,1.501164436340332,0,0,0.9172800183296204
0.975226632,0,0,1.5155296325683594,0,0,0.7644000053405762
0.976225453,0,0,1.5682021379470825,0,0,0.7644000053405762
0.977225569,0,0,1.5897499322891235,0,0,0.8408399820327759
0.978225427,0,0,1.5729905366897583,0,0,0.8408399820327759
0.979226877,0,0,1.4221558570861816,0,0,0.6879600286483765
0.980225364,0,0,1.4245500564575195,0,0,0.8408399820327759
0.981225573,0,0,1.381454348564148,0,0,0.9172800183296204
0.982225449,0,0,1.400607943534851,0,0,0.7644000053405762
0.983226565,0,0,1.4484920501708984,0,0,0.9937199950218201
0.984225386,0,0,1.4676456451416016,0,0,0.8408399820327759
0.985225521,0,0,1.5873557329177856,0,0,0.611519992351532
0.986225582,0,0,1.5466543436050415,0,0,0.8408399820327759
0.987226902,0,0,1.580173134803772,0,0,1.070159912109375
0.988225334,0,0,1.577778935432434,0,0,0.9172800183296204
0.989225191,0,0,1.580173134803772,0,0,1.070159912109375
0.990225382,0,0,1.4748282432556152,0,0,0.6879600286483765
0.991226906,0,0,1.4437036514282227,0,0,0.9172800183296204
0.992232023,0,0,1.4437036514282227,0,0,0.6879600286483765
0.993225639,0,0,1.3670891523361206,0,0,0.6879600286483765
0.994225756,0,0,1.2952631711959839,0,0,0.9172800183296204
0.995226854,0,0,1.3838485479354858,0,0,0.611519992351532
0.996225212,0,0,1.460463047027588,0,0,1.070159912109375
0.997225439,0,0,1.479616641998291,0,0,0.9172800183296204
0.998225445,0,0,1.4939818382263184,0,0,0.9172800183296204
0.999226636,0,0,1.4389152526855469,0,0,0.8408399820327759
1.00022553,0,0,1.5322890281677246,0,0,0.9172800183296204
1.001225647,0,0,1.4053963422775269,0,0,0.9937199950218201
1.002311133,0,0,1.4053963422775269,0,0,0.9172800183296204
1.003249991,0,0,1.3838485479354858,0,0,0.6879600286483765
1.00422796,0,0,1.4077905416488647,0,0,0.9937199950218201
1.005225928,0,0,1.403002142906189,0,0,0.9937199950218201
1.006225693,0,0,1.434126853942871,0,0,0.6879600286483765
1.007227699,0,0,1.558625340461731,0,0,0.9172800183296204
1.008225426,0,0,1.5729905366897583,0,0,1.2994799613952637
1.009225599,0,0,1.5969325304031372,0,0,0.6879600286483765
1.010225419,0,0,1.53707754611969,0,0,0.6879600286483765
1.011227054,0,0,1.4891934394836426,0,0,0.7644000053405762
1.01222556,0,0,1.400607943534851,0,0,0.3822000026702881
1.013225436,0,0,1.4173674583435059,0,0,0.7644000053405762
1.014225552,0,0,1.5466543436050415,0,0,1.070159912109375
1.015226799,0,0,1.403002142906189,0,0,0.6879600286483765
1.0162255629999999,0,0,1.4389152526855469,0,0,0.7644000053405762
1.01722581,0,0,1.460463047027588,0,0,0.6879600286483765
1.018225389,0,0,1.5298948287963867,0,0,0.7644000053405762
1.019226747,0,0,1.5394717454910278,0,0,0.9937199950218201
1.020225215,0,0,1.5059528350830078,0,0,0.6879600286483765
1.021225462,0,0,1.4652514457702637,0,0,0.9172800183296204
1.022225523,0,0,1.5107412338256836,0,0,0.8408399820327759
1.023226658,0,0,1.482010841369629,0,0,0.9937199950218201
1.02423196,0,0,1.414973258972168,0,0,0.7644000053405762
1.025372352,0,0,1.4484920501708984,0,0,0.7644000053405762
1.02624723,0,0,1.3694833517074585,0,0,0.6879600286483765
1.027229513,0,0,1.4101848602294922,0,0,0.7644000053405762
1.028225834,0,0,1.3958195447921753,0,0,0.6879600286483765
1.02922558,0,0,1.5107412338256836,0,0,0.6879600286483765
1.030225475,0,0,1.4844050407409668,0,0,0.7644000053405762
1.031226999,0,0,1.5107412338256836,0,0,0.611519992351532
1.0322256890000001,0,0,1.623268723487854,0,0,0.9172800183296204
1.033225695,0,0,1.5945383310317993,0,0,0.8408399820327759
1.034225812,0,0,1.4772224426269531,0,0,0.9172800183296204
1.035226891,0,0,1.3886369466781616,0,0,0.8408399820327759
1.036225508,0,0,1.4508862495422363,0,0,0.8408399820327759
1.037225587,0,0,1.316810965538025,0,0,0.8408399820327759
1.038225074,0,0,1.3048399686813354,0,0,1.070159912109375
1.039227043,0,0,1.4173674583435059,0,0,0.7644000053405762
1.040225697,0,0,1.6304513216018677,0,0,0.8408399820327759
1.041225647,0,0,1.599326729774475,0,0,0.9937199950218201
1.042225245,0,0,1.601720929145813,0,0,0.8408399820327759
1.043227102,0,0,1.522712230682373,0,0,0.6879600286483765
1.044225589,0,0,1.5418659448623657,0,0,0.9172800183296204
1.045225632,0,0,1.436521053314209,0,0,0.8408399820327759
1.046225767,0,0,1.357512354850769,0,0,0.9172800183296204
1.04722705,0,0,1.3766659498214722,0,0,0.8408399820327759
1.0482255,0,0,1.381454348564148,0,0,0.8408399820327759
1.049225654,0,0,1.460463047027588,0,0,0.6879600286483765
1.050225474,0,0,1.4460978507995605,0,0,0.9172800183296204
1.051226924,0,0,1.5514427423477173,0,0,0.611519992351532
1.052225615,0,0,1.4915876388549805,0,0,0.8408399820327759
1.053225417,0,0,1.4939818382263184,0,0,0.6879600286483765
1.054225552,0,0,1.6089035272598267,0,0,0.8408399820327759
1.055225891,0,0,1.5203180313110352,0,0,0.8408399820327759
1.056225193,0,0,1.4460978507995605,0,0,0.7644000053405762
1.057229661,0,0,1.37906014919281,0,0,0.9172800183296204
1.05832574,0,0,1.3958195447921753,0,0,0.8408399820327759
1.059241765,0,0,1.2665326595306396,0,0,0.7644000053405762
1.060226363,0,0,1.3718775510787964,0,0,0.7644000053405762
1.061225998,0,0,1.4413094520568848,0,0,0.7644000053405762
1.062225615,0,0,1.5275006294250488,0,0,0.611519992351532
1.063225528,0,0,1.558625340461731,0,0,0.9172800183296204
1.064225719,0,0,1.6543933153152466,0,0,0.9937199950218201
1.065225521,0,0,1.6065093278884888,0,0,0.6879600286483765
1.066225563,0,0,1.53707754611969,0,0,0.9172800183296204
1.067226569,0,0,1.4197616577148438,0,0,0.611519992351532
1.068225445,0,0,1.314416766166687,0,0,0.9172800183296204
1.069225561,0,0,1.3958195447921753,0,0,0.7644000053405762
1.07022553,0,0,1.3958195447921753,0,0,0.7644000053405762
1.071225684,0,0,1.3718775510787964,0,0,1.1466000080108643
1.072225541,0,0,1.3958195447921753,0,0,0.6879600286483765
1.07322538,0,0,1.4987702369689941,0,0,0.9172800183296204
1.074225534,0,0,1.599326729774475,0,0,0.8408399820327759
1.07522678,0,0,1.5203180313110352,0,0,0.9172800183296204
1.076508171,0,0,1.5203180313110352,0,0,0.9937199950218201
1.077225161,0,0,1.525106430053711,0,0,0.8408399820327759
1.078223408,0,0,1.4700398445129395,0,0,0.8408399820327759
1.079224802,0,0,1.3958195447921753,0,0,1.223039984703064
1.080223474,0,0,1.4508862495422363,0,0,0.611519992351532
1.081222758,0,0,1.3670891523361206,0,0,0.6879600286483765
1.082226022,0,0,1.403002142906189,0,0,0.9937199950218201
1.083225306,0,0,1.482010841369629,0,0,0.7644000053405762
1.084235311,0,0,1.5705963373184204,0,0,0.7644000053405762
1.085266983,0,0,1.556231141090393,0,0,1.1466000080108643
1.086232841,0,0,1.5658079385757446,0,0,0.611519992351532
1.087234143,0,0,1.4772224426269531,0,0,0.9172800183296204
1.088223834,0,0,1.50355863571167,0,0,0.7644000053405762
1.089223691,0,0,1.403002142906189,0,0,0.7644000053405762
1.090223289,0,0,1.4413094520568848,0,0,0.9172800183296204
1.091223628,0,0,1.4269442558288574,0,0,0.611519992351532
1.092223152,0,0,1.3479355573654175,0,0,0.9172800183296204
1.093223139,0,0,1.3407529592514038,0,0,0.6879600286483765
1.094223311,0,0,1.3503297567367554,0,0,0.6879600286483765
1.095224298,0,0,1.5131354331970215,0,0,0.8408399820327759
1.096223415,0,0,1.5514427423477173,0,0,0.7644000053405762
1.097223254,0,0,1.5322890281677246,0,0,0.8408399820327759
1.098223,0,0,1.5107412338256836,0,0,1.070159912109375
1.099228006,0,0,1.577778935432434,0,0,0.8408399820327759
1.100225752,0,0,1.4939818382263184,0,0,0.9172800183296204
1.10122548,0,0,1.3934253454208374,0,0,0.9937199950218201
1.102225485,0,0,1.4197616577148438,0,0,0.7644000053405762
1.103225269,0,0,1.3455413579940796,0,0,0.611519992351532
1.104225459,0,0,1.316810965538025,0,0,0.6879600286483765
1.10522528,0,0,1.403002142906189,0,0,0.6879600286483765
1.106260674,0,0,1.5442601442337036,0,0,0.7644000053405762
1.107227254,0,0,1.5059528350830078,0,0,0.6879600286483765
1.108225778,0,0,1.5322890281677246,0,0,0.7644000053405762
1.1092256169999999,0,0,1.5322890281677246,0,0,0.9937199950218201
1.110225678,0,0,1.5418659448623657,0,0,0.5350799560546875
1.111226091,0,0,1.4389152526855469,0,0,1.070159912109375
1.112225504,0,0,1.403002142906189,0,0,0.7644000053405762
1.11322562,0,0,1.3551181554794312,0,0,0.5350799560546875
1.114225607,0,0,1.3431471586227417,0,0,0.6879600286483765
1.115227372,0,0,1.3455413579940796,0,0,0.9937199950218201
1.11622523,0,0,1.4532804489135742,0,0,0.7644000053405762
1.117225513,0,0,1.5921441316604614,0,0,0.7644000053405762
1.118225315,0,0,1.5203180313110352,0,0,0.9937199950218201
1.119227006,0,0,1.5945383310317993,0,0,0.4586400091648102
1.12022553,0,0,1.5849615335464478,0,0,0.6879600286483765
1.121225406,0,0,1.6615760326385498,0,0,0.7644000053405762
1.122225541,0,0,1.5418659448623657,0,0,0.7644000053405762
1.123226528,0,0,1.4652514457702637,0,0,1.223039984703064
1.124225404,0,0,1.3910311460494995,0,0,0.611519992351532
1.125225502,0,0,1.4245500564575195,0,0,0.6879600286483765
1.126225544,0,0,1.3958195447921753,0,0,0.5350799560546875
1.127226791,0,0,1.338358759880066,0,0,0.6879600286483765
1.128225074,0,0,1.5203180313110352,0,0,0.7644000053405762
1.129225524,0,0,1.5490485429763794,0,0,0.9172800183296204
1.130225567,0,0,1.501164436340332,0,0,0.7644000053405762
1.13122685,0,0,1.5203180313110352,0,0,0.7644000053405762
1.132225356,0,0,1.5466543436050415,0,0,0.7644000053405762
1.13322562,0,0,1.3742717504501343,0,0,0.611519992351532
1.134225589,0,0,1.4389152526855469,0,0,1.070159912109375
1.135226724,0,0,1.4484920501708984,0,0,0.611519992351532
1.1362256,0,0,1.4389152526855469,0,0,0.9172800183296204
1.13722542,0,0,1.3910311460494995,0,0,0.8408399820327759
1.138225518,0,0,1.4077905416488647,0,0,1.070159912109375
1.139226617,0,0,1.5873557329177856,0,0,0.7644000053405762
1.140225437,0,0,1.5298948287963867,0,0,1.223039984703064
1.1412254609999999,0,0,1.5921441316604614,0,0,0.5350799560546875
1.142225504,0,0,1.5418659448623657,0,0,1.1466000080108643
1.143226713,0,0,1.556231141090393,0,0,0.9937199950218201
1.144225385,0,0,1.4891934394836426,0,0,0.9937199950218201
1.145225446,0,0,1.3910311460494995,0,0,1.070159912109375
1.146225081,0,0,1.4317326545715332,0,0,0.7644000053405762
1.147226828,0,0,1.2856862545013428,0,0,0.6879600286483765
1.1482256849999999,0,0,1.3215993642807007,0,0,0.9937199950218201
1.149225487,0,0,1.3742717504501343,0,0,0.6879600286483765
1.1502249,0,0,1.4724340438842773,0,0,0.611519992351532
1.151226665,0,0,1.4939818382263184,0,0,0.9172800183296204
1.152225411,0,0,1.5107412338256836,0,0,0.5350799560546875
1.153225546,0,0,1.4508862495422363,0,0,0.8408399820327759
1.1542256069999999,0,0,1.4844050407409668,0,0,0.9937199950218201
1.155226557,0,0,1.479616641998291,0,0,0.8408399820327759
1.156225359,0,0,1.335964560508728,0,0,0.8408399820327759
1.157225494,0,0,1.4389152526855469,0,0,0.6879600286483765
1.158225463,0,0,1.3694833517074585,0,0,0.9937199950218201
1.159226746,0,0,1.3527239561080933,0,0,0.7644000053405762
1.16022553,0,0,1.4963760375976563,0,0,0.8408399820327759
1.161225554,0,0,1.5203180313110352,0,0,0.8408399820327759
1.1622253,0,0,1.5538369417190552,0,0,0.8408399820327759
1.163226824,0,0,1.5610195398330688,0,0,0.7644000053405762
1.164225552,0,0,1.5538369417190552,0,0,0.8408399820327759
1.165225317,0,0,1.6065093278884888,0,0,0.8408399820327759
1.166225359,0,0,1.5538369417190552,0,0,0.9172800183296204
1.16722692,0,0,1.4939818382263184,0,0,0.9937199950218201
1.168225074,0,0,1.4221558570861816,0,0,0.8408399820327759
1.169225487,0,0,1.2952631711959839,0,0,0.7644000053405762
1.170225326,0,0,1.2641384601593018,0,0,0.9172800183296204
1.171225331,0,0,1.3479355573654175,0,0,0.9172800183296204
1.17222567,0,0,1.5418659448623657,0,0,0.6879600286483765
1.173225565,0,0,1.4939818382263184,0,0,0.6879600286483765
1.174225422,0,0,1.5203180313110352,0,0,0.9172800183296204
1.175227076,0,0,1.5466543436050415,0,0,0.9937199950218201
1.176225563,0,0,1.4867992401123047,0,0,1.070159912109375
1.177225587,0,0,1.4844050407409668,0,0,0.7644000053405762
1.178225315,0,0,1.4437036514282227,0,0,0.9172800183296204
1.179226968,0,0,1.4460978507995605,0,0,0.8408399820327759
1.180225492,0,0,1.4317326545715332,0,0,0.9172800183296204
1.181225813,0,0,1.2880805730819702,0,0,0.8408399820327759
1.182225504,0,0,1.359906554222107,0,0,0.6879600286483765
1.183226694,0,0,1.4413094520568848,0,0,0.7644000053405762
1.18422557,0,0,1.460463047027588,0,0,0.9937199950218201
1.185225335,0,0,1.5442601442337036,0,0,0.611519992351532
1.186226433,0,0,1.5203180313110352,0,0,0.9172800183296204
1.187227346,0,0,1.4293384552001953,0,0,0.9172800183296204
1.188225592,0,0,1.4077905416488647,0,0,0.611519992351532
1.189225079,0,0,1.3287819623947144,0,0,0.6879600286483765
1.190225548,0,0,1.4772224426269531,0,0,0.6879600286483765
1.19123035,0,0,1.3958195447921753,0,0,1.1466000080108643
1.1922258000000001,0,0,1.3311761617660522,0,0,0.9937199950218201
1.193225009,0,0,1.4389152526855469,0,0,0.7644000053405762
1.19422557,0,0,1.4939818382263184,0,0,0.9937199950218201
1.195226909,0,0,1.558625340461731,0,0,0.9172800183296204
1.196225452,0,0,1.4891934394836426,0,0,0.5350799560546875
1.197225642,0,0,1.4963760375976563,0,0,0.9937199950218201
1.198225426,0,0,1.5203180313110352,0,0,1.070159912109375
1.199226783,0,0,1.4101848602294922,0,0,0.6879600286483765
1.20022564,0,0,1.4293384552001953,0,0,0.8408399820327759
1.201225776,0,0,1.4844050407409668,0,0,0.7644000053405762
1.202225559,0,0,1.4077905416488647,0,0,0.9172800183296204
1.203226787,0,0,1.4077905416488647,0,0,0.8408399820327759
1.204225718,0,0,1.3766659498214722,0,0,1.070159912109375
1.205225539,0,0,1.5083470344543457,0,0,0.7644000053405762
1.206225507,0,0,1.5298948287963867,0,0,0.8408399820327759
1.207226864,0,0,1.5729905366897583,0,0,0.4586400091648102
1.208225389,0,0,1.5658079385757446,0,0,0.7644000053405762
1.209225376,0,0,1.4963760375976563,0,0,0.9937199950218201
1.210225215,0,0,1.3982137441635132,0,0,0.9172800183296204
1.211226664,0,0,1.3694833517074585,0,0,0.7644000053405762
1.212231263,0,0,1.357512354850769,0,0,0.7644000053405762
1.213225509,0,0,1.3431471586227417,0,0,0.9172800183296204
1.214225052,0,0,1.3623007535934448,0,0,0.9172800183296204
1.215227279,0,0,1.403002142906189,0,0,0.7644000053405762
1.216225618,0,0,1.455674648284912,0,0,0.9937199950218201
1.217225531,0,0,1.5298948287963867,0,0,0.9937199950218201
1.218225481,0,0,1.5825673341751099,0,0,0.9172800183296204
1.219226876,0,0,1.5705963373184204,0,0,0.7644000053405762
1.220225751,0,0,1.5322890281677246,0,0,1.070159912109375
1.2212254790000001,0,0,1.4987702369689941,0,0,0.6879600286483765
1.222225633,0,0,1.3982137441635132,0,0,0.9172800183296204
1.223226972,0,0,1.4652514457702637,0,0,0.7644000053405762
1.224225663,0,0,1.414973258972168,0,0,1.1466000080108643
1.225225464,0,0,1.316810965538025,0,0,0.9172800183296204
1.2262256,0,0,1.482010841369629,0,0,0.8408399820327759
1.227227013,0,0,1.5538369417190552,0,0,0.9172800183296204
1.228225463,0,0,1.5490485429763794,0,0,0.9172800183296204
1.229225579,0,0,1.580173134803772,0,0,0.5350799560546875
1.230225585,0,0,1.601720929145813,0,0,0.611519992351532
1.23122672,0,0,1.434126853942871,0,0,0.8408399820327759
1.232225596,0,0,1.3024457693099976,0,0,0.8408399820327759
1.233225564,0,0,1.3886369466781616,0,0,0.9937199950218201
1.23422544,0,0,1.5155296325683594,0,0,0.6879600286483765
1.235226816,0,0,1.4460978507995605,0,0,1.070159912109375
1.2362251,0,0,1.3958195447921753,0,0,1.070159912109375
1.237225568,0,0,1.4628572463989258,0,0,0.7644000053405762
1.23822574,0,0,1.5442601442337036,0,0,0.6879600286483765
1.239226968,0,0,1.4939818382263184,0,0,0.8408399820327759
1.240225696,0,0,1.5203180313110352,0,0,0.3822000026702881
1.241225442,0,0,1.4844050407409668,0,0,0.5350799560546875
1.242225466,0,0,1.577778935432434,0,0,0.9172800183296204
1.243226879,0,0,1.5155296325683594,0,0,0.7644000053405762
1.244225737,0,0,1.3551181554794312,0,0,0.8408399820327759
1.2452255939999999,0,0,1.41257905960083,0,0,0.7644000053405762
1.246225581,0,0,1.4317326545715332,0,0,0.7644000053405762
1.247226938,0,0,1.4245500564575195,0,0,0.7644000053405762
1.248225518,0,0,1.3766659498214722,0,0,0.5350799560546875
1.2492254680000001,0,0,1.4460978507995605,0,0,0.8408399820327759
1.250225696,0,0,1.5418659448623657,0,0,0.9172800183296204
1.251226442,0,0,1.6184803247451782,0,0,0.305759996175766
1.252225466,0,0,1.5849615335464478,0,0,0.8408399820327759
1.253225546,0,0,1.5394717454910278,0,0,0.7644000053405762
1.254225959,0,0,1.4939818382263184,0,0,0.9172800183296204
1.255227335,0,0,1.436521053314209,0,0,0.8408399820327759
1.256225507,0,0,1.4389152526855469,0,0,0.8408399820327759
1.257225179,0,0,1.335964560508728,0,0,0.611519992351532
1.258225333,0,0,1.4077905416488647,0,0,0.9172800183296204
1.259227598,0,0,1.4437036514282227,0,0,0.9172800183296204
1.260226085,0,0,1.482010841369629,0,0,0.7644000053405762
1.261225757,0,0,1.4987702369689941,0,0,0.8408399820327759
1.2622254480000001,0,0,1.50355863571167,0,0,0.4586400091648102
1.2632270270000001,0,0,1.522712230682373,0,0,0.611519992351532
1.264225551,0,0,1.6065093278884888,0,0,0.9172800183296204
1.265225816,0,0,1.50355863571167,0,0,0.8408399820327759
1.266225377,0,0,1.4484920501708984,0,0,0.6879600286483765
1.267226661,0,0,1.37906014919281,0,0,0.7644000053405762
1.268225444,0,0,1.3239935636520386,0,0,0.8408399820327759
1.269225505,0,0,1.3192051649093628,0,0,0.9937199950218201
1.270225492,0,0,1.3000515699386597,0,0,0.7644000053405762
1.2712262939999999,0,0,1.5179238319396973,0,0,0.7644000053405762
1.272225614,0,0,1.53707754611969,0,0,0.9937199950218201
1.273225212,0,0,1.5131354331970215,0,0,0.8408399820327759
1.274225385,0,0,1.5107412338256836,0,0,0.8408399820327759
1.275226335,0,0,1.601720929145813,0,0,0.9937199950218201
1.276225729,0,0,1.4532804489135742,0,0,0.9937199950218201
1.277253419,0,0,1.3479355573654175,0,0,0.9172800183296204
1.278225796,0,0,1.4173674583435059,0,0,0.6879600286483765
1.279224079,0,0,1.3886369466781616,0,0,0.8408399820327759
1.280223603,0,0,1.3934253454208374,0,0,1.1466000080108643
1.281223257,0,0,1.4077905416488647,0,0,0.6879600286483765
1.2822233729999999,0,0,1.4939818382263184,0,0,0.8408399820327759
1.283223916,0,0,1.5322890281677246,0,0,0.9172800183296204
1.2842234590000001,0,0,1.5849615335464478,0,0,0.5350799560546875
1.285223372,0,0,1.580173134803772,0,0,0.8408399820327759
1.286223155,0,0,1.4724340438842773,0,0,0.9937199950218201
1.287224179,0,0,1.4844050407409668,0,0,0.9172800183296204
1.2882231659999999,0,0,1.37906014919281,0,0,0.9937199950218201
1.2892230599999999,0,0,1.3886369466781616,0,0,0.4586400091648102
1.290223251,0,0,1.4173674583435059,0,0,0.611519992351532
1.291226979,0,0,1.3910311460494995,0,0,0.9172800183296204
1.292225725,0,0,1.3742717504501343,0,0,1.070159912109375
1.293226046,0,0,1.5466543436050415,0,0,0.7644000053405762
1.294241329,0,0,1.6184803247451782,0,0,1.070159912109375
1.295228816,0,0,1.623268723487854,0,0,0.5350799560546875
1.296225933,0,0,1.534683346748352,0,0,0.9172800183296204
1.297225364,0,0,1.45806884765625,0,0,0.9172800183296204
1.298225388,0,0,1.400607943534851,0,0,0.7644000053405762
1.299226005,0,0,1.3694833517074585,0,0,0.9172800183296204
1.300225307,0,0,1.4628572463989258,0,0,0.6879600286483765
1.301225238,0,0,1.359906554222107,0,0,0.6879600286483765
1.302225577,0,0,1.316810965538025,0,0,1.070159912109375
1.303226953,0,0,1.400607943534851,0,0,0.6879600286483765
1.3042255329999999,0,0,1.5083470344543457,0,0,0.611519992351532
1.305225483,0,0,1.479616641998291,0,0,0.611519992351532
1.306225451,0,0,1.5658079385757446,0,0,0.5350799560546875
1.30722592,0,0,1.5179238319396973,0,0,0.8408399820327759
1.308225481,0,0,1.479616641998291,0,0,0.9937199950218201
1.309225209,0,0,1.4221558570861816,0,0,0.7644000053405762
1.3102255839999999,0,0,1.3287819623947144,0,0,0.9172800183296204
1.311248812,0,0,1.357512354850769,0,0,0.8408399820327759
1.312352909,0,0,1.359906554222107,0,0,0.7644000053405762
1.3134954859999999,0,0,1.359906554222107,0,0,0.9937199950218201
1.314311106,0,0,1.3623007535934448,0,0,0.8408399820327759
1.315247408,0,0,1.45806884765625,0,0,0.8408399820327759
1.316234025,0,0,1.53707754611969,0,0,0.9937199950218201
1.3172269380000001,0,0,1.5921441316604614,0,0,0.7644000053405762
1.318251351,0,0,1.4867992401123047,0,0,0.6879600286483765
1.319281208,0,0,1.556231141090393,0,0,0.8408399820327759
1.32024151,0,0,1.4987702369689941,0,0,0.9172800183296204
1.321231775,0,0,1.3263877630233765,0,0,0.9172800183296204
1.322225466,0,0,1.3670891523361206,0,0,0.611519992351532
1.323226601,0,0,1.3862427473068237,0,0,0.7644000053405762
1.324225681,0,0,1.3503297567367554,0,0,0.7644000053405762
1.325225649,0,0,1.3503297567367554,0,0,0.8408399820327759
1.326255488,0,0,1.5059528350830078,0,0,0.6879600286483765
1.327229531,0,0,1.5682021379470825,0,0,1.223039984703064
1.328227258,0,0,1.601720929145813,0,0,0.4586400091648102
1.329225968,0,0,1.5969325304031372,0,0,0.8408399820327759
1.330226492,0,0,1.5921441316604614,0,0,0.8408399820327759
1.331229071,0,0,1.4676456451416016,0,0,0.8408399820327759
1.332226707,0,0,1.4077905416488647,0,0,0.611519992351532
1.333226027,0,0,1.3862427473068237,0,0,0.7644000053405762
1.334243477,0,0,1.314416766166687,0,0,0.8408399820327759
1.3352789999999999,0,0,1.4053963422775269,0,0,0.6879600286483765
1.336259839,0,0,1.3838485479354858,0,0,0.7644000053405762
1.3372286230000001,0,0,1.558625340461731,0,0,1.070159912109375
1.338226592,0,0,1.5298948287963867,0,0,0.8408399820327759
1.339241838,0,0,1.479616641998291,0,0,0.611519992351532
1.34022851,0,0,1.4915876388549805,0,0,0.8408399820327759
1.341226034,0,0,1.5849615335464478,0,0,1.223039984703064
1.342226577,0,0,1.5155296325683594,0,0,0.7644000053405762
1.343233471,0,0,1.4221558570861816,0,0,0.9172800183296204
1.344226144,0,0,1.4173674583435059,0,0,0.9937199950218201
1.345226482,0,0,1.4508862495422363,0,0,0.7644000053405762
1.346225507,0,0,1.4508862495422363,0,0,0.9937199950218201
1.347228549,0,0,1.5155296325683594,0,0,0.6879600286483765
1.34822624,0,0,1.5394717454910278,0,0,0.9172800183296204
1.34922669,0,0,1.4939818382263184,0,0,0.8408399820327759
1.35022651,0,0,1.5394717454910278,0,0,0.8408399820327759
1.351313663,0,0,1.4724340438842773,0,0,0.9172800183296204
1.352593165,0,0,1.4724340438842773,0,0,0.8408399820327759
1.353280952,0,0,1.434126853942871,0,0,0.5350799560546875
1.354267865,0,0,1.4221558570861816,0,0,0.8408399820327759
1.355269352,0,0,1.3646949529647827,0,0,0.9937199950218201
1.356313987,0,0,1.359906554222107,0,0,0.8408399820327759
1.357300715,0,0,1.3215993642807007,0,0,0.7644000053405762
1.3582836280000001,0,0,1.5298948287963867,0,0,0.6879600286483765
1.359472335,0,0,1.5298948287963867,0,0,0.8408399820327759
1.360256991,0,0,1.5442601442337036,0,0,1.1466000080108643
1.361247404,0,0,1.5753847360610962,0,0,0.4586400091648102
1.362233521,0,0,1.558625340461731,0,0,0.8408399820327759
1.363280656,0,0,1.6112977266311646,0,0,0.7644000053405762
1.364240958,0,0,1.4987702369689941,0,0,0.7644000053405762
1.365246889,0,0,1.3096283674240112,0,0,0.6879600286483765
1.366247006,0,0,1.3479355573654175,0,0,0.611519992351532
1.367259549,0,0,1.3120225667953491,0,0,0.6879600286483765
1.368227629,0,0,1.2737152576446533,0,0,0.7644000053405762
1.369313189,0,0,1.335964560508728,0,0,0.4586400091648102
1.37022764,0,0,1.5490485429763794,0,0,0.9172800183296204
1.371224812,0,0,1.6160861253738403,0,0,0.9937199950218201
1.372222336,0,0,1.5634137392044067,0,0,0.4586400091648102
1.373222045,0,0,1.5322890281677246,0,0,0.5350799560546875
1.374222199,0,0,1.5538369417190552,0,0,0.9937199950218201
1.375226186,0,0,1.3670891523361206,0,0,0.6879600286483765
1.376225155,0,0,1.338358759880066,0,0,0.8408399820327759
1.377224512,0,0,1.3670891523361206,0,0,0.9172800183296204
1.37822474,0,0,1.3192051649093628,0,0,0.9172800183296204
1.379223264,0,0,1.3838485479354858,0,0,0.9937199950218201
1.380221566,0,0,1.4652514457702637,0,0,0.9937199950218201
1.381221942,0,0,1.5921441316604614,0,0,0.9937199950218201
1.382222114,0,0,1.5083470344543457,0,0,1.070159912109375
1.383225379,0,0,1.4748282432556152,0,0,0.611519992351532
1.3842245690000001,0,0,1.522712230682373,0,0,1.070159912109375
1.385224834,0,0,1.6065093278884888,0,0,1.070159912109375
1.3862246360000001,0,0,1.434126853942871,0,0,0.6879600286483765
1.387225364,0,0,1.400607943534851,0,0,0.7644000053405762
1.388224925,0,0,1.381454348564148,0,0,0.8408399820327759
1.38922456,0,0,1.3862427473068237,0,0,0.9172800183296204
1.390224529,0,0,1.3670891523361206,0,0,1.070159912109375
1.391224627,0,0,1.414973258972168,0,0,0.7644000053405762
1.3922247429999999,0,0,1.5658079385757446,0,0,0.8408399820327759
1.393224767,0,0,1.6424223184585571,0,0,1.1466000080108643
1.39422468,0,0,1.5418659448623657,0,0,0.611519992351532
1.395223167,0,0,1.4915876388549805,0,0,0.8408399820327759
1.3962224509999999,0,0,1.50355863571167,0,0,0.9172800183296204
1.397221938,0,0,1.4628572463989258,0,0,0.7644000053405762
1.398221795,0,0,1.4628572463989258,0,0,0.8408399820327759
1.399226616,0,0,1.4197616577148438,0,0,0.9937199950218201
1.400224806,0,0,1.3479355573654175,0,0,0.4586400091648102
1.401224719,0,0,1.4053963422775269,0,0,1.070159912109375
1.402224466,0,0,1.460463047027588,0,0,0.8408399820327759
1.403224804,0,0,1.525106430053711,0,0,0.9172800183296204
1.404224551,0,0,1.4413094520568848,0,0,1.070159912109375
1.405223908,0,0,1.479616641998291,0,0,0.611519992351532
1.406229506,0,0,1.479616641998291,0,0,0.611519992351532
1.4072256410000001,0,0,1.5418659448623657,0,0,1.1466000080108643
1.408224869,0,0,1.4724340438842773,0,0,0.6879600286483765
1.409226171,0,0,1.3623007535934448,0,0,0.9172800183296204
1.410225214,0,0,1.3766659498214722,0,0,0.611519992351532
1.411224756,0,0,1.3239935636520386,0,0,0.6879600286483765
1.412224651,0,0,1.3048399686813354,0,0,0.9172800183296204
1.413224767,0,0,1.2880805730819702,0,0,1.070159912109375
1.414224551,0,0,1.4221558570861816,0,0,0.7644000053405762
1.415226149,0,0,1.4939818382263184,0,0,1.070159912109375
1.4162244689999999,0,0,1.5514427423477173,0,0,0.8408399820327759
1.417224419,0,0,1.5897499322891235,0,0,0.7644000053405762
1.418224517,0,0,1.5131354331970215,0,0,1.070159912109375
1.419225727,0,0,1.4676456451416016,0,0,0.8408399820327759
1.420224473,0,0,1.3862427473068237,0,0,0.8408399820327759
1.42122459,0,0,1.381454348564148,0,0,0.611519992351532
1.422224373,0,0,1.3120225667953491,0,0,0.8408399820327759
1.423225286,0,0,1.338358759880066,0,0,0.9937199950218201
1.424224569,0,0,1.4173674583435059,0,0,0.6879600286483765
1.4252245559999999,0,0,1.525106430053711,0,0,0.9172800183296204
1.426224488,0,0,1.5275006294250488,0,0,0.9172800183296204
1.427225252,0,0,1.5849615335464478,0,0,0.611519992351532
1.428224388,0,0,1.4724340438842773,0,0,0.9172800183296204
1.42922443,0,0,1.3934253454208374,0,0,1.223039984703064
1.430224436,0,0,1.4077905416488647,0,0,0.4586400091648102
1.431225627,0,0,1.3623007535934448,0,0,0.9937199950218201
1.432224447,0,0,1.4652514457702637,0,0,0.8408399820327759
1.433224378,0,0,1.403002142906189,0,0,1.2994799613952637
1.434224495,0,0,1.4269442558288574,0,0,0.7644000053405762
1.435225649,0,0,1.434126853942871,0,0,0.7644000053405762
1.436224358,0,0,1.4915876388549805,0,0,0.5350799560546875
1.4372527339999999,0,0,1.479616641998291,0,0,0.9172800183296204
1.438769288,0,0,1.479616641998291,0,0,0.6879600286483765
1.439261967,0,0,1.5466543436050415,0,0,0.6879600286483765
1.440249843,0,0,1.599326729774475,0,0,0.9172800183296204
1.441278385,0,0,1.5059528350830078,0,0,0.7644000053405762
1.442298594,0,0,1.4748282432556152,0,0,0.9172800183296204
1.443280137,0,0,1.3958195447921753,0,0,0.7644000053405762
1.44427418,0,0,1.3910311460494995,0,0,1.070159912109375
1.445269241,0,0,1.381454348564148,0,0,0.6879600286483765
1.446279598,0,0,1.4101848602294922,0,0,0.9172800183296204
1.447295177,0,0,1.501164436340332,0,0,0.9937199950218201
1.4482783129999999,0,0,1.5825673341751099,0,0,0.8408399820327759
1.4492674669999999,0,0,1.4939818382263184,0,0,0.6879600286483765
1.450288046,0,0,1.5322890281677246,0,0,0.611519992351532
1.451291774,0,0,1.580173134803772,0,0,0.9172800183296204
1.452282891,0,0,1.5322890281677246,0,0,0.7644000053405762
1.453244897,0,0,1.3958195447921753,0,0,0.611519992351532
1.45423631,0,0,1.3120225667953491,0,0,0.6879600286483765
1.455236945,0,0,1.3000515699386597,0,0,0.8408399820327759
1.456226432,0,0,1.2713210582733154,0,0,0.7644000053405762
1.4572259189999999,0,0,1.37906014919281,0,0,0.9937199950218201
1.458225776,0,0,1.4269442558288574,0,0,0.6879600286483765
1.459227208,0,0,1.4748282432556152,0,0,0.7644000053405762
1.460225806,0,0,1.501164436340332,0,0,0.305759996175766
1.46122596,0,0,1.5658079385757446,0,0,0.6879600286483765
1.462225762,0,0,1.4939818382263184,0,0,0.8408399820327759
1.4632271559999999,0,0,1.3886369466781616,0,0,0.7644000053405762
1.464225976,0,0,1.37906014919281,0,0,0.9172800183296204
1.465225371,0,0,1.4221558570861816,0,0,0.8408399820327759
1.466226006,0,0,1.3407529592514038,0,0,0.9172800183296204
1.467227493,0,0,1.3958195447921753,0,0,0.9172800183296204
1.468225739,0,0,1.434126853942871,0,0,0.9937199950218201
1.469225263,0,0,1.53707754611969,0,0,0.6879600286483765
1.470225769,0,0,1.577778935432434,0,0,0.7644000053405762
1.471227071,0,0,1.4772224426269531,0,0,0.8408399820327759
1.4722255020000001,0,0,1.3886369466781616,0,0,0.6879600286483765
1.4732258599999999,0,0,1.4772224426269531,0,0,0.8408399820327759
1.474225791,0,0,1.3479355573654175,0,0,0.9172800183296204
1.475229167,0,0,1.3766659498214722,0,0,0.9172800183296204
1.476226821,0,0,1.45806884765625,0,0,1.1466000080108643
1.477228808,0,0,1.4293384552001953,0,0,0.9937199950218201
1.478226962,0,0,1.45806884765625,0,0,0.6879600286483765
1.479225745,0,0,1.4077905416488647,0,0,0.611519992351532
1.480225843,0,0,1.5466543436050415,0,0,0.5350799560546875
1.481225812,0,0,1.5849615335464478,0,0,0.9937199950218201
1.482225669,0,0,1.534683346748352,0,0,0.6879600286483765
1.4832256369999999,0,0,1.5394717454910278,0,0,0.9172800183296204
1.484225699,0,0,1.522712230682373,0,0,0.9937199950218201
1.485225815,0,0,1.4891934394836426,0,0,0.9172800183296204
1.486225747,0,0,1.37906014919281,0,0,0.9937199950218201
1.487225697,0,0,1.381454348564148,0,0,0.8408399820327759
1.488226702,0,0,1.3694833517074585,0,0,0.6879600286483765
1.489226449,0,0,1.3623007535934448,0,0,0.9937199950218201
1.490225269,0,0,1.3982137441635132,0,0,0.8408399820327759
1.4912259780000001,0,0,1.5203180313110352,0,0,1.1466000080108643
1.492225632,0,0,1.5203180313110352,0,0,0.9172800183296204
1.493225749,0,0,1.5729905366897583,0,0,0.8408399820327759
1.49422555,0,0,1.5490485429763794,0,0,0.6879600286483765
1.495227704,0,0,1.5083470344543457,0,0,0.611519992351532
1.496226247,0,0,1.455674648284912,0,0,0.5350799560546875
1.497225567,0,0,1.37906014919281,0,0,0.7644000053405762
1.498225739,0,0,1.4173674583435059,0,0,0.7644000053405762
1.499226856,0,0,1.4221558570861816,0,0,0.6879600286483765
1.500225861,0,0,1.4437036514282227,0,0,0.6879600286483765
1.501226256,0,0,1.5538369417190552,0,0,0.611519992351532
1.502226076,0,0,1.5490485429763794,0,0,0.7644000053405762
1.503227137,0,0,1.5131354331970215,0,0,0.9937199950218201
1.50423968,0,0,1.5466543436050415,0,0,0.611519992351532
1.5052277969999999,0,0,1.577778935432434,0,0,0.8408399820327759
1.506225691,0,0,1.558625340461731,0,0,0.6879600286483765
1.507227104,0,0,1.4915876388549805,0,0,0.611519992351532
1.508225221,0,0,1.359906554222107,0,0,0.611519992351532
1.5092261150000001,0,0,1.37906014919281,0,0,0.9172800183296204
1.510225769,0,0,1.4772224426269531,0,0,0.9172800183296204
1.5112269600000001,0,0,1.4197616577148438,0,0,0.9172800183296204
1.51222541,0,0,1.4221558570861816,0,0,0.6879600286483765
1.513225748,0,0,1.4676456451416016,0,0,0.611519992351532
1.514225884,0,0,1.4867992401123047,0,0,0.7644000053405762
1.515226204,0,0,1.4891934394836426,0,0,0.3822000026702881
1.516225895,0,0,1.5466543436050415,0,0,1.070159912109375
1.517226067,0,0,1.580173134803772,0,0,1.070159912109375
1.518225813,0,0,1.4915876388549805,0,0,0.611519992351532
1.519227041,0,0,1.3934253454208374,0,0,1.070159912109375
1.520225787,0,0,1.4101848602294922,0,0,0.7644000053405762
1.5212258300000001,0,0,1.4077905416488647,0,0,0.611519992351532
1.5222257240000001,0,0,1.3982137441635132,0,0,0.6879600286483765
1.5232267670000001,0,0,1.3982137441635132,0,0,0.9172800183296204
1.524226069,0,0,1.525106430053711,0,0,0.9172800183296204
1.525225871,0,0,1.5634137392044067,0,0,1.070159912109375
1.5262256349999999,0,0,1.5131354331970215,0,0,0.611519992351532
1.527227011,0,0,1.501164436340332,0,0,0.6879600286483765
1.528225721,0,0,1.556231141090393,0,0,0.8408399820327759
1.529225967,0,0,1.414973258972168,0,0,0.8408399820327759
1.530225528,0,0,1.3479355573654175,0,0,0.8408399820327759
1.53122633,0,0,1.4413094520568848,0,0,0.8408399820327759
1.532225669,0,0,1.359906554222107,0,0,0.9937199950218201
1.533225341,0,0,1.4173674583435059,0,0,0.8408399820327759
1.534225421,0,0,1.4437036514282227,0,0,0.611519992351532
1.535227278,0,0,1.5466543436050415,0,0,0.5350799560546875
1.5362258020000001,0,0,1.599326729774475,0,0,0.9937199950218201
1.537225826,0,0,1.5921441316604614,0,0,0.611519992351532
1.538225702,0,0,1.5610195398330688,0,0,0.9937199950218201
1.5392270780000001,0,0,1.5849615335464478,0,0,1.070159912109375
1.540225491,0,0,1.5418659448623657,0,0,0.7644000053405762
1.541226071,0,0,1.4101848602294922,0,0,0.8408399820327759
1.542225835,0,0,1.4437036514282227,0,0,0.7644000053405762
1.543225971,0,0,1.3239935636520386,0,0,0.9172800183296204
1.544225606,0,0,1.3766659498214722,0,0,0.6879600286483765
1.545226,0,0,1.4389152526855469,0,0,0.7644000053405762
1.546225802,0,0,1.5849615335464478,0,0,1.223039984703064
1.547226252,0,0,1.534683346748352,0,0,1.070159912109375
1.548225795,0,0,1.5753847360610962,0,0,0.6879600286483765
1.549225763,0,0,1.5514427423477173,0,0,0.9937199950218201
1.5502264540000001,0,0,1.522712230682373,0,0,0.9172800183296204
1.551227274,0,0,1.5203180313110352,0,0,0.6879600286483765
1.55222578,0,0,1.5107412338256836,0,0,0.8408399820327759
1.553225693,0,0,1.434126853942871,0,0,0.9172800183296204
1.5542256060000001,0,0,1.482010841369629,0,0,0.7644000053405762
1.5552264999999998,0,0,1.434126853942871,0,0,1.070159912109375
1.5562260430000001,0,0,1.3886369466781616,0,0,0.9937199950218201
1.557225845,0,0,1.4437036514282227,0,0,0.611519992351532
1.558225998,0,0,1.5921441316604614,0,0,0.6879600286483765
1.55922693,0,0,1.656787633895874,0,0,0.611519992351532
1.560226546,0,0,1.6160861253738403,0,0,0.5350799560546875
1.5612258300000001,0,0,1.5658079385757446,0,0,0.611519992351532
1.562225539,0,0,1.4508862495422363,0,0,0.6879600286483765
1.563225804,0,0,1.400607943534851,0,0,0.9937199950218201
1.5642233829999999,0,0,1.3503297567367554,0,0,0.9172800183296204
1.565223167,0,0,1.3623007535934448,0,0,0.8408399820327759
1.566223265,0,0,1.4748282432556152,0,0,0.9172800183296204
1.567229196,0,0,1.436521053314209,0,0,0.9172800183296204
1.568234943,0,0,1.436521053314209,0,0,0.611519992351532
1.5692267439999998,0,0,1.50355863571167,0,0,0.9937199950218201
1.570225824,0,0,1.4891934394836426,0,0,0.4586400091648102
1.571231941,0,0,1.4963760375976563,0,0,0.7644000053405762
1.572227187,0,0,1.5275006294250488,0,0,0.7644000053405762
1.573225582,0,0,1.434126853942871,0,0,0.7644000053405762
1.574226013,0,0,1.359906554222107,0,0,1.070159912109375
1.575226204,0,0,1.4460978507995605,0,0,0.611519992351532
1.5762256350000001,0,0,1.434126853942871,0,0,0.9172800183296204
1.577225307,0,0,1.3862427473068237,0,0,0.7644000053405762
1.578225961,0,0,1.400607943534851,0,0,1.070159912109375
1.579225744,0,0,1.5705963373184204,0,0,0.8408399820327759
1.580225935,0,0,1.4891934394836426,0,0,0.9172800183296204
1.581225756,0,0,1.4987702369689941,0,0,0.6879600286483765
1.582225706,0,0,1.4628572463989258,0,0,0.9172800183296204
1.5832260630000001,0,0,1.4748282432556152,0,0,0.9937199950218201
1.584225976,0,0,1.3527239561080933,0,0,0.9172800183296204
1.585227315,0,0,1.2234370708465576,0,0,0.8408399820327759
1.586260987,0,0,1.335964560508728,0,0,1.1466000080108643
1.587247807,0,0,1.3455413579940796,0,0,0.7644000053405762
1.588226702,0,0,1.2832920551300049,0,0,0.9937199950218201
1.589225763,0,0,1.4221558570861816,0,0,0.6879600286483765
1.590225768,0,0,1.4987702369689941,0,0,0.8408399820327759
1.591226459,0,0,1.4987702369689941,0,0,0.6879600286483765
1.592225891,0,0,1.4484920501708984,0,0,0.5350799560546875
1.5932258959999999,0,0,1.5322890281677246,0,0,0.8408399820327759
1.594225828,0,0,1.6160861253738403,0,0,0.6879600286483765
1.5952290919999998,0,0,1.4676456451416016,0,0,0.4586400091648102
1.59622595,0,0,1.37906014919281,0,0,0.9172800183296204
1.597225585,0,0,1.3503297567367554,0,0,0.8408399820327759
1.598225683,0,0,1.381454348564148,0,0,0.5350799560546875
1.599227189,0,0,1.381454348564148,0,0,0.9172800183296204
1.600225805,0,0,1.3766659498214722,0,0,0.9172800183296204
1.601225737,0,0,1.6376339197158813,0,0,0.9937199950218201
1.602225743,0,0,1.5682021379470825,0,0,0.9937199950218201
1.6032270259999999,0,0,1.50355863571167,0,0,0.5350799560546875
1.604225791,0,0,1.436521053314209,0,0,0.8408399820327759
1.605225963,0,0,1.4700398445129395,0,0,0.6879600286483765
1.60622558,0,0,1.4173674583435059,0,0,1.070159912109375
1.6072268809999999,0,0,1.3982137441635132,0,0,0.9937199950218201
1.608225591,0,0,1.41257905960083,0,0,0.9937199950218201
1.609225726,0,0,1.3527239561080933,0,0,0.9937199950218201
1.610225824,0,0,1.3982137441635132,0,0,1.070159912109375
1.611226737,0,0,1.414973258972168,0,0,0.6879600286483765
1.612225687,0,0,1.5610195398330688,0,0,0.6879600286483765
1.6132256,0,0,1.6184803247451782,0,0,1.223039984703064
1.6142260309999998,0,0,1.5825673341751099,0,0,0.6879600286483765
1.615226778,0,0,1.501164436340332,0,0,0.8408399820327759
1.6162253199999999,0,0,1.50355863571167,0,0,0.4586400091648102
1.6172259549999999,0,0,1.4484920501708984,0,0,0.7644000053405762
1.618242127,0,0,1.3910311460494995,0,0,0.9172800183296204
1.619229448,0,0,1.4532804489135742,0,0,0.7644000053405762
1.6202252129999999,0,0,1.4221558570861816,0,0,1.223039984703064
1.6212258849999999,0,0,1.4053963422775269,0,0,0.7644000053405762
1.622225835,0,0,1.4101848602294922,0,0,0.611519992351532
1.623226933,0,0,1.5514427423477173,0,0,0.4586400091648102
1.624225735,0,0,1.5179238319396973,0,0,0.7644000053405762
1.625225889,0,0,1.534683346748352,0,0,0.8408399820327759
1.626229653,0,0,1.5753847360610962,0,0,1.1466000080108643
1.627227826,0,0,1.558625340461731,0,0,0.6879600286483765
1.628225794,0,0,1.479616641998291,0,0,0.611519992351532
1.629225744,0,0,1.4484920501708984,0,0,1.223039984703064
1.6302257679999999,0,0,1.436521053314209,0,0,0.8408399820327759
1.631227089,0,0,1.4173674583435059,0,0,0.6879600286483765
1.632234242,0,0,1.403002142906189,0,0,0.7644000053405762
1.633226563,0,0,1.4939818382263184,0,0,0.6879600286483765
1.634225716,0,0,1.5394717454910278,0,0,0.8408399820327759
1.6352268699999999,0,0,1.5969325304031372,0,0,0.611519992351532
1.636225839,0,0,1.6496049165725708,0,0,0.8408399820327759
1.637225918,0,0,1.460463047027588,0,0,0.9937199950218201
1.638225498,0,0,1.4676456451416016,0,0,0.6879600286483765
1.6392807619999998,0,0,1.5179238319396973,0,0,0.3822000026702881
1.640227842,0,0,1.414973258972168,0,0,0.9937199950218201
1.641347439,0,0,1.4676456451416016,0,0,0.611519992351532
1.6423508519999999,0,0,1.3862427473068237,0,0,0.8408399820327759
1.643351117,0,0,1.3455413579940796,0,0,0.9937199950218201
1.644348011,0,0,1.381454348564148,0,0,0.6879600286483765
1.6453489060000002,0,0,1.601720929145813,0,0,0.9172800183296204
1.6463482809999999,0,0,1.6208745241165161,0,0,0.9172800183296204
1.6473507870000001,0,0,1.525106430053711,0,0,0.611519992351532
1.648349107,0,0,1.4891934394836426,0,0,0.9172800183296204
1.649348465,0,0,1.4987702369689941,0,0,0.8408399820327759
1.650348044,0,0,1.434126853942871,0,0,0.8408399820327759
1.651351031,0,0,1.3646949529647827,0,0,0.9172800183296204
1.6523489630000001,0,0,1.3742717504501343,0,0,0.8408399820327759
1.653348468,0,0,1.3646949529647827,0,0,0.6879600286483765
1.654348715,0,0,1.4197616577148438,0,0,0.9937199950218201
1.6553506279999999,0,0,1.3862427473068237,0,0,0.8408399820327759
1.656348744,0,0,1.5275006294250488,0,0,0.611519992351532
1.657348491,0,0,1.525106430053711,0,0,1.2994799613952637
1.658348441,0,0,1.5131354331970215,0,0,0.6879600286483765
1.65935078,0,0,1.5131354331970215,0,0,0.8408399820327759
1.6603489329999999,0,0,1.5394717454910278,0,0,0.9937199950218201
1.66134855,0,0,1.4724340438842773,0,0,0.6879600286483765
1.662348537,0,0,1.3455413579940796,0,0,0.9172800183296204
1.663351376,0,0,1.4317326545715332,0,0,0.5350799560546875
1.6643484549999998,0,0,1.4245500564575195,0,0,0.9172800183296204
1.665347868,0,0,1.3335703611373901,0,0,1.1466000080108643
1.666348207,0,0,1.3910311460494995,0,0,0.8408399820327759
1.667350176,0,0,1.5322890281677246,0,0,0.7644000053405762
1.668348385,0,0,1.558625340461731,0,0,1.1466000080108643
1.669348039,0,0,1.522712230682373,0,0,0.611519992351532
1.670348711,0,0,1.5418659448623657,0,0,1.070159912109375
1.671349457,0,0,1.5107412338256836,0,0,0.8408399820327759
1.672348222,0,0,1.4676456451416016,0,0,0.9172800183296204
1.6733483200000001,0,0,1.3431471586227417,0,0,0.9172800183296204
1.674347955,0,0,1.3742717504501343,0,0,0.9172800183296204
1.675350868,0,0,1.3838485479354858,0,0,0.7644000053405762
1.676348504,0,0,1.37906014919281,0,0,0.8408399820327759
1.67735125,0,0,1.400607943534851,0,0,0.6879600286483765
1.678348348,0,0,1.5083470344543457,0,0,0.8408399820327759
1.67934865,0,0,1.5538369417190552,0,0,0.9937199950218201
1.6803485070000002,0,0,1.5849615335464478,0,0,0.6879600286483765
1.681347402,0,0,1.601720929145813,0,0,1.070159912109375
1.682348629,0,0,1.4963760375976563,0,0,0.8408399820327759
1.683349172,0,0,1.434126853942871,0,0,0.611519992351532
1.6843488070000001,0,0,1.4484920501708984,0,0,0.6879600286483765
1.6853498679999999,0,0,1.3934253454208374,0,0,0.5350799560546875
1.686351392,0,0,1.3287819623947144,0,0,0.7644000053405762
1.687347787,0,0,1.3503297567367554,0,0,0.9172800183296204
1.688348515,0,0,1.4077905416488647,0,0,0.7644000053405762
1.689348354,0,0,1.534683346748352,0,0,0.7644000053405762
1.6903484519999998,0,0,1.525106430053711,0,0,0.8408399820327759
1.691348476,0,0,1.5753847360610962,0,0,0.8408399820327759
1.692348537,0,0,1.5298948287963867,0,0,0.9172800183296204
1.693348357,0,0,1.4963760375976563,0,0,1.070159912109375
1.694349307,0,0,1.455674648284912,0,0,0.611519992351532
1.695351331,0,0,1.4532804489135742,0,0,1.070159912109375
1.69636517,0,0,1.4269442558288574,0,0,0.7644000053405762
1.697350602,0,0,1.3455413579940796,0,0,0.6879600286483765
1.698348626,0,0,1.3551181554794312,0,0,0.7644000053405762
1.699350798,0,0,1.4532804489135742,0,0,0.8408399820327759
1.7003483959999999,0,0,1.5442601442337036,0,0,0.9172800183296204
1.7013486420000001,0,0,1.4891934394836426,0,0,1.070159912109375
1.7023484070000001,0,0,1.4724340438842773,0,0,0.5350799560546875
1.703350283,0,0,1.4484920501708984,0,0,0.9937199950218201
1.704348622,0,0,1.5514427423477173,0,0,0.6879600286483765
1.7053484239999999,0,0,1.4221558570861816,0,0,0.9937199950218201
1.706354503,0,0,1.3551181554794312,0,0,0.8408399820327759
1.707348842,0,0,1.357512354850769,0,0,0.4586400091648102
1.708348978,0,0,1.3407529592514038,0,0,0.9172800183296204
1.709348705,0,0,1.3910311460494995,0,0,0.9172800183296204
1.710348526,0,0,1.3479355573654175,0,0,0.9172800183296204
1.711349679,0,0,1.53707754611969,0,0,0.9937199950218201
1.7123482399999999,0,0,1.558625340461731,0,0,0.7644000053405762
1.713349487,0,0,1.5514427423477173,0,0,0.611519992351532
1.714351215,0,0,1.599326729774475,0,0,0.8408399820327759
1.715355609,0,0,1.53707754611969,0,0,1.1466000080108643
1.7163486890000001,0,0,1.460463047027588,0,0,0.6879600286483765
1.717348453,0,0,1.403002142906189,0,0,1.070159912109375
1.718357348,0,0,1.3910311460494995,0,0,0.611519992351532
1.719371168,0,0,1.359906554222107,0,0,0.6879600286483765
1.720374118,0,0,1.3287819623947144,0,0,1.070159912109375
1.7213803460000001,0,0,1.4652514457702637,0,0,0.8408399820327759
1.722370666,0,0,1.522712230682373,0,0,0.9172800183296204
1.723379949,0,0,1.4676456451416016,0,0,0.9937199950218201
1.724371381,0,0,1.5538369417190552,0,0,0.611519992351532
1.725372053,0,0,1.5682021379470825,0,0,0.9172800183296204
1.726400762,0,0,1.580173134803772,0,0,0.8408399820327759
1.727396545,0,0,1.4963760375976563,0,0,0.6879600286483765
1.728405569,0,0,1.460463047027588,0,0,0.7644000053405762
1.729394519,0,0,1.4173674583435059,0,0,0.7644000053405762
1.730406192,0,0,1.400607943534851,0,0,0.8408399820327759
1.731431919,0,0,1.400607943534851,0,0,1.070159912109375
1.732386888,0,0,1.3646949529647827,0,0,0.8408399820327759
1.733405856,0,0,1.460463047027588,0,0,0.5350799560546875
1.7343813620000001,0,0,1.4915876388549805,0,0,0.9172800183296204
1.735382794,0,0,1.5538369417190552,0,0,0.4586400091648102
1.73636317,0,0,1.6376339197158813,0,0,0.9172800183296204
1.737370509,0,0,1.6160861253738403,0,0,0.6879600286483765
1.738390292,0,0,1.53707754611969,0,0,0.6879600286483765
1.739380742,0,0,1.4053963422775269,0,0,0.8408399820327759
1.7406034479999999,0,0,1.4053963422775269,0,0,0.611519992351532
1.74137992,0,0,1.3958195447921753,0,0,0.6879600286483765
1.742389684,0,0,1.357512354850769,0,0,0.9172800183296204
1.7434657260000002,0,0,1.3742717504501343,0,0,0.9172800183296204
1.744460676,0,0,1.5490485429763794,0,0,1.070159912109375
1.745406645,0,0,1.5514427423477173,0,0,1.070159912109375
1.746453539,0,0,1.482010841369629,0,0,0.6879600286483765
1.747455119,0,0,1.4987702369689941,0,0,0.9937199950218201
1.748482957,0,0,1.4724340438842773,0,0,0.8408399820327759
1.749422982,0,0,1.434126853942871,0,0,0.8408399820327759
1.750406043,0,0,1.2689268589019775,0,0,1.1466000080108643
1.751491474,0,0,1.2330138683319092,0,0,0.6879600286483765
1.752414517,0,0,1.335964560508728,0,0,0.9172800183296204
1.753410819,0,0,1.37906014919281,0,0,0.7644000053405762
1.754462843,0,0,1.4700398445129395,0,0,0.7644000053405762
1.7554270889999999,0,0,1.50355863571167,0,0,0.7644000053405762
1.7564270579999999,0,0,1.5059528350830078,0,0,0.8408399820327759
1.757458193,0,0,1.53707754611969,0,0,0.611519992351532
1.758460494,0,0,1.556231141090393,0,0,0.9172800183296204
1.759409167,0,0,1.6041151285171509,0,0,0.611519992351532
1.760453228,0,0,1.5107412338256836,0,0,0.6879600286483765
1.7614230119999998,0,0,1.37906014919281,0,0,0.8408399820327759
1.762443628,0,0,1.4413094520568848,0,0,0.8408399820327759
1.76340706,0,0,1.3407529592514038,0,0,0.6879600286483765
1.764433435,0,0,1.3623007535934448,0,0,1.070159912109375
1.765425793,0,0,1.4317326545715332,0,0,0.8408399820327759
1.766462502,0,0,1.4652514457702637,0,0,0.7644000053405762
1.76742873,0,0,1.4460978507995605,0,0,0.8408399820327759
1.768419199,0,0,1.5705963373184204,0,0,0.5350799560546875
1.769401667,0,0,1.5322890281677246,0,0,0.9937199950218201
1.770438506,0,0,1.4628572463989258,0,0,0.8408399820327759
1.771395734,0,0,1.4460978507995605,0,0,0.6879600286483765
1.772399165,0,0,1.381454348564148,0,0,0.8408399820327759
1.773406893,0,0,1.4053963422775269,0,0,0.8408399820327759
1.774396917,0,0,1.4173674583435059,0,0,0.9172800183296204
1.7754777000000002,0,0,1.400607943534851,0,0,0.9937199950218201
1.776417539,0,0,1.400607943534851,0,0,0.5350799560546875
1.777403156,0,0,1.5418659448623657,0,0,0.6879600286483765
1.778459346,0,0,1.534683346748352,0,0,0.9172800183296204
1.779496259,0,0,1.5490485429763794,0,0,0.5350799560546875
1.780437654,0,0,1.5705963373184204,0,0,0.7644000053405762
1.78140653,0,0,1.4508862495422363,0,0,0.8408399820327759
1.7824671090000002,0,0,1.414973258972168,0,0,0.9172800183296204
1.783497003,0,0,1.400607943534851,0,0,0.9172800183296204
1.784432676,0,0,1.4293384552001953,0,0,0.7644000053405762
1.785415071,0,0,1.3287819623947144,0,0,0.9172800183296204
1.786393651,0,0,1.292868971824646,0,0,0.9937199950218201
1.787445341,0,0,1.455674648284912,0,0,0.6879600286483765
1.788400939,0,0,1.5634137392044067,0,0,0.8408399820327759
1.789447574,0,0,1.5753847360610962,0,0,0.9172800183296204
1.790452783,0,0,1.5059528350830078,0,0,0.6879600286483765
1.791423382,0,0,1.4963760375976563,0,0,0.8408399820327759
1.7924295909999999,0,0,1.558625340461731,0,0,0.7644000053405762
1.793404986,0,0,1.4197616577148438,0,0,0.9172800183296204
1.794396621,0,0,1.3120225667953491,0,0,0.9937199950218201
1.7954187560000001,0,0,1.338358759880066,0,0,0.5350799560546875
1.796411262,0,0,1.2856862545013428,0,0,1.070159912109375
1.7974048040000001,0,0,1.2880805730819702,0,0,0.8408399820327759
1.798396995,0,0,1.4269442558288574,0,0,0.4586400091648102
1.7994034079999999,0,0,1.4987702369689941,0,0,0.611519992351532
1.800392951,0,0,1.5179238319396973,0,0,0.7644000053405762
1.801401363,0,0,1.5275006294250488,0,0,0.7644000053405762
1.802454368,0,0,1.45806884765625,0,0,0.7644000053405762
1.8034224669999999,0,0,1.5298948287963867,0,0,0.9937199950218201
1.80442101,0,0,1.4077905416488647,0,0,0.8408399820327759
1.8054169039999999,0,0,1.335964560508728,0,0,1.2994799613952637
1.8064672609999999,0,0,1.37906014919281,0,0,0.7644000053405762
1.8074268409999998,0,0,1.3192051649093628,0,0,0.9937199950218201
1.808418791,0,0,1.292868971824646,0,0,1.070159912109375
1.8094145560000001,0,0,1.403002142906189,0,0,0.611519992351532
1.81044432,0,0,1.5298948287963867,0,0,0.6879600286483765
1.8114317519999998,0,0,1.625662922859192,0,0,1.070159912109375
1.8124003690000001,0,0,1.5897499322891235,0,0,0.4586400091648102
1.8133852080000001,0,0,1.5322890281677246,0,0,0.8408399820327759
1.814403806,0,0,1.3958195447921753,0,0,0.5350799560546875
1.815454978,0,0,1.3862427473068237,0,0,0.7644000053405762
1.816423743,0,0,1.37906014919281,0,0,0.9937199950218201
1.817462377,0,0,1.534683346748352,0,0,0.8408399820327759
1.81844305,0,0,1.4077905416488647,0,0,0.9172800183296204
1.81940913,0,0,1.2689268589019775,0,0,0.7644000053405762
1.82044132,0,0,1.2617442607879639,0,0,0.8408399820327759
1.8214733440000002,0,0,1.4891934394836426,0,0,0.611519992351532
1.822456609,0,0,1.4987702369689941,0,0,0.9172800183296204
1.8234165039999999,0,0,1.4748282432556152,0,0,0.5350799560546875
1.8244878789999999,0,0,1.5155296325683594,0,0,0.8408399820327759
1.8255032359999999,0,0,1.5466543436050415,0,0,0.8408399820327759
1.826458224,0,0,1.4700398445129395,0,0,0.9937199950218201
1.827410082,0,0,1.4077905416488647,0,0,0.8408399820327759
1.8283996249999999,0,0,1.3646949529647827,0,0,0.9172800183296204
1.829432056,0,0,1.4652514457702637,0,0,0.6879600286483765
1.830402358,0,0,1.3886369466781616,0,0,0.8408399820327759
1.831439993,0,0,1.2952631711959839,0,0,0.8408399820327759
1.832442961,0,0,1.4652514457702637,0,0,0.611519992351532
1.833422245,0,0,1.5131354331970215,0,0,1.070159912109375
1.834454768,0,0,1.525106430053711,0,0,0.5350799560546875
1.835435959,0,0,1.5179238319396973,0,0,0.8408399820327759
1.836435187,0,0,1.4389152526855469,0,0,0.7644000053405762
1.838054981,0,0,1.4389152526855469,0,0,1.375920057296753
1.838664954,0,0,1.4628572463989258,0,0,0.7644000053405762
1.8406496140000002,0,0,1.4628572463989258,0,0,0.2293200045824051
1.840973406,0,0,1.4628572463989258,0,0,1.070159912109375
1.8414051599999999,0,0,1.3934253454208374,0,0,1.223039984703064
1.842610496,0,0,1.3934253454208374,0,0,0.7644000053405762
1.843438281,0,0,1.501164436340332,0,0,0.9172800183296204
1.8443133440000001,0,0,1.5418659448623657,0,0,0.6879600286483765
1.84529372,0,0,1.5634137392044067,0,0,0.6879600286483765
1.846294541,0,0,1.525106430053711,0,0,0.7644000053405762
1.8472897499999998,0,0,1.534683346748352,0,0,0.7644000053405762
1.848301033,0,0,1.4891934394836426,0,0,0.8408399820327759
1.849293131,0,0,1.4053963422775269,0,0,0.6879600286483765
1.850316581,0,0,1.4221558570861816,0,0,0.6879600286483765
1.851283328,0,0,1.4389152526855469,0,0,0.8408399820327759
1.8522694629999998,0,0,1.4532804489135742,0,0,0.9172800183296204
1.853647816,0,0,1.4532804489135742,0,0,0.5350799560546875
1.854257789,0,0,1.5107412338256836,0,0,0.8408399820327759
1.855271239,0,0,1.4915876388549805,0,0,1.1466000080108643
1.856282078,0,0,1.53707754611969,0,0,0.5350799560546875
1.857294639,0,0,1.5610195398330688,0,0,0.9937199950218201
1.8582697000000001,0,0,1.5682021379470825,0,0,1.070159912109375
1.859266984,0,0,1.3862427473068237,0,0,0.8408399820327759
1.8602928410000001,0,0,1.3192051649093628,0,0,1.1466000080108643
1.8613005679999999,0,0,1.3239935636520386,0,0,0.7644000053405762
1.862306555,0,0,1.314416766166687,0,0,0.9172800183296204
1.863407708,0,0,1.338358759880066,0,0,0.8408399820327759
1.8642988630000001,0,0,1.460463047027588,0,0,0.8408399820327759
1.865315164,0,0,1.5658079385757446,0,0,0.611519992351532
1.866326207,0,0,1.5155296325683594,0,0,0.7644000053405762
1.8672780279999999,0,0,1.5155296325683594,0,0,0.611519992351532
1.868262848,0,0,1.5634137392044067,0,0,0.8408399820327759
1.8692623350000002,0,0,1.4939818382263184,0,0,0.8408399820327759
1.870264804,0,0,1.4460978507995605,0,0,0.5350799560546875
1.8712633840000001,0,0,1.335964560508728,0,0,0.8408399820327759
1.872247574,0,0,1.41257905960083,0,0,0.8408399820327759
1.873272246,0,0,1.3551181554794312,0,0,0.9172800183296204
1.8743151770000002,0,0,1.4173674583435059,0,0,0.9172800183296204
1.875301072,0,0,1.4676456451416016,0,0,0.8408399820327759
1.876261022,0,0,1.580173134803772,0,0,0.9172800183296204
1.877228473,0,0,1.5897499322891235,0,0,0.8408399820327759
1.878225923,0,0,1.5155296325683594,0,0,0.6879600286483765
1.879225299,0,0,1.5322890281677246,0,0,0.7644000053405762
1.880223601,0,0,1.53707754611969,0,0,1.070159912109375
1.881223199,0,0,1.460463047027588,0,0,0.7644000053405762
1.882223427,0,0,1.3910311460494995,0,0,1.223039984703064
1.883223617,0,0,1.4245500564575195,0,0,0.8408399820327759
1.884223271,0,0,1.3215993642807007,0,0,0.9172800183296204
1.885224369,0,0,1.3838485479354858,0,0,0.9937199950218201
1.8862280230000001,0,0,1.4676456451416016,0,0,0.6879600286483765
1.8872693059999999,0,0,1.4724340438842773,0,0,0.9172800183296204
1.888325033,0,0,1.6376339197158813,0,0,0.9937199950218201
1.8892674280000001,0,0,1.601720929145813,0,0,1.070159912109375
1.890458542,0,0,1.5825673341751099,0,0,0.611519992351532
1.891227458,0,0,1.5490485429763794,0,0,0.6879600286483765
1.892225871,0,0,1.4101848602294922,0,0,0.611519992351532
1.8932258210000001,0,0,1.4245500564575195,0,0,1.223039984703064
1.894222993,0,0,1.4053963422775269,0,0,0.8408399820327759
1.895223165,0,0,1.3958195447921753,0,0,1.070159912109375
1.896222208,0,0,1.3742717504501343,0,0,0.8408399820327759
1.8972220279999998,0,0,1.4772224426269531,0,0,0.7644000053405762
1.8982214229999999,0,0,1.6400281190872192,0,0,0.8408399820327759
1.899305112,0,0,1.5418659448623657,0,0,0.7644000053405762
1.900243304,0,0,1.4101848602294922,0,0,0.7644000053405762
1.901226458,0,0,1.501164436340332,0,0,0.9937199950218201
1.902222093,0,0,1.4844050407409668,0,0,1.1466000080108643
1.9032824499999998,0,0,1.5107412338256836,0,0,0.4586400091648102
1.9042243079999999,0,0,1.4293384552001953,0,0,1.223039984703064
1.905222314,0,0,1.3407529592514038,0,0,0.6879600286483765
1.906222004,0,0,1.3120225667953491,0,0,0.8408399820327759
1.9072242510000001,0,0,1.3934253454208374,0,0,1.070159912109375
1.9082222930000001,0,0,1.4939818382263184,0,0,0.9172800183296204
1.909221891,0,0,1.4939818382263184,0,0,1.070159912109375
1.91022186,0,0,1.6136919260025024,0,0,0.9172800183296204
1.911222847,0,0,1.5514427423477173,0,0,0.5350799560546875
1.912222167,0,0,1.5155296325683594,0,0,0.9937199950218201
1.913222043,0,0,1.403002142906189,0,0,0.9937199950218201
1.914222086,0,0,1.3766659498214722,0,0,0.7644000053405762
1.915221906,0,0,1.3479355573654175,0,0,1.1466000080108643
1.9162219299999999,0,0,1.3527239561080933,0,0,0.8408399820327759
1.917222102,0,0,1.3551181554794312,0,0,0.9172800183296204
1.918221867,0,0,1.3527239561080933,0,0,1.070159912109375
1.9192278360000001,0,0,1.460463047027588,0,0,0.6879600286483765
1.920224897,0,0,1.436521053314209,0,0,0.6879600286483765
1.921224884,0,0,1.4891934394836426,0,0,0.611519992351532
1.922226982,0,0,1.6280571222305298,0,0,0.7644000053405762
1.9233324120000002,0,0,1.6400281190872192,0,0,0.8408399820327759
1.924287307,0,0,1.4484920501708984,0,0,0.8408399820327759
1.925233091,0,0,1.460463047027588,0,0,0.9172800183296204
1.926298374,0,0,1.4963760375976563,0,0,0.9172800183296204
1.92728762,0,0,1.3742717504501343,0,0,0.5350799560546875
1.928244459,0,0,1.359906554222107,0,0,0.6879600286483765
1.9292291129999999,0,0,1.290474772453308,0,0,0.7644000053405762
1.9302640439999998,0,0,1.4077905416488647,0,0,0.6879600286483765
1.931234791,0,0,1.525106430053711,0,0,0.7644000053405762
1.932228649,0,0,1.4915876388549805,0,0,0.9172800183296204
1.9332260799999998,0,0,1.5275006294250488,0,0,0.4586400091648102
1.934226141,0,0,1.5729905366897583,0,0,0.9937199950218201
1.935226647,0,0,1.5705963373184204,0,0,0.9937199950218201
1.9362260230000001,0,0,1.4437036514282227,0,0,0.6879600286483765
1.9372261210000001,0,0,1.4413094520568848,0,0,0.8408399820327759
1.938225793,0,0,1.4173674583435059,0,0,0.9172800183296204
1.939227817,0,0,1.292868971824646,0,0,0.7644000053405762
1.94022586,0,0,1.3263877630233765,0,0,0.9172800183296204
1.941225995,0,0,1.5179238319396973,0,0,0.5350799560546875
1.942226093,0,0,1.6352397203445435,0,0,0.9937199950218201
1.943227432,0,0,1.5155296325683594,0,0,0.7644000053405762
1.9442255670000002,0,0,1.5466543436050415,0,0,0.7644000053405762
1.945226202,0,0,1.5682021379470825,0,0,0.9937199950218201
1.946226078,0,0,1.455674648284912,0,0,0.9937199950218201
1.947227195,0,0,1.534683346748352,0,0,0.7644000053405762
1.94822596,0,0,1.4484920501708984,0,0,1.070159912109375
1.949225984,0,0,1.4293384552001953,0,0,0.8408399820327759
1.950226045,0,0,1.3311761617660522,0,0,0.6879600286483765
1.9512265869999998,0,0,1.3479355573654175,0,0,0.8408399820327759
1.952241537,0,0,1.4652514457702637,0,0,0.5350799560546875
1.953227024,0,0,1.5538369417190552,0,0,0.7644000053405762
1.954226011,0,0,1.5753847360610962,0,0,0.8408399820327759
1.955227776,0,0,1.5969325304031372,0,0,0.7644000053405762
1.9562259480000002,0,0,1.5179238319396973,0,0,0.8408399820327759
1.957226158,0,0,1.4987702369689941,0,0,1.070159912109375
1.958226293,0,0,1.3742717504501343,0,0,0.8408399820327759
1.9592275209999999,0,0,1.3096283674240112,0,0,0.9172800183296204
1.960226267,0,0,1.3934253454208374,0,0,0.9937199950218201
1.9612259760000001,0,0,1.3934253454208374,0,0,0.9172800183296204
1.9622255,0,0,1.4101848602294922,0,0,0.6879600286483765
1.963225987,0,0,1.3886369466781616,0,0,0.611519992351532
1.9642233629999999,0,0,1.534683346748352,0,0,0.8408399820327759
1.965223091,0,0,1.556231141090393,0,0,0.8408399820327759
1.966223152,0,0,1.4772224426269531,0,0,0.5350799560546875
1.96793313,0,0,1.4772224426269531,0,0,0.5350799560546875
1.968226348,0,0,1.5083470344543457,0,0,0.8408399820327759
1.96922965,0,0,1.4053963422775269,0,0,0.7644000053405762
1.970254378,0,0,1.3479355573654175,0,0,0.8408399820327759
1.971259476,0,0,1.357512354850769,0,0,0.6879600286483765
1.972259129,0,0,1.4484920501708984,0,0,0.9172800183296204
1.9741171610000001,0,0,1.4484920501708984,0,0,1.1466000080108643
1.974286474,0,0,1.4460978507995605,0,0,0.611519992351532
1.975262091,0,0,1.4939818382263184,0,0,0.7644000053405762
1.9762634110000001,0,0,1.5682021379470825,0,0,0.9172800183296204
1.9772598609999998,0,0,1.5610195398330688,0,0,0.9172800183296204
1.978259144,0,0,1.5442601442337036,0,0,0.8408399820327759
1.979259187,0,0,1.4221558570861816,0,0,0.8408399820327759
1.980245618,0,0,1.4245500564575195,0,0,0.9172800183296204
1.98123442,0,0,1.4293384552001953,0,0,0.9937199950218201
1.982265574,0,0,1.4293384552001953,0,0,0.8408399820327759
1.983233783,0,0,1.381454348564148,0,0,0.9172800183296204
1.984226197,0,0,1.3239935636520386,0,0,0.9172800183296204
1.985226147,0,0,1.4844050407409668,0,0,0.611519992351532
1.986225745,0,0,1.5179238319396973,0,0,0.7644000053405762
1.987226658,0,0,1.5658079385757446,0,0,0.8408399820327759
1.988225719,0,0,1.50355863571167,0,0,0.9172800183296204
1.989225669,0,0,1.5083470344543457,0,0,0.8408399820327759
1.9902259340000001,0,0,1.4915876388549805,0,0,0.5350799560546875
1.991227069,0,0,1.4484920501708984,0,0,0.9172800183296204
1.9922260189999998,0,0,1.381454348564148,0,0,0.8408399820327759
1.993225821,0,0,1.3527239561080933,0,0,0.8408399820327759
1.994225604,0,0,1.3239935636520386,0,0,0.9172800183296204
1.995227035,0,0,1.3718775510787964,0,0,0.6879600286483765
1.996225726,0,0,1.436521053314209,0,0,0.8408399820327759
1.997225917,0,0,1.4676456451416016,0,0,0.7644000053405762
1.998225385,0,0,1.5131354331970215,0,0,0.6879600286483765
1.9992271499999998,0,0,1.5705963373184204,0,0,0.3822000026702881
2.000225878,0,0,1.5322890281677246,0,0,0.9937199950218201
2.001225883,0,0,1.4963760375976563,0,0,0.5350799560546875
2.002225426,0,0,1.4389152526855469,0,0,0.7644000053405762
2.003226913,0,0,1.3646949529647827,0,0,1.1466000080108643
2.004225752,0,0,1.3718775510787964,0,0,0.7644000053405762
2.005225443,0,0,1.3431471586227417,0,0,0.9172800183296204
2.006239022,0,0,1.3958195447921753,0,0,1.070159912109375
2.00722962,0,0,1.50355863571167,0,0,0.6879600286483765
2.0082257,0,0,1.5729905366897583,0,0,0.9172800183296204
2.00922552,0,0,1.525106430053711,0,0,0.9172800183296204
2.010225859,0,0,1.501164436340332,0,0,0.9172800183296204
2.011227198,0,0,1.4748282432556152,0,0,0.7644000053405762
2.012226204,0,0,1.4891934394836426,0,0,0.5350799560546875
2.013225802,0,0,1.460463047027588,0,0,0.6879600286483765
2.014225752,0,0,1.3982137441635132,0,0,1.1466000080108643
2.01522722,0,0,1.4197616577148438,0,0,0.9172800183296204
2.016243318,0,0,1.338358759880066,0,0,0.8408399820327759
2.017226491,0,0,1.3503297567367554,0,0,0.8408399820327759
2.0182257,0,0,1.3886369466781616,0,0,0.5350799560546875
2.019227094,0,0,1.4772224426269531,0,0,1.070159912109375
2.020226878,0,0,1.5490485429763794,0,0,0.8408399820327759
2.021225846,0,0,1.4987702369689941,0,0,0.7644000053405762
2.022225722,0,0,1.5514427423477173,0,0,0.9172800183296204
2.023226432,0,0,1.4772224426269531,0,0,0.611519992351532
2.02422577,0,0,1.3431471586227417,0,0,0.6879600286483765
2.025225757,0,0,1.434126853942871,0,0,0.9172800183296204
2.026225782,0,0,1.41257905960083,0,0,0.8408399820327759
2.027224713,0,0,1.3120225667953491,0,0,0.8408399820327759
2.028223645,0,0,1.3670891523361206,0,0,1.1466000080108643
2.029232835,0,0,1.414973258972168,0,0,0.8408399820327759
2.030224211,0,0,1.53707754611969,0,0,0.8408399820327759
2.031227346,0,0,1.525106430053711,0,0,1.070159912109375
2.032225815,0,0,1.4891934394836426,0,0,0.9172800183296204
2.033225876,0,0,1.5418659448623657,0,0,1.070159912109375
2.034225659,0,0,1.5729905366897583,0,0,0.9172800183296204
2.035226202,0,0,1.403002142906189,0,0,0.611519992351532
2.036225726,0,0,1.400607943534851,0,0,1.070159912109375
2.03722588,0,0,1.403002142906189,0,0,1.070159912109375
2.038225533,0,0,1.3982137441635132,0,0,0.6879600286483765
2.039231594,0,0,1.3623007535934448,0,0,1.070159912109375
2.040227026,0,0,1.5107412338256836,0,0,0.5350799560546875
2.041226143,0,0,1.558625340461731,0,0,0.9937199950218201
2.042226,0,0,1.5873557329177856,0,0,0.9172800183296204
2.043227468,0,0,1.5634137392044067,0,0,0.6879600286483765
2.044226122,0,0,1.4891934394836426,0,0,0.9172800183296204
2.045226072,0,0,1.4484920501708984,0,0,1.070159912109375
2.046226244,0,0,1.3646949529647827,0,0,0.7644000053405762
2.047227194,0,0,1.3742717504501343,0,0,0.9172800183296204
2.048225589,0,0,1.4053963422775269,0,0,0.6879600286483765
2.049354352,0,0,1.3335703611373901,0,0,0.8408399820327759
2.050230322,0,0,1.3120225667953491,0,0,0.9172800183296204
2.051228142,0,0,1.3934253454208374,0,0,0.611519992351532
2.052225722,0,0,1.4652514457702637,0,0,0.8408399820327759
2.053226043,0,0,1.5969325304031372,0,0,0.7644000053405762
2.054225863,0,0,1.5442601442337036,0,0,0.7644000053405762
2.055227257,0,0,1.5873557329177856,0,0,0.9172800183296204
2.056225837,0,0,1.4532804489135742,0,0,0.8408399820327759
2.057237102,0,0,1.479616641998291,0,0,0.6879600286483765
2.058245218,0,0,1.4173674583435059,0,0,1.1466000080108643
2.059231965,0,0,1.3718775510787964,0,0,0.6879600286483765
2.060226118,0,0,1.3096283674240112,0,0,0.7644000053405762
2.061226031,0,0,1.338358759880066,0,0,0.8408399820327759
2.062226167,0,0,1.403002142906189,0,0,0.6879600286483765
2.063227431,0,0,1.5514427423477173,0,0,0.7644000053405762
2.064226067,0,0,1.5298948287963867,0,0,0.7644000053405762
2.065225887,0,0,1.5418659448623657,0,0,0.8408399820327759
2.066225967,0,0,1.580173134803772,0,0,0.9172800183296204
2.067228528,0,0,1.501164436340332,0,0,0.6879600286483765
