Time,AccelX1,AccelY1,AccelZ1,AccelX2,AccelY2,AccelZ2
0.000114406,0,0,0.005985504016280174,0,0,0.9937199950218201
0.000757342,0,0,0.005985504016280174,0,0,0.6879600286483765
0.00137526,0,0,4.909310817718506,0,0,0.9937199950218201
0.002000974,0,0,-15.318102836608887,0,0,1.070159912109375
0.002621799,0,0,-15.318102836608887,0,0,0.8408399820327759
0.003240365,0,0,4.2957963943481445,0,0,1.1466000080108643
0.003858302,0,0,-11.027094841003418,0,0,1.070159912109375
0.00447609,0,0,-11.027094841003418,0,0,-8.714159965515137
0.005093156,0,0,-12.253523826599121,0,0,0.6879600286483765
0.005713463,0,0,-12.253523826599121,0,0,0.611519992351532
0.006330622,0,0,11.03786849975586,0,0,0.8408399820327759
0.006948225,0,0,15.941792488098145,0,0,0.7644000053405762
0.007565643,0,0,15.941792488098145,0,0,1.1466000080108643
0.008182709,0,0,12.264298439025879,0,0,0.8408399820327759
0.008800108,0,0,-10.413579940795898,0,0,0.9937199950218201
0.009417341,0,0,-10.413579940795898,0,0,0.6879600286483765
0.01003924,0,0,6.135141849517822,0,0,1.1466000080108643
0.010660158,0,0,6.135141849517822,0,0,0.8408399820327759
0.011277687,0,0,18.39285659790039,0,0,0.9937199950218201
0.011895365,0,0,-12.865840911865234,0,0,0.9172800183296204
0.012512431,0,0,-12.865840911865234,0,0,0.9172800183296204
0.013130071,0,0,-1.8339585065841675,0,0,0.4586400091648102
0.013748211,0,0,-1.8339585065841675,0,0,0.9172800183296204
0.014365444,0,0,-14.092270851135254,0,0,0.9937199950218201
0.014983047,0,0,8.58620548248291,0,0,0.7644000053405762
0.015600113,0,0,8.58620548248291,0,0,0.8408399820327759
0.016217735,0,0,-18.382081985473633,0,0,0.9172800183296204
0.016834819,0,0,-11.027094841003418,0,0,0.9172800183296204
0.0174522,0,0,-11.027094841003418,0,0,1.070159912109375
0.018071433,0,0,-18.382081985473633,0,0,0.9172800183296204
0.018688555,0,0,-18.382081985473633,0,0,0.8408399820327759
0.019306121,0,0,15.328876495361328,0,0,0.6879600286483765
0.019923298,0,0,17.78053855895996,0,0,1.1466000080108643
0.020555364,0,0,17.78053855895996,0,0,1.070159912109375
0.021173448,0,0,5.522226333618164,0,0,1.070159912109375
0.021791829,0,0,11.038467407226563,0,0,0.9172800183296204
0.022409395,0,0,11.038467407226563,0,0,0.7644000053405762
0.023026906,0,0,7.97329044342041,0,0,0.8408399820327759
0.023644768,0,0,7.97329044342041,0,0,1.1466000080108643
0.024262112,0,0,-12.866439819335938,0,0,0.7644000053405762
0.024883326,0,0,-4.898536682128906,0,0,0.9172800183296204
0.025502189,0,0,-4.898536682128906,0,0,0.5350799560546875
0.026122292,0,0,8.58620548248291,0,0,0.9172800183296204
0.026739136,0,0,8.58620548248291,0,0,0.9172800183296204
0.027357646,0,0,19.00577163696289,0,0,0.7644000053405762
0.02797462,0,0,7.360374450683594,0,0,0.9172800183296204
0.028592019,0,0,7.360374450683594,0,0,0.6879600286483765
0.029209308,0,0,-14.091672897338867,0,0,0.6879600286483765
0.029827966,0,0,14.103045463562012,0,0,0.8408399820327759
0.030445143,0,0,14.103045463562012,0,0,1.1466000080108643
0.031062654,0,0,10.425551414489746,0,0,1.070159912109375
0.031680424,0,0,10.425551414489746,0,0,0.611519992351532
0.032310656,0,0,-14.091672897338867,0,0,0.6879600286483765
0.032942963,0,0,9.81263542175293,0,0,0.5350799560546875
0.033577955,0,0,9.81263542175293,0,0,1.070159912109375
0.034203317,0,0,15.328277587890625,0,0,0.7644000053405762
0.034825291,0,0,4.908711910247803,0,0,0.7644000053405762
0.035447634,0,0,4.908711910247803,0,0,0.9172800183296204
0.036070108,0,0,14.715362548828125,0,0,1.1466000080108643
0.036692229,0,0,14.715362548828125,0,0,0.9172800183296204
0.037314647,0,0,-16.5433349609375,0,0,1.070159912109375
0.037937306,0,0,-16.5433349609375,0,0,0.7644000053405762
0.038559261,0,0,-16.5433349609375,0,0,0.6879600286483765
0.039181642,0,0,9.81263542175293,0,0,1.223039984703064
0.039807856,0,0,7.360973358154297,0,0,0.9937199950218201
0.040443792,0,0,7.360973358154297,0,0,0.9172800183296204
0.041070006,0,0,18.393455505371094,0,0,0.7644000053405762
0.041693702,0,0,18.393455505371094,0,0,0.9172800183296204
0.042315712,0,0,-3.0591912269592285,0,0,0.7644000053405762
0.042937797,0,0,4.908711910247803,0,0,0.9172800183296204
0.043560233,0,0,4.908711910247803,0,0,0.9172800183296204
0.04418267,0,0,-11.027094841003418,0,0,1.070159912109375
0.044804828,0,0,-9.801262855529785,0,0,0.9937199950218201
0.045427339,0,0,-9.801262855529785,0,0,0.9172800183296204
0.046050294,0,0,7.97329044342041,0,0,1.070159912109375
0.046672008,0,0,7.97329044342041,0,0,1.070159912109375
0.047294333,0,0,-15.930419921875,0,0,0.9937199950218201
0.047916529,0,0,-15.930419921875,0,0,0.9172800183296204
0.048539188,0,0,-15.930419921875,0,0,0.611519992351532
0.049161217,0,0,7.360374450683594,0,0,0.9172800183296204
0.049784431,0,0,-5.5114521980285645,0,0,0.9172800183296204
0.050406163,0,0,-5.5114521980285645,0,0,0.7644000053405762
0.0510286,0,0,-7.9625163078308105,0,0,0.9937199950218201
0.051651203,0,0,-7.9625163078308105,0,0,0.9937199950218201
0.052273454,0,0,4.2963948249816895,0,0,0.8408399820327759
0.052895928,0,0,-8.575431823730469,0,0,0.5350799560546875
0.053518753,0,0,-8.575431823730469,0,0,1.070159912109375
0.054141745,0,0,-9.801262855529785,0,0,0.6879600286483765
0.054764089,0,0,-3.6721067428588867,0,0,0.9172800183296204
0.055386432,0,0,-3.6721067428588867,0,0,0.9172800183296204
0.056009276,0,0,0.005386953707784414,0,0,0.9172800183296204
0.056631639,0,0,0.005386953707784414,0,0,0.9172800183296204
0.057254038,0,0,-14.091672897338867,0,0,0.9172800183296204
0.057877159,0,0,17.779939651489258,0,0,0.8408399820327759
0.058498688,0,0,17.779939651489258,0,0,0.9937199950218201
0.059121236,0,0,7.360374450683594,0,0,0.9172800183296204
0.059743339,0,0,7.360374450683594,0,0,0.6879600286483765
0.06036572,0,0,14.102446556091309,0,0,1.070159912109375
0.060987953,0,0,-1.833359956741333,0,0,0.7644000053405762
0.061610685,0,0,-1.833359956741333,0,0,0.6879600286483765
0.062232677,0,0,16.55470848083496,0,0,0.8408399820327759
0.062859169,0,0,-2.446275472640991,0,0,0.8408399820327759
0.063493198,0,0,-2.446275472640991,0,0,1.070159912109375
0.064148134,0,0,-7.9625163078308105,0,0,0.7644000053405762
0.064887162,0,0,-15.317503929138184,0,0,0.8408399820327759
0.065526209,0,0,-15.317503929138184,0,0,0.8408399820327759
0.066154627,0,0,-17.769166946411133,0,0,0.8408399820327759
0.066776026,0,0,4.2957963943481445,0,0,0.9172800183296204
0.06739837,0,0,4.2957963943481445,0,0,0.7644000053405762
0.068020547,0,0,15.328277587890625,0,0,1.070159912109375
0.06864315,0,0,15.328277587890625,0,0,0.8408399820327759
0.069265253,0,0,1.8441338539123535,0,0,0.9937199950218201
0.069889504,0,0,-14.092270851135254,0,0,0.7644000053405762
0.070510237,0,0,-14.092270851135254,0,0,0.7644000053405762
0.07113221,0,0,6.134543418884277,0,0,0.9172800183296204
0.071754277,0,0,-7.9625163078308105,0,0,0.9172800183296204
0.072376306,0,0,-7.9625163078308105,0,0,0.9172800183296204
0.072998742,0,0,-11.027094841003418,0,0,0.4586400091648102
0.073621493,0,0,-11.027094841003418,0,0,1.223039984703064
0.074242967,0,0,-0.6075286865234375,0,0,0.6879600286483765
0.074865329,0,0,-6.736684799194336,0,0,0.611519992351532
0.075487339,0,0,-6.736684799194336,0,0,0.9172800183296204
0.076109609,0,0,14.715960502624512,0,0,0.9172800183296204
0.07673186,0,0,14.715960502624512,0,0,0.8408399820327759
0.077353704,0,0,-19.607315063476563,0,0,0.6879600286483765
0.077976918,0,0,-13.47875690460205,0,0,0.9937199950218201
0.078598558,0,0,-13.47875690460205,0,0,1.070159912109375
0.079220902,0,0,13.489530563354492,0,0,1.070159912109375
0.07984295,0,0,17.167024612426758,0,0,1.2994799613952637
0.080492534,0,0,17.167024612426758,0,0,0.8408399820327759
0.081117007,0,0,4.2957963943481445,0,0,0.5350799560546875
0.081740036,0,0,4.2957963943481445,0,0,0.6879600286483765
0.082361528,0,0,13.489530563354492,0,0,1.070159912109375
0.08298378,0,0,-18.382081985473633,0,0,0.9172800183296204
0.083605605,0,0,-18.382081985473633,0,0,0.7644000053405762
0.084227801,0,0,-3.6721067428588867,0,0,0.9172800183296204
0.08484957,0,0,-2.446275472640991,0,0,1.223039984703064
0.085471729,0,0,-2.446275472640991,0,0,0.9172800183296204
0.086094702,0,0,-1.833359956741333,0,0,0.6879600286483765
0.086716768,0,0,-1.833359956741333,0,0,0.7644000053405762
0.087338964,0,0,8.586804389953613,0,0,0.8408399820327759
0.087960938,0,0,13.490129470825195,0,0,0.8408399820327759
0.088583133,0,0,13.490129470825195,0,0,0.7644000053405762
0.089205051,0,0,-2.446275472640991,0,0,1.1466000080108643
0.089828376,0,0,16.554109573364258,0,0,1.2994799613952637
0.090449979,0,0,16.554109573364258,0,0,0.7644000053405762
0.09107212,0,0,-5.5108537673950195,0,0,0.8408399820327759
0.091694426,0,0,-5.5108537673950195,0,0,0.9172800183296204
0.092316455,0,0,7.97329044342041,0,0,0.6879600286483765
0.092938595,0,0,-16.5433349609375,0,0,0.9172800183296204
0.093561865,0,0,-16.5433349609375,0,0,0.7644000053405762
0.094184024,0,0,-19.607913970947266,0,0,0.7644000053405762
0.094806368,0,0,-3.0591912269592285,0,0,0.6879600286483765
0.095428267,0,0,-3.0591912269592285,0,0,0.9172800183296204
0.096050426,0,0,11.651382446289063,0,0,0.9172800183296204
0.096672621,0,0,11.651382446289063,0,0,0.5350799560546875
0.097294724,0,0,-11.640009880065918,0,0,0.7644000053405762
0.097917902,0,0,-17.15625,0,0,1.2994799613952637
0.098539282,0,0,-17.15625,0,0,0.8408399820327759
0.099161626,0,0,-4.285022258758545,0,0,-9.096360206604004
0.099783674,0,0,11.650784492492676,0,0,0.9172800183296204
0.100405795,0,0,11.650784492492676,0,0,1.223039984703064
0.101028047,0,0,11.650784492492676,0,0,0.6879600286483765
0.101650705,0,0,11.650784492492676,0,0,1.1466000080108643
0.102272419,0,0,-11.640009880065918,0,0,1.070159912109375
0.102894652,0,0,-11.640009880065918,0,0,0.9937199950218201
0.103516514,0,0,-11.640009880065918,0,0,0.611519992351532
0.104138784,0,0,9.812037467956543,0,0,0.7644000053405762
0.104760758,0,0,12.876615524291992,0,0,0.6879600286483765
0.105383046,0,0,12.876615524291992,0,0,0.6879600286483765
0.106005741,0,0,6.7480573654174805,0,0,0.9937199950218201
0.106627363,0,0,6.7480573654174805,0,0,0.9172800183296204
0.10724954,0,0,-19.607315063476563,0,0,0.6879600286483765
0.107871403,0,0,-1.833359956741333,0,0,0.5350799560546875
0.108493561,0,0,-1.833359956741333,0,0,0.7644000053405762
0.109115442,0,0,5.522226333618164,0,0,0.8408399820327759
0.109738397,0,0,-4.285022258758545,0,0,0.9937199950218201
0.110360259,0,0,-4.285022258758545,0,0,0.611519992351532
0.110982436,0,0,0.005386953707784414,0,0,1.070159912109375
0.111604577,0,0,0.005386953707784414,0,0,0.9172800183296204
0.112226624,0,0,-15.317503929138184,0,0,0.9172800183296204
0.112848912,0,0,1.8441338539123535,0,0,0.9172800183296204
0.113470738,0,0,1.8441338539123535,0,0,0.8408399820327759
0.114093433,0,0,6.134543418884277,0,0,0.4586400091648102
0.114715796,0,0,6.134543418884277,0,0,1.070159912109375
0.115337547,0,0,-3.6721067428588867,0,0,1.070159912109375
0.115963205,0,0,18.39285659790039,0,0,0.6879600286483765
0.116589623,0,0,18.39285659790039,0,0,0.8408399820327759
0.117218337,0,0,-4.897938251495361,0,0,0.7644000053405762
0.117868051,0,0,10.425551414489746,0,0,0.7644000053405762
0.118500154,0,0,10.425551414489746,0,0,0.8408399820327759
0.119131053,0,0,1.2318167686462402,0,0,0.9172800183296204
0.11975749,0,0,-11.639411926269531,0,0,0.8408399820327759
0.120380056,0,0,-11.639411926269531,0,0,1.070159912109375
0.121011696,0,0,15.328277587890625,0,0,0.9172800183296204
0.121701076,0,0,15.328277587890625,0,0,0.9172800183296204
0.122326753,0,0,-14.70518684387207,0,0,0.9172800183296204
0.122950171,0,0,3.6828808784484863,0,0,0.8408399820327759
0.123571515,0,0,3.6828808784484863,0,0,0.9172800183296204
0.124193932,0,0,-10.414777755737305,0,0,0.9172800183296204
0.124815924,0,0,11.03786849975586,0,0,0.6879600286483765
0.125438213,0,0,11.03786849975586,0,0,1.070159912109375
0.126062834,0,0,-6.737283706665039,0,0,0.7644000053405762
0.126765844,0,0,13.489530563354492,0,0,0.7644000053405762
0.127422409,0,0,13.489530563354492,0,0,0.9937199950218201
0.128046401,0,0,17.78053855895996,0,0,0.3822000026702881
0.128668912,0,0,17.78053855895996,0,0,0.9172800183296204
0.129291589,0,0,-16.542736053466797,0,0,0.6879600286483765
0.12991497,0,0,5.522226333618164,0,0,0.8408399820327759
0.130536906,0,0,5.522226333618164,0,0,0.611519992351532
0.131159028,0,0,-12.865840911865234,0,0,0.9937199950218201
0.131781575,0,0,-7.350199222564697,0,0,0.9937199950218201
0.132403826,0,0,-7.350199222564697,0,0,0.9172800183296204
0.133025855,0,0,-9.188945770263672,0,0,0.6879600286483765
0.133648792,0,0,-9.188945770263672,0,0,0.9937199950218201
0.134270765,0,0,11.03786849975586,0,0,0.6879600286483765
0.134892998,0,0,7.360374450683594,0,0,0.9172800183296204
0.135515564,0,0,7.360374450683594,0,0,0.611519992351532
0.136139278,0,0,-12.252925872802734,0,0,0.6879600286483765
0.136792955,0,0,15.328277587890625,0,0,0.6879600286483765
0.137430095,0,0,15.328277587890625,0,0,1.070159912109375
0.138055827,0,0,-12.865840911865234,0,0,0.6879600286483765
0.138678597,0,0,-12.865840911865234,0,0,0.9172800183296204
0.13930683,0,0,9.19972038269043,0,0,0.7644000053405762
0.139937192,0,0,-6.123769283294678,0,0,0.6879600286483765
0.140566406,0,0,-6.123769283294678,0,0,1.070159912109375
0.141194824,0,0,2.4576480388641357,0,0,0.6879600286483765
0.141824871,0,0,-18.38148307800293,0,0,1.1466000080108643
0.142461197,0,0,-18.38148307800293,0,0,0.8408399820327759
0.143099855,0,0,0.005386953707784414,0,0,0.8408399820327759
0.143729439,0,0,4.2957963943481445,0,0,0.7644000053405762
0.144409579,0,0,4.2957963943481445,0,0,0.9172800183296204
0.145044311,0,0,-5.5114521980285645,0,0,1.070159912109375
0.145677507,0,0,-5.5114521980285645,0,0,1.1466000080108643
0.146306017,0,0,-11.640608787536621,0,0,0.611519992351532
0.146934509,0,0,12.263699531555176,0,0,0.9937199950218201
0.147561982,0,0,12.263699531555176,0,0,0.9172800183296204
0.1481899,0,0,15.328277587890625,0,0,0.4586400091648102
0.148829559,0,0,-11.640009880065918,0,0,0.4586400091648102
0.149471606,0,0,-11.640009880065918,0,0,0.9937199950218201
0.15013182,0,0,1.844732403755188,0,0,0.7644000053405762
0.150761923,0,0,19.00577163696289,0,0,-8.943479537963867
0.151392248,0,0,19.00577163696289,0,0,0.305759996175766
0.152017777,0,0,-11.640009880065918,0,0,0.9172800183296204
0.152643083,0,0,-11.640009880065918,0,0,0.9937199950218201
0.153266279,0,0,5.522226333618164,0,0,0.9172800183296204
0.153890845,0,0,-19.607913970947266,0,0,0.9172800183296204
0.154513819,0,0,-19.607913970947266,0,0,0.7644000053405762
0.155136459,0,0,15.328277587890625,0,0,1.1466000080108643
0.155758969,0,0,-6.123769283294678,0,0,0.9937199950218201
0.156381961,0,0,-6.123769283294678,0,0,1.070159912109375
0.157013231,0,0,0.005386953707784414,0,0,0.7644000053405762
0.157645593,0,0,0.005386953707784414,0,0,0.8408399820327759
0.158269548,0,0,1.2312182188034058,0,0,0.8408399820327759
0.158892744,0,0,-4.285621166229248,0,0,0.8408399820327759
0.159515273,0,0,-4.285621166229248,0,0,0.7644000053405762
0.16013769,0,0,-11.027094841003418,0,0,0.8408399820327759
0.160792663,0,0,-1.2204443216323853,0,0,0.9172800183296204
0.1614231,0,0,-1.2204443216323853,0,0,0.611519992351532
0.162047425,0,0,17.167024612426758,0,0,0.9937199950218201
0.162670121,0,0,17.167024612426758,0,0,0.8408399820327759
0.163292798,0,0,8.58620548248291,0,0,0.8408399820327759
0.163915605,0,0,4.908711910247803,0,0,0.8408399820327759
0.164538282,0,0,4.908711910247803,0,0,0.8408399820327759
0.165164311,0,0,-4.898536682128906,0,0,0.8408399820327759
0.165798506,0,0,9.812037467956543,0,0,0.6879600286483765
0.166421294,0,0,9.812037467956543,0,0,0.9172800183296204
0.167046657,0,0,18.39285659790039,0,0,0.7644000053405762
0.167669038,0,0,18.39285659790039,0,0,0.6879600286483765
0.168461268,0,0,-12.253523826599121,0,0,1.070159912109375
0.169093278,0,0,9.812037467956543,0,0,0.7644000053405762
0.169734529,0,0,5.521627902984619,0,0,0.9937199950218201
0.170358744,0,0,5.521627902984619,0,0,0.9172800183296204
0.170980995,0,0,-8.575431823730469,0,0,0.8408399820327759
0.171603394,0,0,-8.575431823730469,0,0,0.7644000053405762
0.172225849,0,0,-13.47875690460205,0,0,0.8408399820327759
0.172847989,0,0,11.650784492492676,0,0,0.9937199950218201
0.173470314,0,0,11.650784492492676,0,0,0.9172800183296204
0.174093862,0,0,-4.897938251495361,0,0,0.9172800183296204
0.174716224,0,0,-8.575431823730469,0,0,-8.40839958190918
0.175338679,0,0,-8.575431823730469,0,0,0.4586400091648102
0.175960819,0,0,-3.6727054119110107,0,0,0.9172800183296204
0.176583089,0,0,-3.6727054119110107,0,0,0.7644000053405762
0.177205118,0,0,11.650784492492676,0,0,0.7644000053405762
0.177828443,0,0,-3.0591912269592285,0,0,0.9937199950218201
0.17845025,0,0,-3.0591912269592285,0,0,0.7644000053405762
0.179072446,0,0,9.199121475219727,0,0,0.9172800183296204
0.179694845,0,0,0.005386953707784414,0,0,1.2994799613952637
0.1803168,0,0,0.005386953707784414,0,0,0.8408399820327759
0.180939088,0,0,-6.123769283294678,0,0,0.8408399820327759
0.181562321,0,0,-6.123769283294678,0,0,0.5350799560546875
0.182184591,0,0,-1.833359956741333,0,0,0.6879600286483765
0.182807009,0,0,0.005985504016280174,0,0,1.070159912109375
0.183429038,0,0,0.005985504016280174,0,0,0.7644000053405762
0.184051419,0,0,9.199121475219727,0,0,0.9937199950218201
0.184673818,0,0,9.199121475219727,0,0,0.6879600286483765
0.185295736,0,0,-6.123769283294678,0,0,1.223039984703064
0.185919006,0,0,0.005985504016280174,0,0,0.6879600286483765
0.186540683,0,0,0.005985504016280174,0,0,1.070159912109375
0.18716273,0,0,3.069965124130249,0,0,0.8408399820327759
0.187784722,0,0,-14.704587936401367,0,0,1.070159912109375
0.188406788,0,0,-14.704587936401367,0,0,0.9172800183296204
0.189029113,0,0,-12.253523826599121,0,0,0.9172800183296204
0.189651976,0,0,-12.253523826599121,0,0,0.6879600286483765
0.190273764,0,0,-3.6727054119110107,0,0,0.9937199950218201
0.190895608,0,0,12.876615524291992,0,0,0.611519992351532
0.191517896,0,0,12.876615524291992,0,0,0.6879600286483765
0.192140351,0,0,-19.607913970947266,0,0,0.9172800183296204
0.192762362,0,0,11.038467407226563,0,0,1.1466000080108643
0.193384854,0,0,11.038467407226563,0,0,0.7644000053405762
0.194007512,0,0,2.4576480388641357,0,0,0.5350799560546875
0.194629337,0,0,2.4576480388641357,0,0,0.9172800183296204
0.195251441,0,0,-12.865840911865234,0,0,0.7644000053405762
0.195873395,0,0,-2.446275472640991,0,0,1.375920057296753
0.196495517,0,0,-2.446275472640991,0,0,0.7644000053405762
0.197117379,0,0,-1.8339585065841675,0,0,0.8408399820327759
0.197740279,0,0,1.8441338539123535,0,0,-9.249239921569824
0.198362141,0,0,1.8441338539123535,0,0,0.9937199950218201
0.198984115,0,0,12.876615524291992,0,0,0.5350799560546875
0.199606421,0,0,12.876615524291992,0,0,1.070159912109375
0.200228469,0,0,-1.2210428714752197,0,0,0.7644000053405762
0.200850794,0,0,16.554109573364258,0,0,0.9172800183296204
0.201473082,0,0,16.554109573364258,0,0,0.9172800183296204
0.202095945,0,0,-15.318102836608887,0,0,0.9937199950218201
0.202718066,0,0,-16.5433349609375,0,0,0.611519992351532
0.203340003,0,0,-16.5433349609375,0,0,1.070159912109375
0.203962328,0,0,-6.123769283294678,0,0,0.9937199950218201
0.204584524,0,0,-6.123769283294678,0,0,0.7644000053405762
0.205206479,0,0,-5.5108537673950195,0,0,0.611519992351532
0.205829693,0,0,16.554109573364258,0,0,0.6879600286483765
0.206451,0,0,16.554109573364258,0,0,1.1466000080108643
0.207073269,0,0,-17.769166946411133,0,0,1.070159912109375
0.207695428,0,0,-19.607913970947266,0,0,0.9937199950218201
0.208317716,0,0,-19.607913970947266,0,0,0.8408399820327759
0.20893993,0,0,9.812037467956543,0,0,0.8408399820327759
0.209564015,0,0,9.812037467956543,0,0,0.8408399820327759
0.21018584,0,0,14.102446556091309,0,0,0.7644000053405762
0.21080774,0,0,-14.70518684387207,0,0,0.6879600286483765
0.211430065,0,0,-14.70518684387207,0,0,0.6879600286483765
0.212052316,0,0,-6.124367713928223,0,0,0.5350799560546875
0.212674012,0,0,-6.124367713928223,0,0,0.9172800183296204
0.213296226,0,0,-19.607913970947266,0,0,0.8408399820327759
0.213918996,0,0,13.490129470825195,0,0,0.8408399820327759
0.214540321,0,0,13.490129470825195,0,0,1.070159912109375
0.215162517,0,0,3.6834793090820313,0,0,1.1466000080108643
0.215784416,0,0,7.973888874053955,0,0,0.7644000053405762
0.216407278,0,0,7.973888874053955,0,0,0.9937199950218201
0.217030011,0,0,15.941193580627441,0,0,0.6879600286483765
0.217652651,0,0,15.941193580627441,0,0,0.9937199950218201
0.218273921,0,0,-8.575431823730469,0,0,1.070159912109375
0.218895746,0,0,-7.349600791931152,0,0,0.7644000053405762
0.219517868,0,0,-7.349600791931152,0,0,1.2994799613952637
0.220139619,0,0,16.554109573364258,0,0,0.9172800183296204
0.220762537,0,0,-11.027094841003418,0,0,-8.714159965515137
0.221385084,0,0,-11.027094841003418,0,0,0.8408399820327759
0.222007873,0,0,-4.285621166229248,0,0,0.6879600286483765
0.222629568,0,0,-4.285621166229248,0,0,0.8408399820327759
0.223251523,0,0,9.812037467956543,0,0,0.7644000053405762
0.223873849,0,0,11.03786849975586,0,0,0.9172800183296204
0.224514859,0,0,11.03786849975586,0,0,0.7644000053405762
0.225136369,0,0,-18.994400024414063,0,0,0.8408399820327759
0.225767713,0,0,8.586804389953613,0,0,1.070159912109375
0.226389316,0,0,8.586804389953613,0,0,0.7644000053405762
0.227013308,0,0,-17.769166946411133,0,0,0.611519992351532
0.227634781,0,0,-17.769166946411133,0,0,0.611519992351532
0.228257366,0,0,3.070563793182373,0,0,0.7644000053405762
0.228879654,0,0,11.038467407226563,0,0,0.9937199950218201
0.229502165,0,0,11.038467407226563,0,0,0.9937199950218201
0.230124546,0,0,9.812037467956543,0,0,0.9937199950218201
0.230746908,0,0,-13.47875690460205,0,0,0.8408399820327759
0.23136953,0,0,-13.47875690460205,0,0,0.7644000053405762
0.231991929,0,0,14.715362548828125,0,0,0.6879600286483765
0.232613865,0,0,14.715362548828125,0,0,0.8408399820327759
0.233236394,0,0,-1.8339585065841675,0,0,0.6879600286483765
0.233859775,0,0,11.03786849975586,0,0,0.8408399820327759
0.234481915,0,0,11.03786849975586,0,0,1.1466000080108643
0.235104166,0,0,18.39285659790039,0,0,0.9172800183296204
0.235726344,0,0,-18.382081985473633,0,0,1.758120059967041
0.236349113,0,0,-18.382081985473633,0,0,0.7644000053405762
0.236971124,0,0,-11.027094841003418,0,0,1.223039984703064
0.237593931,0,0,-11.027094841003418,0,0,0.6879600286483765
0.238216497,0,0,17.779939651489258,0,0,0.6879600286483765
0.238838729,0,0,16.554109573364258,0,0,0.9172800183296204
0.239461129,0,0,16.554109573364258,0,0,0.9172800183296204
0.240083287,0,0,-7.349600791931152,0,0,0.9937199950218201
0.240705705,0,0,-7.350199222564697,0,0,0.9937199950218201
0.241327975,0,0,-7.350199222564697,0,0,1.070159912109375
0.241950374,0,0,-16.543933868408203,0,0,0.9937199950218201
0.242572848,0,0,-16.543933868408203,0,0,1.1466000080108643
0.243194729,0,0,-12.866439819335938,0,0,0.8408399820327759
0.243816887,0,0,-15.931017875671387,0,0,0.9937199950218201
0.244456768,0,0,-15.931017875671387,0,0,0.9172800183296204
0.245080945,0,0,16.554109573364258,0,0,-8.790599822998047
0.245703696,0,0,16.554109573364258,0,0,0.4586400091648102
0.246325596,0,0,16.554109573364258,0,0,0.7644000053405762
0.246947902,0,0,-12.865840911865234,0,0,1.1466000080108643
0.247570024,0,0,-12.865840911865234,0,0,1.070159912109375
0.248192238,0,0,-12.865840911865234,0,0,0.611519992351532
0.248814712,0,0,-19.607913970947266,0,0,0.6879600286483765
0.249436907,0,0,-19.607913970947266,0,0,0.9172800183296204
0.250061325,0,0,-13.47875690460205,0,0,0.9172800183296204
0.250683613,0,0,-4.285022258758545,0,0,0.611519992351532
0.251459566,0,0,-4.285022258758545,0,0,0.9937199950218201
0.252091169,0,0,5.521627902984619,0,0,0.9172800183296204
0.252713828,0,0,12.876615524291992,0,0,1.223039984703064
0.253336431,0,0,12.876615524291992,0,0,0.9172800183296204
0.253959738,0,0,-7.350199222564697,0,0,0.8408399820327759
0.254581433,0,0,-7.350199222564697,0,0,0.9172800183296204
0.255203981,0,0,-7.9631147384643555,0,0,0.7644000053405762
0.255826417,0,0,6.7474589347839355,0,0,1.070159912109375
0.256448909,0,0,6.7474589347839355,0,0,0.611519992351532
0.257071123,0,0,-11.640009880065918,0,0,0.6879600286483765
0.257694097,0,0,17.78053855895996,0,0,0.611519992351532
0.258315756,0,0,17.78053855895996,0,0,0.9937199950218201
0.258937729,0,0,15.941792488098145,0,0,0.611519992351532
0.259560295,0,0,15.941792488098145,0,0,0.8408399820327759
0.260183009,0,0,-12.865840911865234,0,0,0.9172800183296204
0.260805057,0,0,-17.15625,0,0,0.9937199950218201
0.261427567,0,0,-17.15625,0,0,1.1466000080108643
0.262050541,0,0,18.39285659790039,0,0,0.3822000026702881
0.262672273,0,0,3.6828808784484863,0,0,1.070159912109375
0.263294339,0,0,3.6828808784484863,0,0,1.070159912109375
0.263916831,0,0,-0.6075286865234375,0,0,1.070159912109375
0.264539397,0,0,-0.6075286865234375,0,0,0.9172800183296204
0.265161834,0,0,7.360374450683594,0,0,0.9172800183296204
0.265785066,0,0,-12.865840911865234,0,0,0.9172800183296204
0.266406466,0,0,-12.865840911865234,0,0,0.9937199950218201
0.267028884,0,0,5.521627902984619,0,0,1.1466000080108643
0.26765119,0,0,-7.349600791931152,0,0,0.8408399820327759
0.268273164,0,0,-7.349600791931152,0,0,0.9172800183296204
0.268895526,0,0,-8.575431823730469,0,0,0.7644000053405762
0.269518129,0,0,-8.575431823730469,0,0,0.7644000053405762
0.270140955,0,0,1.2318167686462402,0,0,0.7644000053405762
0.270763335,0,0,-12.252925872802734,0,0,0.5350799560546875
0.271385346,0,0,-12.252925872802734,0,0,0.8408399820327759
0.272007745,0,0,-6.736684799194336,0,0,1.375920057296753
0.272629867,0,0,-6.736684799194336,0,0,0.7644000053405762
0.273252137,0,0,-5.5108537673950195,0,0,1.1466000080108643
0.273875166,0,0,15.328277587890625,0,0,0.6879600286483765
0.27449688,0,0,15.328277587890625,0,0,0.9172800183296204
0.275119298,0,0,-8.575431823730469,0,0,0.7644000053405762
0.27574129,0,0,4.908711910247803,0,0,1.070159912109375
0.276363615,0,0,4.908711910247803,0,0,0.9172800183296204
0.276985533,0,0,-6.737283706665039,0,0,0.9172800183296204
0.277608284,0,0,-6.737283706665039,0,0,1.223039984703064
0.278230146,0,0,3.6828808784484863,0,0,0.611519992351532
0.278852175,0,0,-9.188347816467285,0,0,2.14031982421875
0.279474612,0,0,-9.188347816467285,0,0,0.7644000053405762
0.280097104,0,0,18.393455505371094,0,0,0.8408399820327759
0.280719299,0,0,11.651382446289063,0,0,0.9172800183296204
0.281341514,0,0,11.651382446289063,0,0,0.611519992351532
0.281964246,0,0,-12.865840911865234,0,0,0.7644000053405762
0.28258609,0,0,-12.865840911865234,0,0,0.6879600286483765
0.283208064,0,0,9.19972038269043,0,0,0.9937199950218201
0.283830259,0,0,15.941193580627441,0,0,0.8408399820327759
0.284462029,0,0,15.941193580627441,0,0,0.8408399820327759
0.285084743,0,0,18.39285659790039,0,0,0.8408399820327759
0.285707976,0,0,-19.607913970947266,0,0,0.9172800183296204
0.286329412,0,0,-19.607913970947266,0,0,0.9172800183296204
0.286951812,0,0,3.069965124130249,0,0,0.9172800183296204
0.287574026,0,0,3.069965124130249,0,0,0.8408399820327759
0.288196055,0,0,-11.027692794799805,0,0,1.070159912109375
0.288818213,0,0,-12.866439819335938,0,0,1.2994799613952637
0.289440205,0,0,-12.866439819335938,0,0,0.6879600286483765
0.29006329,0,0,9.81263542175293,0,0,0.7644000053405762
0.290684874,0,0,19.006370544433594,0,0,0.8408399820327759
0.291310792,0,0,19.006370544433594,0,0,0.7644000053405762
0.291931766,0,0,14.102446556091309,0,0,0.9172800183296204
0.292553869,0,0,14.102446556091309,0,0,0.9937199950218201
0.293176194,0,0,15.328277587890625,0,0,1.1466000080108643
0.293799371,0,0,-10.414178848266602,0,0,1.070159912109375
0.294421234,0,0,-10.414178848266602,0,0,0.9937199950218201
0.295043448,0,0,2.457049608230591,0,0,0.9172800183296204
0.295665551,0,0,17.167024612426758,0,0,0.5350799560546875
0.296287635,0,0,17.167024612426758,0,0,0.9937199950218201
0.296909683,0,0,12.263699531555176,0,0,0.9172800183296204
0.297552841,0,0,12.263699531555176,0,0,0.7644000053405762
0.298175296,0,0,-1.2210428714752197,0,0,0.7644000053405762
0.298797307,0,0,17.167024612426758,0,0,1.1466000080108643
0.299421095,0,0,17.167024612426758,0,0,0.9172800183296204
0.300054142,0,0,-18.382081985473633,0,0,0.7644000053405762
0.300679931,0,0,-19.607315063476563,0,0,0.6879600286483765
0.301302237,0,0,-19.607315063476563,0,0,1.223039984703064
0.30192434,0,0,-13.478157997131348,0,0,0.8408399820327759
0.302546629,0,0,-13.478157997131348,0,0,0.8408399820327759
0.303169009,0,0,-1.2204443216323853,0,0,0.7644000053405762
0.303790964,0,0,-3.0591912269592285,0,0,0.7644000053405762
0.304413105,0,0,-3.0591912269592285,0,0,0.9172800183296204
0.305035078,0,0,15.328277587890625,0,0,0.9937199950218201
0.305654533,0,0,1.8441338539123535,0,0,0.9937199950218201
0.306271599,0,0,1.8441338539123535,0,0,0.7644000053405762
0.306889184,0,0,1.2312182188034058,0,0,1.1466000080108643
0.307506565,0,0,1.2312182188034058,0,0,0.9172800183296204
0.308123686,0,0,17.779939651489258,0,0,1.070159912109375
0.308741345,0,0,0.618302583694458,0,0,0.9172800183296204
0.309358522,0,0,0.618302583694458,0,0,0.8408399820327759
0.309987347,0,0,-19.608510971069336,0,0,0.8408399820327759
0.310609765,0,0,-19.608510971069336,0,0,0.7644000053405762
0.311231479,0,0,-4.898536682128906,0,0,0.8408399820327759
0.31185386,0,0,2.4576480388641357,0,0,1.070159912109375
0.31247576,0,0,2.4576480388641357,0,0,0.7644000053405762
0.313099215,0,0,-1.833359956741333,0,0,0.7644000053405762
0.313776058,0,0,-8.575431823730469,0,0,0.7644000053405762
0.314433271,0,0,-8.575431823730469,0,0,0.9172800183296204
0.315190243,0,0,7.360374450683594,0,0,0.9937199950218201
0.315819753,0,0,19.00577163696289,0,0,2.446079969406128
0.316441171,0,0,19.00577163696289,0,0,0.9172800183296204
0.317063497,0,0,6.7474589347839355,0,0,0.611519992351532
0.317685618,0,0,-3.0597896575927734,0,0,0.9172800183296204
0.318307981,0,0,-3.0597896575927734,0,0,0.8408399820327759
0.318930195,0,0,15.941193580627441,0,0,0.5350799560546875
0.319552094,0,0,15.941193580627441,0,0,0.5350799560546875
0.320174308,0,0,-14.704587936401367,0,0,0.611519992351532
0.320837374,0,0,17.779939651489258,0,0,0.9937199950218201
0.321462477,0,0,17.779939651489258,0,0,1.1466000080108643
0.322085265,0,0,18.39285659790039,0,0,0.8408399820327759
0.322707109,0,0,1.844732403755188,0,0,1.070159912109375
0.32332949,0,0,1.844732403755188,0,0,1.1466000080108643
0.323951463,0,0,-2.446275472640991,0,0,0.8408399820327759
0.324573807,0,0,-2.446275472640991,0,0,0.8408399820327759
0.32519591,0,0,-11.640009880065918,0,0,0.8408399820327759
0.325818791,0,0,-7.349600791931152,0,0,0.611519992351532
0.32644069,0,0,-7.349600791931152,0,0,1.1466000080108643
0.327062442,0,0,-11.027094841003418,0,0,0.9172800183296204
0.327684637,0,0,17.779939651489258,0,0,0.8408399820327759
0.328306666,0,0,17.779939651489258,0,0,1.070159912109375
0.328934788,0,0,15.328277587890625,0,0,0.8408399820327759
0.329558465,0,0,15.328277587890625,0,0,0.611519992351532
0.330180457,0,0,1.2312182188034058,0,0,0.8408399820327759
0.330802745,0,0,15.941193580627441,0,0,0.9172800183296204
0.331424496,0,0,15.941193580627441,0,0,1.070159912109375
0.332046377,0,0,8.58620548248291,0,0,1.070159912109375
0.33266848,0,0,8.58620548248291,0,0,0.9172800183296204
0.333290361,0,0,8.58620548248291,0,0,0.8408399820327759
0.333912668,0,0,11.038467407226563,0,0,0.611519992351532
0.334534438,0,0,11.038467407226563,0,0,1.070159912109375
0.335156615,0,0,9.81263542175293,0,0,0.6879600286483765
0.335778718,0,0,-6.736684799194336,0,0,0.6879600286483765
0.33640058,0,0,-6.736684799194336,0,0,0.7644000053405762
0.337022572,0,0,19.006370544433594,0,0,1.070159912109375
0.337645379,0,0,12.877213478088379,0,0,0.9172800183296204
0.338267001,0,0,12.877213478088379,0,0,0.8408399820327759
0.338888955,0,0,14.715362548828125,0,0,1.1466000080108643
0.339510781,0,0,14.715362548828125,0,0,1.223039984703064
0.340133069,0,0,7.97329044342041,0,0,0.7644000053405762
0.340754913,0,0,6.7474589347839355,0,0,0.9172800183296204
0.341376979,0,0,6.7474589347839355,0,0,0.9172800183296204
0.341999619,0,0,-16.5433349609375,0,0,0.6879600286483765
0.342620889,0,0,1.844732403755188,0,0,1.375920057296753
0.343243288,0,0,1.844732403755188,0,0,0.9172800183296204
0.343865206,0,0,-10.414178848266602,0,0,0.7644000053405762
0.344494105,0,0,-10.414178848266602,0,0,0.6879600286483765
0.345119931,0,0,-7.349600791931152,0,0,1.223039984703064
0.34574383,0,0,14.715362548828125,0,0,0.6879600286483765
0.346364951,0,0,14.715362548828125,0,0,0.7644000053405762
0.346986906,0,0,11.650784492492676,0,0,1.070159912109375
0.347608991,0,0,3.6834793090820313,0,0,0.6879600286483765
0.348230983,0,0,3.6834793090820313,0,0,1.2994799613952637
0.348852882,0,0,-13.47875690460205,0,0,0.6879600286483765
0.34951654,0,0,-13.47875690460205,0,0,0.9937199950218201
0.350143514,0,0,-3.6727054119110107,0,0,0.8408399820327759
0.35076595,0,0,16.554109573364258,0,0,0.8408399820327759
0.351387961,0,0,16.554109573364258,0,0,0.9172800183296204
0.352010101,0,0,6.134543418884277,0,0,1.070159912109375
0.352632463,0,0,14.102446556091309,0,0,0.6879600286483765
0.353254418,0,0,14.102446556091309,0,0,0.9937199950218201
0.353876854,0,0,-4.897938251495361,0,0,1.223039984703064
0.354498643,0,0,-4.897938251495361,0,0,1.070159912109375
0.355120783,0,0,2.4576480388641357,0,0,0.6879600286483765
0.355743145,0,0,-1.2204443216323853,0,0,1.070159912109375
0.356365452,0,0,-1.2204443216323853,0,0,0.7644000053405762
0.356987555,0,0,-5.5108537673950195,0,0,0.611519992351532
0.357609547,0,0,-10.414178848266602,0,0,0.9937199950218201
0.358231706,0,0,-10.414178848266602,0,0,0.8408399820327759
0.358853457,0,0,-14.091073989868164,0,0,1.070159912109375
0.359475375,0,0,-14.091073989868164,0,0,1.070159912109375
0.360097459,0,0,18.39285659790039,0,0,0.7644000053405762
0.360719192,0,0,-19.607913970947266,0,0,0.9172800183296204
0.361341406,0,0,-19.607913970947266,0,0,0.9172800183296204
0.361964472,0,0,-7.349600791931152,0,0,0.8408399820327759
0.362585575,0,0,-4.285022258758545,0,0,0.9937199950218201
0.363207901,0,0,-4.285022258758545,0,0,1.070159912109375
0.363829615,0,0,-5.5108537673950195,0,0,0.9172800183296204
0.364451718,0,0,-5.5108537673950195,0,0,1.070159912109375
0.365073636,0,0,-14.091672897338867,0,0,0.7644000053405762
0.365696405,0,0,6.7480573654174805,0,0,0.7644000053405762
0.366318194,0,0,6.7480573654174805,0,0,0.7644000053405762
0.366940149,0,0,-12.252326965332031,0,0,0.7644000053405762
0.3675624,0,0,-12.252326965332031,0,0,0.8408399820327759
0.368184373,0,0,4.909310817718506,0,0,0.8408399820327759
0.368806199,0,0,-0.6075286865234375,0,0,0.9172800183296204
0.36942832,0,0,-0.6075286865234375,0,0,1.1466000080108643
0.370051016,0,0,14.715960502624512,0,0,1.1466000080108643
0.370672656,0,0,-14.091672897338867,0,0,0.7644000053405762
0.371294722,0,0,-14.091672897338867,0,0,0.9172800183296204
0.371916881,0,0,7.360374450683594,0,0,2.06387996673584
0.372539873,0,0,7.360374450683594,0,0,1.1466000080108643
0.373161105,0,0,0.005985504016280174,0,0,0.8408399820327759
0.37378419,0,0,0.005985504016280174,0,0,1.070159912109375
0.374405311,0,0,0.005985504016280174,0,0,0.9172800183296204
0.375027507,0,0,14.102446556091309,0,0,0.7644000053405762
0.375649666,0,0,-17.15625,0,0,0.9172800183296204
0.37627151,0,0,-17.15625,0,0,0.9937199950218201
0.376893724,0,0,-7.9625163078308105,0,0,0.8408399820327759
0.377516401,0,0,-7.9625163078308105,0,0,0.9937199950218201
0.378139004,0,0,6.7480573654174805,0,0,1.070159912109375
0.378761089,0,0,-3.6721067428588867,0,0,0.4586400091648102
0.379382914,0,0,-3.6721067428588867,0,0,1.070159912109375
0.380005017,0,0,14.715362548828125,0,0,1.070159912109375
0.380626787,0,0,0.005985504016280174,0,0,0.8408399820327759
0.381248945,0,0,0.005985504016280174,0,0,1.070159912109375
0.38186903,0,0,0.6189011335372925,0,0,0.9937199950218201
0.382485744,0,0,0.6189011335372925,0,0,0.9172800183296204
0.383103292,0,0,-4.898536682128906,0,0,0.9937199950218201
0.383720302,0,0,-1.2210428714752197,0,0,0.9172800183296204
0.384337794,0,0,-1.2210428714752197,0,0,0.611519992351532
0.384955268,0,0,15.328277587890625,0,0,0.8408399820327759
0.385577649,0,0,12.263699531555176,0,0,0.611519992351532
0.38620003,0,0,12.263699531555176,0,0,1.223039984703064
0.386821484,0,0,1.8441338539123535,0,0,0.611519992351532
0.38744318,0,0,1.8441338539123535,0,0,0.9172800183296204
0.388064505,0,0,-1.833359956741333,0,0,1.1466000080108643
0.388686034,0,0,14.715960502624512,0,0,0.7644000053405762
0.389307693,0,0,14.715960502624512,0,0,1.070159912109375
0.389929926,0,0,-1.833359956741333,0,0,0.611519992351532
0.390550992,0,0,-1.833359956741333,0,0,0.6879600286483765
0.391172391,0,0,-7.349600791931152,0,0,1.070159912109375
0.391794142,0,0,6.135141849517822,0,0,0.9937199950218201
0.392418375,0,0,6.135141849517822,0,0,0.9937199950218201
0.393055922,0,0,5.521627902984619,0,0,0.6879600286483765
0.393696507,0,0,0.618302583694458,0,0,0.8408399820327759
0.394334776,0,0,0.618302583694458,0,0,1.1466000080108643
0.394972268,0,0,15.941193580627441,0,0,1.1466000080108643
0.395607852,0,0,3.069965124130249,0,0,0.9937199950218201
0.396239881,0,0,3.069965124130249,0,0,0.6879600286483765
0.396889669,0,0,17.167024612426758,0,0,1.070159912109375
0.397553883,0,0,17.167024612426758,0,0,0.9172800183296204
0.398176393,0,0,-13.47875690460205,0,0,0.6879600286483765
0.398798052,0,0,-8.575431823730469,0,0,0.7644000053405762
0.399419359,0,0,-8.575431823730469,0,0,0.7644000053405762
0.400041017,0,0,-16.5433349609375,0,0,0.611519992351532
0.400662546,0,0,-11.027094841003418,0,0,0.9172800183296204
0.401283983,0,0,-11.027094841003418,0,0,1.070159912109375
0.401905845,0,0,-18.382081985473633,0,0,0.9172800183296204
0.402527448,0,0,-18.382081985473633,0,0,0.9172800183296204
0.403148977,0,0,8.58620548248291,0,0,0.8408399820327759
0.403770414,0,0,-3.6727054119110107,0,0,0.8408399820327759
0.404393183,0,0,-3.6727054119110107,0,0,0.6879600286483765
0.405036897,0,0,10.424952507019043,0,0,0.8408399820327759
0.405675148,0,0,-16.5433349609375,0,0,1.070159912109375
0.406305548,0,0,-16.5433349609375,0,0,0.8408399820327759
0.406933743,0,0,-12.866439819335938,0,0,-9.096360206604004
0.407561291,0,0,2.457049608230591,0,0,0.8408399820327759
0.408190227,0,0,2.457049608230591,0,0,0.7644000053405762
0.408815978,0,0,-15.317503929138184,0,0,0.8408399820327759
0.409444396,0,0,-15.317503929138184,0,0,1.070159912109375
0.41006924,0,0,19.006370544433594,0,0,0.9172800183296204
0.410691046,0,0,-1.2204443216323853,0,0,1.1466000080108643
0.411312983,0,0,-1.2204443216323853,0,0,1.070159912109375
0.411934364,0,0,-3.6721067428588867,0,0,0.6879600286483765
0.412556189,0,0,-3.6721067428588867,0,0,0.8408399820327759
0.413177533,0,0,15.328876495361328,0,0,1.2994799613952637
0.413799395,0,0,3.6834793090820313,0,0,0.611519992351532
0.41442098,0,0,3.6834793090820313,0,0,0.611519992351532
0.415042361,0,0,12.876615524291992,0,0,1.1466000080108643
0.415664075,0,0,13.489530563354492,0,0,0.9172800183296204
0.41628553,0,0,13.489530563354492,0,0,0.611519992351532
0.41690717,0,0,12.263699531555176,0,0,0.9172800183296204
0.417552291,0,0,12.263699531555176,0,0,0.8408399820327759
0.418174746,0,0,7.97329044342041,0,0,0.7644000053405762
0.418796238,0,0,10.424952507019043,0,0,0.7644000053405762
0.419417563,0,0,10.424952507019043,0,0,0.9937199950218201
0.420039259,0,0,-9.801262855529785,0,0,0.6879600286483765
0.420660844,0,0,1.2318167686462402,0,0,0.9937199950218201
0.42128215,0,0,1.2318167686462402,0,0,1.223039984703064
0.421905013,0,0,0.6189011335372925,0,0,0.611519992351532
0.422525134,0,0,0.6189011335372925,0,0,0.9937199950218201
0.423146849,0,0,-3.6721067428588867,0,0,0.611519992351532
0.4237686,0,0,0.6189011335372925,0,0,0.611519992351532
0.424393129,0,0,0.6189011335372925,0,0,0.611519992351532
0.425013491,0,0,13.489530563354492,0,0,0.9937199950218201
0.425635316,0,0,11.650784492492676,0,0,0.9937199950218201
0.426256697,0,0,11.650784492492676,0,0,0.7644000053405762
0.426879671,0,0,-7.9625163078308105,0,0,0.8408399820327759
0.427500866,0,0,-7.9625163078308105,0,0,0.9937199950218201
0.428124655,0,0,3.6828808784484863,0,0,0.5350799560546875
0.42874548,0,0,-10.414178848266602,0,0,0.611519992351532
0.429367027,0,0,-10.414178848266602,0,0,0.9937199950218201
0.429988816,0,0,-6.736684799194336,0,0,0.8408399820327759
0.430610511,0,0,11.650784492492676,0,0,2.522519826889038
0.43123217,0,0,11.650784492492676,0,0,0.8408399820327759
0.431853606,0,0,4.2963948249816895,0,0,0.6879600286483765
0.432475432,0,0,4.2963948249816895,0,0,1.1466000080108643
0.433096887,0,0,3.6834793090820313,0,0,0.8408399820327759
0.433718305,0,0,-16.5433349609375,0,0,0.5350799560546875
0.434338537,0,0,-16.5433349609375,0,0,0.9937199950218201
0.434958733,0,0,-14.704587936401367,0,0,0.611519992351532
0.435601577,0,0,10.424952507019043,0,0,0.7644000053405762
0.436252753,0,0,10.424952507019043,0,0,0.7644000053405762
0.436884986,0,0,-4.898536682128906,0,0,0.8408399820327759
0.437508682,0,0,-4.898536682128906,0,0,0.9937199950218201
0.43813084,0,0,18.39285659790039,0,0,1.2994799613952637
0.438753332,0,0,-16.543933868408203,0,0,0.7644000053405762
0.43937538,0,0,-16.543933868408203,0,0,0.9172800183296204
0.439997798,0,0,4.2957963943481445,0,0,0.9937199950218201
0.440621104,0,0,17.167024612426758,0,0,1.070159912109375
0.441243652,0,0,17.167024612426758,0,0,0.9172800183296204
0.441866533,0,0,-1.833359956741333,0,0,0.4586400091648102
0.442488395,0,0,-1.833359956741333,0,0,0.611519992351532
0.443110665,0,0,2.4576480388641357,0,0,0.9937199950218201
0.443740323,0,0,17.78053855895996,0,0,0.3822000026702881
0.444370352,0,0,17.78053855895996,0,0,0.6879600286483765
0.444991381,0,0,-11.027094841003418,0,0,0.9937199950218201
0.445614669,0,0,0.005985504016280174,0,0,0.9937199950218201
0.446236235,0,0,0.005985504016280174,0,0,1.070159912109375
0.446858357,0,0,3.069965124130249,0,0,0.8408399820327759
0.447480719,0,0,3.069965124130249,0,0,0.7644000053405762
0.448103119,0,0,-3.0597896575927734,0,0,0.8408399820327759
0.448725722,0,0,9.812037467956543,0,0,1.223039984703064
0.449347603,0,0,9.812037467956543,0,0,0.611519992351532
0.449970687,0,0,-17.769765853881836,0,0,1.1466000080108643
0.45059242,0,0,-17.15625,0,0,0.9172800183296204
0.45121469,0,0,-17.15625,0,0,1.070159912109375
0.451836811,0,0,1.2312182188034058,0,0,0.9172800183296204
0.452459007,0,0,1.2312182188034058,0,0,1.070159912109375
0.453081054,0,0,-12.252925872802734,0,0,0.4586400091648102
0.453704139,0,0,-18.38148307800293,0,0,0.9937199950218201
0.454326261,0,0,-18.38148307800293,0,0,0.7644000053405762
0.454948401,0,0,-4.285022258758545,0,0,0.6879600286483765
0.455570819,0,0,1.8441338539123535,0,0,1.223039984703064
0.456192996,0,0,1.8441338539123535,0,0,0.8408399820327759
0.456815136,0,0,1.844732403755188,0,0,1.070159912109375
0.457437554,0,0,1.844732403755188,0,0,0.8408399820327759
0.45806049,0,0,11.03786849975586,0,0,0.7644000053405762
0.45868213,0,0,-5.5114521980285645,0,0,0.9937199950218201
0.459303974,0,0,-5.5114521980285645,0,0,0.9172800183296204
0.459926133,0,0,8.58620548248291,0,0,0.8408399820327759
0.460548458,0,0,6.7474589347839355,0,0,0.9172800183296204
0.461170598,0,0,6.7474589347839355,0,0,0.6879600286483765
0.461793738,0,0,10.424952507019043,0,0,0.6879600286483765
0.462415323,0,0,10.424952507019043,0,0,0.8408399820327759
0.463037648,0,0,-2.4468741416931152,0,0,2.2932000160217285
0.463659881,0,0,-5.5108537673950195,0,0,0.3822000026702881
0.464281965,0,0,-5.5108537673950195,0,0,0.7644000053405762
0.464904531,0,0,11.651382446289063,0,0,0.8408399820327759
0.465550042,0,0,5.522226333618164,0,0,1.1466000080108643
0.466173626,0,0,5.522226333618164,0,0,0.611519992351532
0.466796007,0,0,14.715960502624512,0,0,1.070159912109375
0.467418091,0,0,14.715960502624512,0,0,0.9937199950218201
0.468040361,0,0,18.393455505371094,0,0,1.070159912109375
0.468662205,0,0,-13.47875690460205,0,0,0.9937199950218201
0.46928453,0,0,-13.47875690460205,0,0,0.8408399820327759
0.469907707,0,0,-12.252925872802734,0,0,0.8408399820327759
0.470528903,0,0,9.199121475219727,0,0,1.1466000080108643
0.471151377,0,0,9.199121475219727,0,0,0.9937199950218201
0.471773424,0,0,-7.350199222564697,0,0,0.6879600286483765
0.472395805,0,0,-7.350199222564697,0,0,0.9937199950218201
0.473017871,0,0,15.328277587890625,0,0,1.070159912109375
0.4736404,0,0,9.199121475219727,0,0,0.6879600286483765
0.474262614,0,0,9.199121475219727,0,0,0.9172800183296204
0.47488481,0,0,-14.704587936401367,0,0,0.611519992351532
0.47550708,0,0,-14.704587936401367,0,0,0.7644000053405762
0.476129238,0,0,14.715960502624512,0,0,0.9172800183296204
0.476751489,0,0,6.135141849517822,0,0,0.8408399820327759
0.477373796,0,0,6.135141849517822,0,0,0.7644000053405762
0.477996566,0,0,16.554109573364258,0,0,1.1466000080108643
0.478618132,0,0,-5.5108537673950195,0,0,0.9172800183296204
0.479240013,0,0,-5.5108537673950195,0,0,0.9172800183296204
0.479862505,0,0,11.03786849975586,0,0,1.070159912109375
0.480484719,0,0,11.03786849975586,0,0,1.070159912109375
0.481106526,0,0,4.908711910247803,0,0,0.9937199950218201
0.481726777,0,0,15.941193580627441,0,0,1.070159912109375
0.482343473,0,0,15.941193580627441,0,0,0.9937199950218201
0.482960946,0,0,-3.6727054119110107,0,0,0.9172800183296204
0.483586864,0,0,7.360374450683594,0,0,1.070159912109375
0.484204689,0,0,7.360374450683594,0,0,0.7644000053405762
0.484822422,0,0,-14.091672897338867,0,0,0.8408399820327759
0.485439618,0,0,-14.091672897338867,0,0,0.8408399820327759
0.486063851,0,0,13.490129470825195,0,0,0.9172800183296204
0.486686065,0,0,5.522226333618164,0,0,1.223039984703064
0.487308223,0,0,5.522226333618164,0,0,-8.790599822998047
0.487930586,0,0,-16.5433349609375,0,0,0.6879600286483765
0.488552689,0,0,7.973888874053955,0,0,0.7644000053405762
0.489174996,0,0,7.973888874053955,0,0,0.8408399820327759
0.489798173,0,0,3.6834793090820313,0,0,0.8408399820327759
0.490421998,0,0,3.6834793090820313,0,0,0.7644000053405762
0.491043768,0,0,3.069965124130249,0,0,0.9172800183296204
0.491665963,0,0,-14.704587936401367,0,0,0.9937199950218201
0.492288363,0,0,-14.704587936401367,0,0,0.7644000053405762
0.492910558,0,0,6.7474589347839355,0,0,1.070159912109375
0.493543476,0,0,-0.608127236366272,0,0,0.611519992351532
0.494166135,0,0,-0.608127236366272,0,0,0.5350799560546875
0.494788442,0,0,-17.15625,0,0,0.9172800183296204
0.495410897,0,0,-17.15625,0,0,0.8408399820327759
0.496033222,0,0,9.19972038269043,0,0,0.8408399820327759
0.496655732,0,0,1.2324153184890747,0,0,0.6879600286483765
0.497278261,0,0,1.2324153184890747,0,0,0.9172800183296204
0.497901513,0,0,6.135141849517822,0,0,0.8408399820327759
0.498522856,0,0,-14.704587936401367,0,0,0.9172800183296204
0.499145108,0,0,-14.704587936401367,0,0,0.9172800183296204
0.49976784,0,0,-3.0591912269592285,0,0,1.1466000080108643
0.500389999,0,0,-3.0591912269592285,0,0,0.6879600286483765
0.501012028,0,0,-12.865840911865234,0,0,0.611519992351532
0.501635372,0,0,7.360374450683594,0,0,0.7644000053405762
0.502256975,0,0,7.360374450683594,0,0,0.7644000053405762
0.50287943,0,0,4.2957963943481445,0,0,0.9172800183296204
0.503501811,0,0,4.2957963943481445,0,0,0.9172800183296204
0.504123914,0,0,1.8441338539123535,0,0,1.070159912109375
0.504746239,0,0,-7.350199222564697,0,0,0.7644000053405762
0.505368509,0,0,-7.350199222564697,0,0,0.8408399820327759
0.505991556,0,0,-17.769166946411133,0,0,0.7644000053405762
0.506613178,0,0,-5.5108537673950195,0,0,0.9172800183296204
0.50723517,0,0,-5.5108537673950195,0,0,0.9937199950218201
0.50785731,0,0,-4.897339344024658,0,0,0.9937199950218201
0.508479283,0,0,-4.897339344024658,0,0,0.8408399820327759
0.509101886,0,0,-18.994400024414063,0,0,1.1466000080108643
0.509724971,0,0,2.4576480388641357,0,0,1.070159912109375
0.510346444,0,0,2.4576480388641357,0,0,0.7644000053405762
0.510968973,0,0,4.2963948249816895,0,0,0.9937199950218201
0.511591132,0,0,17.167024612426758,0,0,0.9172800183296204
0.512213661,0,0,17.167024612426758,0,0,0.5350799560546875
0.512835746,0,0,8.58620548248291,0,0,0.7644000053405762
0.513458089,0,0,8.58620548248291,0,0,0.9937199950218201
0.514081229,0,0,-0.608127236366272,0,0,0.6879600286483765
0.51470274,0,0,-18.995595932006836,0,0,0.9172800183296204
0.515324954,0,0,-18.995595932006836,0,0,0.6879600286483765
0.515947076,0,0,-6.737283706665039,0,0,1.1466000080108643
0.516569216,0,0,15.941193580627441,0,0,0.7644000053405762
0.517191449,0,0,15.941193580627441,0,0,0.9937199950218201
0.517814237,0,0,9.812037467956543,0,0,0.9172800183296204
0.518435895,0,0,9.812037467956543,0,0,-9.325679779052734
0.519058073,0,0,-15.930419921875,0,0,0.6879600286483765
0.519680546,0,0,-12.252925872802734,0,0,1.070159912109375
0.520302612,0,0,-12.252925872802734,0,0,0.7644000053405762
0.520924641,0,0,14.715362548828125,0,0,0.611519992351532
0.521547244,0,0,11.650784492492676,0,0,0.7644000053405762
0.522169292,0,0,11.650784492492676,0,0,0.7644000053405762
0.522791839,0,0,10.424952507019043,0,0,0.8408399820327759
0.523420498,0,0,10.424952507019043,0,0,0.7644000053405762
0.524050008,0,0,4.908711910247803,0,0,0.9937199950218201
0.524672167,0,0,-9.801262855529785,0,0,0.9172800183296204
0.525293585,0,0,-9.801262855529785,0,0,1.223039984703064
0.525917354,0,0,-7.349600791931152,0,0,0.9172800183296204
0.526538217,0,0,-17.769166946411133,0,0,0.9937199950218201
0.527160264,0,0,-17.769166946411133,0,0,1.2994799613952637
0.527782701,0,0,-5.5114521980285645,0,0,0.8408399820327759
0.528404711,0,0,-5.5114521980285645,0,0,0.6879600286483765
0.529027055,0,0,-16.5433349609375,0,0,1.070159912109375
0.529650065,0,0,-7.9625163078308105,0,0,1.1466000080108643
0.530271446,0,0,-7.9625163078308105,0,0,1.070159912109375
0.530893623,0,0,0.6189011335372925,0,0,0.611519992351532
0.531515615,0,0,-4.285022258758545,0,0,1.070159912109375
0.532137681,0,0,-4.285022258758545,0,0,0.9172800183296204
0.532759784,0,0,11.038467407226563,0,0,1.1466000080108643
0.533382017,0,0,11.038467407226563,0,0,0.7644000053405762
0.534004472,0,0,4.908711910247803,0,0,0.6879600286483765
0.534626409,0,0,-6.124367713928223,0,0,0.8408399820327759
0.535248771,0,0,-6.124367713928223,0,0,1.1466000080108643
0.535870818,0,0,-6.123769283294678,0,0,0.9172800183296204
0.536493347,0,0,-6.123769283294678,0,0,0.611519992351532
0.537115821,0,0,7.360374450683594,0,0,1.070159912109375
0.53773872,0,0,12.263699531555176,0,0,0.9937199950218201
0.538360212,0,0,12.263699531555176,0,0,0.9172800183296204
0.538982334,0,0,-14.091672897338867,0,0,0.9937199950218201
0.539604733,0,0,12.877213478088379,0,0,0.7644000053405762
0.540226873,0,0,12.877213478088379,0,0,0.9937199950218201
0.540849143,0,0,1.2318167686462402,0,0,1.2994799613952637
0.541471228,0,0,1.2318167686462402,0,0,1.070159912109375
0.542095053,0,0,15.328277587890625,0,0,1.070159912109375
0.542717267,0,0,-1.833359956741333,0,0,0.7644000053405762
0.543339518,0,0,-1.833359956741333,0,0,0.9172800183296204
0.543961436,0,0,9.19972038269043,0,0,1.223039984703064
0.544583854,0,0,19.00577163696289,0,0,0.9937199950218201
0.54520579,0,0,19.00577163696289,0,0,1.1466000080108643
0.545829005,0,0,14.102446556091309,0,0,0.9937199950218201
0.546450719,0,0,14.102446556091309,0,0,0.8408399820327759
0.547072711,0,0,17.167024612426758,0,0,0.6879600286483765
0.547695814,0,0,-15.318102836608887,0,0,0.5350799560546875
0.54831788,0,0,-15.318102836608887,0,0,0.7644000053405762
0.548939983,0,0,-18.382081985473633,0,0,0.7644000053405762
0.549563253,0,0,17.167024612426758,0,0,1.1466000080108643
0.550185356,0,0,17.167024612426758,0,0,0.9937199950218201
0.550807681,0,0,-4.897938251495361,0,0,0.7644000053405762
0.551429766,0,0,-4.897938251495361,0,0,0.9937199950218201
0.552052017,0,0,8.586804389953613,0,0,0.9937199950218201
0.552674083,0,0,13.490129470825195,0,0,0.611519992351532
0.553296334,0,0,13.490129470825195,0,0,0.8408399820327759
0.553919215,0,0,17.779939651489258,0,0,1.070159912109375
0.554540651,0,0,3.070563793182373,0,0,1.1466000080108643
0.55516581,0,0,3.070563793182373,0,0,0.8408399820327759
0.555790968,0,0,1.8441338539123535,0,0,0.6879600286483765
0.55641359,0,0,1.8441338539123535,0,0,0.611519992351532
0.55703586,0,0,3.6828808784484863,0,0,1.070159912109375
0.557659315,0,0,-16.5433349609375,0,0,0.9172800183296204
0.558280047,0,0,-16.5433349609375,0,0,0.9172800183296204
0.558902076,0,0,-11.640608787536621,0,0,0.9172800183296204
0.559524328,0,0,12.876615524291992,0,0,0.7644000053405762
0.560146227,0,0,12.876615524291992,0,0,0.9937199950218201
0.560768293,0,0,-14.704587936401367,0,0,0.4586400091648102
0.561390396,0,0,-14.704587936401367,0,0,0.5350799560546875
0.562013055,0,0,0.005985504016280174,0,0,0.7644000053405762
0.562634787,0,0,-17.15565299987793,0,0,1.070159912109375
0.563274279,0,0,-17.15565299987793,0,0,0.6879600286483765
0.563911567,0,0,2.4576480388641357,0,0,0.8408399820327759
0.564567874,0,0,7.360973358154297,0,0,0.9172800183296204
0.565211199,0,0,7.360973358154297,0,0,1.1466000080108643
0.565867005,0,0,13.490129470825195,0,0,0.9937199950218201
0.566491238,0,0,0.005985504016280174,0,0,0.8408399820327759
0.567112544,0,0,0.005985504016280174,0,0,0.9172800183296204
0.56773424,0,0,-6.736684799194336,0,0,1.1466000080108643
0.568355639,0,0,-6.736684799194336,0,0,0.9937199950218201
0.568977039,0,0,16.554109573364258,0,0,0.7644000053405762
0.569601179,0,0,-4.898536682128906,0,0,1.070159912109375
0.570220967,0,0,-4.898536682128906,0,0,0.6879600286483765
0.570842348,0,0,-15.930419921875,0,0,0.9172800183296204
0.571463525,0,0,-15.930419921875,0,0,0.9172800183296204
0.572084943,0,0,-16.5433349609375,0,0,0.8408399820327759
0.572706398,0,0,0.005985504016280174,0,0,0.8408399820327759
0.573327594,0,0,0.005985504016280174,0,0,1.070159912109375
0.573950067,0,0,-2.446275472640991,0,0,0.611519992351532
0.574570874,0,0,15.328277587890625,0,0,0.9172800183296204
0.575192236,0,0,15.328277587890625,0,0,0.4586400091648102
0.575813673,0,0,-15.930419921875,0,0,0.9172800183296204
0.576435035,0,0,-15.930419921875,0,0,0.9172800183296204
0.577056509,0,0,-0.6075286865234375,0,0,1.1466000080108643
0.577678445,0,0,-3.0597896575927734,0,0,0.8408399820327759
0.578299437,0,0,-3.0597896575927734,0,0,0.9172800183296204
0.578920688,0,0,-4.285621166229248,0,0,1.070159912109375
0.579541865,0,0,-1.2210428714752197,0,0,0.4586400091648102
0.580163468,0,0,-1.2210428714752197,0,0,1.070159912109375
0.580784627,0,0,-0.608127236366272,0,0,0.7644000053405762
0.581406175,0,0,-0.608127236366272,0,0,0.7644000053405762
0.582028407,0,0,-15.930419921875,0,0,1.070159912109375
0.582649159,0,0,-3.0591912269592285,0,0,0.7644000053405762
0.583270465,0,0,-3.0591912269592285,0,0,0.611519992351532
0.583891754,0,0,15.941792488098145,0,0,1.070159912109375
0.584513227,0,0,19.006370544433594,0,0,0.9937199950218201
0.585134515,0,0,19.006370544433594,0,0,0.305759996175766
0.585756767,0,0,1.844732403755188,0,0,0.9172800183296204
0.586377722,0,0,1.844732403755188,0,0,0.4586400091648102
0.586998936,0,0,8.58620548248291,0,0,1.070159912109375
0.587620446,0,0,4.2957963943481445,0,0,0.9172800183296204
0.588241512,0,0,4.2957963943481445,0,0,0.9172800183296204
0.588862967,0,0,6.134543418884277,0,0,1.070159912109375
0.589485792,0,0,1.2318167686462402,0,0,0.9172800183296204
0.590107562,0,0,1.2318167686462402,0,0,0.9937199950218201
0.59072898,0,0,-15.317503929138184,0,0,0.6879600286483765
0.591350046,0,0,-15.317503929138184,0,0,0.9172800183296204
0.59197152,0,0,4.908711910247803,0,0,0.6879600286483765
0.592593123,0,0,4.908711910247803,0,0,1.070159912109375
0.593214355,0,0,4.908711910247803,0,0,0.9172800183296204
0.593836533,0,0,12.263699531555176,0,0,0.9937199950218201
0.594456932,0,0,12.263699531555176,0,0,0.9172800183296204
0.595078405,0,0,-5.5108537673950195,0,0,0.9937199950218201
0.595699712,0,0,-3.0591912269592285,0,0,0.9937199950218201
0.596320889,0,0,-3.0591912269592285,0,0,0.611519992351532
0.596942455,0,0,-14.704587936401367,0,0,0.6879600286483765
0.597563762,0,0,-12.252925872802734,0,0,0.8408399820327759
0.598185365,0,0,-12.252925872802734,0,0,0.5350799560546875
0.59880632,0,0,-11.027692794799805,0,0,0.9937199950218201
0.599427923,0,0,-11.027692794799805,0,0,0.7644000053405762
0.600049397,0,0,-13.479355812072754,0,0,0.9172800183296204
0.600670704,0,0,-2.4468741416931152,0,0,0.9172800183296204
0.601292047,0,0,-2.4468741416931152,0,0,1.223039984703064
0.601913928,0,0,3.6828808784484863,0,0,0.8408399820327759
0.602534976,0,0,1.8441338539123535,0,0,0.9172800183296204
0.603172542,0,0,1.8441338539123535,0,0,1.1466000080108643
0.60379433,0,0,-14.091672897338867,0,0,0.6879600286483765
0.604415877,0,0,-14.091672897338867,0,0,0.7644000053405762
0.605037092,0,0,14.103045463562012,0,0,0.9172800183296204
0.605659343,0,0,14.103045463562012,0,0,0.9172800183296204
0.606280187,0,0,14.103045463562012,0,0,1.1466000080108643
0.606901716,0,0,12.264298439025879,0,0,0.3822000026702881
0.607523078,0,0,12.263699531555176,0,0,0.7644000053405762
0.608144126,0,0,12.263699531555176,0,0,0.611519992351532
0.608765877,0,0,1.844732403755188,0,0,1.223039984703064
0.609387091,0,0,1.844732403755188,0,0,0.9172800183296204
0.610009046,0,0,18.39285659790039,0,0,0.6879600286483765
0.610630019,0,0,-4.898536682128906,0,0,0.6879600286483765
0.611251271,0,0,-4.898536682128906,0,0,1.223039984703064
0.611872707,0,0,17.167024612426758,0,0,0.9172800183296204
0.612494162,0,0,7.360374450683594,0,0,1.1466000080108643
0.613115321,0,0,7.360374450683594,0,0,1.223039984703064
0.613737646,0,0,3.069965124130249,0,0,1.070159912109375
0.614358045,0,0,3.069965124130249,0,0,1.070159912109375
0.614979185,0,0,17.779939651489258,0,0,0.8408399820327759
0.615600381,0,0,-0.6075286865234375,0,0,0.7644000053405762
0.616221836,0,0,-0.6075286865234375,0,0,0.6879600286483765
0.616843235,0,0,-18.994400024414063,0,0,0.8408399820327759
0.617464394,0,0,12.877213478088379,0,0,0.7644000053405762
0.618086793,0,0,12.877213478088379,0,0,0.9937199950218201
0.618707304,0,0,9.19972038269043,0,0,0.6879600286483765
0.619328759,0,0,9.19972038269043,0,0,0.9937199950218201
0.61995038,0,0,-12.252326965332031,0,0,0.9937199950218201
0.620572446,0,0,0.005985504016280174,0,0,0.7644000053405762
0.62119355,0,0,0.005985504016280174,0,0,0.9937199950218201
0.621815819,0,0,1.2312182188034058,0,0,0.7644000053405762
0.622436237,0,0,1.2312182188034058,0,0,0.6879600286483765
0.623057563,0,0,19.00577163696289,0,0,0.7644000053405762
0.623680666,0,0,13.489530563354492,0,0,0.7644000053405762
0.624306639,0,0,13.489530563354492,0,0,0.7644000053405762
0.624927001,0,0,-3.6721067428588867,0,0,1.070159912109375
0.625551234,0,0,-11.027094841003418,0,0,0.6879600286483765
0.626175781,0,0,-11.027094841003418,0,0,0.9172800183296204
0.626798125,0,0,10.425551414489746,0,0,0.8408399820327759
0.627418858,0,0,10.425551414489746,0,0,0.611519992351532
0.628040091,0,0,-14.70398998260498,0,0,1.223039984703064
0.628662768,0,0,9.19972038269043,0,0,0.5350799560546875
0.629283667,0,0,9.19972038269043,0,0,0.8408399820327759
0.629905326,0,0,-3.6721067428588867,0,0,0.9172800183296204
0.630526614,0,0,-4.285022258758545,0,0,0.7644000053405762
0.631147717,0,0,-4.285022258758545,0,0,0.9172800183296204
0.631769283,0,0,0.005386953707784414,0,0,0.9937199950218201
0.63239072,0,0,0.005386953707784414,0,0,0.6879600286483765
0.633011989,0,0,-2.4468741416931152,0,0,0.8408399820327759
0.633634481,0,0,18.39285659790039,0,0,0.7644000053405762
0.634255788,0,0,18.39285659790039,0,0,1.070159912109375
0.634877188,0,0,2.457049608230591,0,0,0.7644000053405762
0.635498383,0,0,5.521627902984619,0,0,0.9937199950218201
0.636119838,0,0,5.521627902984619,0,0,0.611519992351532
0.636741404,0,0,1.8441338539123535,0,0,0.7644000053405762
0.637362489,0,0,1.8441338539123535,0,0,0.9937199950218201
0.637984277,0,0,-10.414178848266602,0,0,0.8408399820327759
0.638605602,0,0,5.522226333618164,0,0,1.070159912109375
0.639227131,0,0,5.522226333618164,0,0,0.4586400091648102
0.639940307,0,0,-11.640009880065918,0,0,0.9172800183296204
0.64056704,0,0,-9.801262855529785,0,0,0.611519992351532
0.641188791,0,0,-9.801262855529785,0,0,0.7644000053405762
0.64181058,0,0,4.2963948249816895,0,0,0.8408399820327759
0.64243172,0,0,4.2963948249816895,0,0,1.1466000080108643
0.643053212,0,0,8.58620548248291,0,0,0.8408399820327759
0.643674407,0,0,2.457049608230591,0,0,0.7644000053405762
0.644295677,0,0,2.457049608230591,0,0,1.1466000080108643
0.644916873,0,0,14.715362548828125,0,0,0.8408399820327759
0.645538846,0,0,16.554109573364258,0,0,1.070159912109375
0.646160227,0,0,16.554109573364258,0,0,0.6879600286483765
0.646781534,0,0,11.03786849975586,0,0,0.9172800183296204
0.647408729,0,0,11.03786849975586,0,0,0.8408399820327759
0.648030536,0,0,17.167024612426758,0,0,0.9172800183296204
0.648652139,0,0,-14.704587936401367,0,0,0.8408399820327759
0.649273428,0,0,-14.704587936401367,0,0,1.223039984703064
0.649894957,0,0,11.038467407226563,0,0,0.9172800183296204
0.650516097,0,0,17.779939651489258,0,0,0.8408399820327759
0.651137403,0,0,17.779939651489258,0,0,0.7644000053405762
0.651758895,0,0,11.650784492492676,0,0,0.7644000053405762
0.652380091,0,0,11.650784492492676,0,0,1.070159912109375
0.653001287,0,0,-16.5433349609375,0,0,0.7644000053405762
0.653623501,0,0,13.489530563354492,0,0,0.9172800183296204
0.654244956,0,0,13.489530563354492,0,0,0.9172800183296204
0.654866207,0,0,6.7474589347839355,0,0,1.070159912109375
0.655487458,0,0,12.263699531555176,0,0,1.070159912109375
0.656108432,0,0,12.263699531555176,0,0,1.223039984703064
0.656729757,0,0,-5.5114521980285645,0,0,0.6879600286483765
0.657351175,0,0,-5.5114521980285645,0,0,1.070159912109375
0.657973445,0,0,17.779939651489258,0,0,1.070159912109375
0.658593844,0,0,12.876615524291992,0,0,0.611519992351532
0.659215373,0,0,12.876615524291992,0,0,0.6879600286483765
0.659836624,0,0,-0.6075286865234375,0,0,0.6879600286483765
0.660457783,0,0,0.005985504016280174,0,0,-8.943479537963867
0.661079145,0,0,0.005985504016280174,0,0,0.8408399820327759
0.661700934,0,0,7.360374450683594,0,0,0.9172800183296204
0.662321666,0,0,7.360374450683594,0,0,0.6879600286483765
0.662943084,0,0,0.005985504016280174,0,0,0.8408399820327759
0.663564317,0,0,-18.994400024414063,0,0,1.070159912109375
0.664185698,0,0,-18.994400024414063,0,0,1.1466000080108643
0.664806745,0,0,14.102446556091309,0,0,0.8408399820327759
0.665428015,0,0,14.102446556091309,0,0,0.7644000053405762
0.666049989,0,0,18.39285659790039,0,0,0.8408399820327759
0.666670684,0,0,-10.414178848266602,0,0,1.1466000080108643
0.667292232,0,0,-10.414178848266602,0,0,0.8408399820327759
0.66791352,0,0,11.03786849975586,0,0,-9.172800064086914
0.668534882,0,0,9.199121475219727,0,0,0.9172800183296204
0.669156115,0,0,9.199121475219727,0,0,1.223039984703064
0.669778089,0,0,5.521627902984619,0,0,0.7644000053405762
0.670399062,0,0,5.521627902984619,0,0,0.9172800183296204
0.67102035,0,0,8.586804389953613,0,0,0.7644000053405762
0.671641861,0,0,17.16762351989746,0,0,0.9172800183296204
0.672263334,0,0,17.16762351989746,0,0,0.6879600286483765
0.672884474,0,0,14.102446556091309,0,0,0.9937199950218201
0.673506485,0,0,-7.349600791931152,0,0,0.9937199950218201
0.674128218,0,0,-7.349600791931152,0,0,0.7644000053405762
0.674749524,0,0,17.167024612426758,0,0,0.8408399820327759
0.675370776,0,0,17.167024612426758,0,0,-8.943479537963867
0.675992045,0,0,1.8441338539123535,0,0,0.9937199950218201
0.6766135,0,0,-3.0591912269592285,0,0,0.6879600286483765
0.677234696,0,0,-3.0591912269592285,0,0,0.7644000053405762
0.677856688,0,0,15.328277587890625,0,0,0.7644000053405762
0.678477328,0,0,15.941193580627441,0,0,0.6879600286483765
0.679098802,0,0,15.941193580627441,0,0,0.611519992351532
0.679720219,0,0,1.2318167686462402,0,0,0.9172800183296204
0.680341323,0,0,1.2318167686462402,0,0,0.7644000053405762
0.680962759,0,0,-16.5433349609375,0,0,0.9172800183296204
0.681602658,0,0,-6.123769283294678,0,0,0.611519992351532
0.682224317,0,0,-6.123769283294678,0,0,1.1466000080108643
0.682845661,0,0,2.4576480388641357,0,0,0.6879600286483765
0.683466838,0,0,3.069965124130249,0,0,0.8408399820327759
0.684088256,0,0,3.069965124130249,0,0,0.7644000053405762
0.684709544,0,0,1.2318167686462402,0,0,0.7644000053405762
0.685330943,0,0,1.2318167686462402,0,0,1.375920057296753
0.68595312,0,0,1.2318167686462402,0,0,0.7644000053405762
0.686573594,0,0,0.618302583694458,0,0,0.9172800183296204
0.687195197,0,0,0.618302583694458,0,0,1.1466000080108643
0.687816393,0,0,-4.898536682128906,0,0,0.9937199950218201
0.68843794,0,0,0.005386953707784414,0,0,0.8408399820327759
0.689059303,0,0,0.005386953707784414,0,0,0.611519992351532
0.689681257,0,0,14.102446556091309,0,0,0.611519992351532
0.690302231,0,0,14.102446556091309,0,0,1.223039984703064
0.690923445,0,0,15.328277587890625,0,0,0.9937199950218201
0.691544882,0,0,-12.252925872802734,0,0,0.6879600286483765
0.692166077,0,0,-12.252925872802734,0,0,0.611519992351532
0.692787217,0,0,-1.833359956741333,0,0,0.9937199950218201
0.693408783,0,0,-1.833359956741333,0,0,0.7644000053405762
0.69403059,0,0,-11.640009880065918,0,0,0.5350799560546875
0.694651638,0,0,-8.575431823730469,0,0,0.7644000053405762
0.695272907,0,0,-8.575431823730469,0,0,0.9937199950218201
0.695894566,0,0,19.006370544433594,0,0,1.070159912109375
0.696516058,0,0,-15.317503929138184,0,0,0.7644000053405762
0.697137291,0,0,-15.317503929138184,0,0,0.7644000053405762
0.697758523,0,0,-3.6727054119110107,0,0,1.070159912109375
0.698378108,0,0,-3.6727054119110107,0,0,0.9937199950218201
0.698998396,0,0,12.876615524291992,0,0,0.8408399820327759
0.699618703,0,0,4.2957963943481445,0,0,1.1466000080108643
0.700270324,0,0,4.2957963943481445,0,0,0.7644000053405762
0.700966371,0,0,-17.769166946411133,0,0,0.8408399820327759
0.701605307,0,0,17.779939651489258,0,0,1.1466000080108643
0.702227651,0,0,17.779939651489258,0,0,0.9937199950218201
0.702849958,0,0,11.651382446289063,0,0,0.5350799560546875
0.703471616,0,0,15.328876495361328,0,0,0.9172800183296204
0.704093831,0,0,15.328876495361328,0,0,1.223039984703064
0.704715711,0,0,15.328277587890625,0,0,0.4586400091648102
0.705337777,0,0,15.328277587890625,0,0,0.8408399820327759
0.705960825,0,0,11.03786849975586,0,0,0.5350799560546875
0.706581928,0,0,-1.833359956741333,0,0,1.223039984703064
0.707204105,0,0,-1.833359956741333,0,0,0.5350799560546875
0.707825875,0,0,-18.994997024536133,0,0,0.9172800183296204
0.708447811,0,0,15.941193580627441,0,0,0.8408399820327759
0.709069988,0,0,15.941193580627441,0,0,1.070159912109375
0.709692592,0,0,-13.47875690460205,0,0,0.9172800183296204
0.710313972,0,0,-13.47875690460205,0,0,0.5350799560546875
0.71093589,0,0,4.2957963943481445,0,0,0.9172800183296204
0.71155803,0,0,6.134543418884277,0,0,0.7644000053405762
0.712180133,0,0,6.134543418884277,0,0,0.8408399820327759
0.712801922,0,0,14.102446556091309,0,0,0.8408399820327759
0.71342384,0,0,-10.414178848266602,0,0,0.5350799560546875
0.714046406,0,0,-10.414178848266602,0,0,0.9937199950218201
0.71466799,0,0,19.00577163696289,0,0,1.1466000080108643
0.715289741,0,0,19.00577163696289,0,0,0.9937199950218201
0.715911474,0,0,-14.704587936401367,0,0,0.611519992351532
0.716533374,0,0,-17.15625,0,0,0.9937199950218201
0.717155106,0,0,-17.15625,0,0,0.9172800183296204
0.717777783,0,0,14.715960502624512,0,0,0.9172800183296204
0.718399201,0,0,14.715960502624512,0,0,0.9937199950218201
0.719021064,0,0,16.554109573364258,0,0,0.8408399820327759
0.719642889,0,0,11.650784492492676,0,0,1.1466000080108643
0.72026464,0,0,11.650784492492676,0,0,0.4586400091648102
0.720886558,0,0,4.908711910247803,0,0,0.9172800183296204
0.721508883,0,0,3.6828808784484863,0,0,1.070159912109375
0.72213132,0,0,3.6828808784484863,0,0,0.8408399820327759
0.722753275,0,0,7.360374450683594,0,0,0.8408399820327759
0.723375063,0,0,7.360374450683594,0,0,1.1466000080108643
0.723997018,0,0,4.2957963943481445,0,0,0.5350799560546875
0.724618936,0,0,-4.897938251495361,0,0,1.070159912109375
0.725240854,0,0,-4.897938251495361,0,0,0.611519992351532
0.725863605,0,0,-6.736684799194336,0,0,1.070159912109375
0.726484856,0,0,-17.15625,0,0,0.611519992351532
0.727106941,0,0,-17.15625,0,0,0.8408399820327759
0.727728877,0,0,-6.736684799194336,0,0,0.4586400091648102
0.728351017,0,0,-6.736684799194336,0,0,1.2994799613952637
0.72897288,0,0,18.393455505371094,0,0,0.9172800183296204
0.72959576,0,0,-11.640009880065918,0,0,0.7644000053405762
0.730217826,0,0,-11.640009880065918,0,0,0.8408399820327759
0.730839578,0,0,-4.898536682128906,0,0,0.8408399820327759
0.731461329,0,0,4.2957963943481445,0,0,-8.714159965515137
0.73208358,0,0,4.2957963943481445,0,0,0.9172800183296204
0.732705239,0,0,9.199121475219727,0,0,0.9937199950218201
0.733327157,0,0,9.199121475219727,0,0,0.7644000053405762
0.733949037,0,0,12.263699531555176,0,0,0.8408399820327759
0.734571104,0,0,-16.5433349609375,0,0,0.8408399820327759
0.735193188,0,0,-16.5433349609375,0,0,0.9172800183296204
0.735815106,0,0,-10.414178848266602,0,0,0.6879600286483765
0.736436987,0,0,10.425551414489746,0,0,0.9172800183296204
0.73705859,0,0,10.425551414489746,0,0,0.9172800183296204
0.737681415,0,0,-10.414178848266602,0,0,1.070159912109375
0.738302815,0,0,-10.414178848266602,0,0,0.9172800183296204
0.738924621,0,0,-5.5108537673950195,0,0,0.611519992351532
0.739546558,0,0,-2.446275472640991,0,0,1.1466000080108643
0.74018005,0,0,-2.446275472640991,0,0,0.9937199950218201
0.740801819,0,0,4.2957963943481445,0,0,0.9937199950218201
0.74142383,0,0,3.6828808784484863,0,0,1.070159912109375
0.742048025,0,0,3.6828808784484863,0,0,0.9172800183296204
0.74266848,0,0,-12.253523826599121,0,0,1.5288000106811523
0.743290213,0,0,-12.253523826599121,0,0,0.9937199950218201
0.743912205,0,0,-12.866439819335938,0,0,0.9937199950218201
0.744540715,0,0,-12.252925872802734,0,0,1.070159912109375
0.745162115,0,0,-12.252925872802734,0,0,0.7644000053405762
0.745786996,0,0,-3.6721067428588867,0,0,0.8408399820327759
0.746406969,0,0,7.973888874053955,0,0,0.5350799560546875
0.747028943,0,0,7.973888874053955,0,0,0.9937199950218201
0.747650601,0,0,17.16762351989746,0,0,1.2994799613952637
0.748272815,0,0,17.16762351989746,0,0,0.5350799560546875
0.748894548,0,0,-16.5433349609375,0,0,1.070159912109375
0.749516948,0,0,-4.285022258758545,0,0,0.7644000053405762
0.750139569,0,0,-4.285022258758545,0,0,0.9172800183296204
0.750761376,0,0,11.650784492492676,0,0,0.9172800183296204
0.751383442,0,0,11.650784492492676,0,0,0.9937199950218201
0.752005397,0,0,11.650784492492676,0,0,0.611519992351532
0.752627093,0,0,9.812037467956543,0,0,1.223039984703064
0.753249196,0,0,9.812037467956543,0,0,0.8408399820327759
0.753885706,0,0,-12.253523826599121,0,0,1.223039984703064
0.754508513,0,0,-11.640608787536621,0,0,0.7644000053405762
0.755130394,0,0,-11.640608787536621,0,0,0.6879600286483765
0.755752126,0,0,-16.5433349609375,0,0,0.9172800183296204
0.756374137,0,0,-16.5433349609375,0,0,1.070159912109375
0.756995962,0,0,12.876615524291992,0,0,0.8408399820327759
0.757618676,0,0,11.038467407226563,0,0,0.8408399820327759
0.758240057,0,0,11.038467407226563,0,0,1.070159912109375
0.758862012,0,0,19.006370544433594,0,0,0.8408399820327759
0.759484097,0,0,-1.2204443216323853,0,0,0.6879600286483765
0.760105996,0,0,-1.2204443216323853,0,0,1.070159912109375
0.760728099,0,0,-9.801262855529785,0,0,0.9937199950218201
0.761349869,0,0,-9.801262855529785,0,0,0.9937199950218201
0.761972694,0,0,-14.704587936401367,0,0,0.7644000053405762
0.762594131,0,0,2.457049608230591,0,0,0.7644000053405762
0.763215752,0,0,2.457049608230591,0,0,0.9937199950218201
0.7638378,0,0,17.779939651489258,0,0,0.7644000053405762
0.764459662,0,0,-2.4468741416931152,0,0,0.9937199950218201
0.765081765,0,0,-2.4468741416931152,0,0,0.6879600286483765
0.765705442,0,0,6.134543418884277,0,0,0.6879600286483765
0.766326971,0,0,6.134543418884277,0,0,0.9937199950218201
0.767041462,0,0,4.2957963943481445,0,0,0.8408399820327759
0.767663806,0,0,11.650784492492676,0,0,0.7644000053405762
0.768285724,0,0,11.650784492492676,0,0,0.7644000053405762
0.768907938,0,0,1.2318167686462402,0,0,0.7644000053405762
0.769550985,0,0,10.425551414489746,0,0,0.8408399820327759
0.770172959,0,0,10.425551414489746,0,0,0.7644000053405762
0.770794543,0,0,-4.897938251495361,0,0,0.7644000053405762
0.771416628,0,0,-6.123769283294678,0,0,0.9937199950218201
0.772038564,0,0,-6.123769283294678,0,0,2.6754000186920166
0.772660056,0,0,17.167024612426758,0,0,0.9172800183296204
0.77328203,0,0,17.167024612426758,0,0,0.7644000053405762
0.773904725,0,0,9.812037467956543,0,0,0.9172800183296204
0.774526069,0,0,15.941193580627441,0,0,1.223039984703064
0.775148228,0,0,15.941193580627441,0,0,0.8408399820327759
0.775770127,0,0,-0.608127236366272,0,0,0.9937199950218201
0.776392063,0,0,0.005386953707784414,0,0,0.7644000053405762
0.777013722,0,0,0.005386953707784414,0,0,0.8408399820327759
0.777636251,0,0,15.941193580627441,0,0,0.8408399820327759
0.778257354,0,0,15.941193580627441,0,0,0.7644000053405762
0.778879068,0,0,0.6189011335372925,0,0,0.6879600286483765
0.779500968,0,0,-5.5108537673950195,0,0,1.2994799613952637
0.780122756,0,0,-5.5108537673950195,0,0,1.1466000080108643
0.780744989,0,0,-14.091672897338867,0,0,-9.019920349121094
0.781366814,0,0,-14.091672897338867,0,0,0.9172800183296204
0.781989417,0,0,-13.47875690460205,0,0,0.6879600286483765
0.782610742,0,0,-12.865242958068848,0,0,1.070159912109375
0.783232605,0,0,-12.865242958068848,0,0,0.8408399820327759
0.783854578,0,0,-18.382081985473633,0,0,0.9937199950218201
0.784476626,0,0,1.8441338539123535,0,0,0.9172800183296204
0.785098118,0,0,1.8441338539123535,0,0,0.9937199950218201
0.785720906,0,0,-17.15625,0,0,0.8408399820327759
0.786342065,0,0,-17.15625,0,0,0.9937199950218201
0.786963945,0,0,7.360374450683594,0,0,0.8408399820327759
0.787585623,0,0,-18.382081985473633,0,0,0.9172800183296204
0.788207263,0,0,-18.382081985473633,0,0,0.9937199950218201
0.788829088,0,0,-9.801262855529785,0,0,0.7644000053405762
0.789450691,0,0,4.909310817718506,0,0,1.070159912109375
0.790073516,0,0,4.909310817718506,0,0,0.5350799560546875
0.790694619,0,0,3.6834793090820313,0,0,0.7644000053405762
0.791316593,0,0,3.6834793090820313,0,0,0.8408399820327759
0.791938622,0,0,-1.833359956741333,0,0,0.9172800183296204
0.792560429,0,0,-12.865840911865234,0,0,0.7644000053405762
0.793182587,0,0,-12.865840911865234,0,0,0.9937199950218201
0.793804968,0,0,4.909310817718506,0,0,1.223039984703064
0.794426553,0,0,12.263699531555176,0,0,0.8408399820327759
0.795048434,0,0,12.263699531555176,0,0,0.7644000053405762
0.795669852,0,0,-5.5114521980285645,0,0,0.8408399820327759
0.796291751,0,0,-5.5114521980285645,0,0,0.9172800183296204
0.796913373,0,0,-17.15625,0,0,0.8408399820327759
0.797545753,0,0,-3.0597896575927734,0,0,0.9172800183296204
0.79816769,0,0,-3.0597896575927734,0,0,0.7644000053405762
0.798789385,0,0,14.715362548828125,0,0,0.8408399820327759
0.799411322,0,0,-14.091672897338867,0,0,0.9172800183296204
0.800033166,0,0,-14.091672897338867,0,0,0.9937199950218201
0.80065525,0,0,4.909310817718506,0,0,0.7644000053405762
0.801277335,0,0,4.909310817718506,0,0,0.9937199950218201
0.801899882,0,0,1.2318167686462402,0,0,0.9172800183296204
0.802521226,0,0,0.005985504016280174,0,0,0.8408399820327759
0.803142866,0,0,0.005985504016280174,0,0,1.1466000080108643
0.803764895,0,0,-15.317503929138184,0,0,0.9937199950218201
0.804386813,0,0,-1.2204443216323853,0,0,0.7644000053405762
0.80500849,0,0,-1.2204443216323853,0,0,1.223039984703064
0.805631075,0,0,11.650784492492676,0,0,0.9172800183296204
0.806252344,0,0,11.650784492492676,0,0,0.9172800183296204
0.806874281,0,0,-18.382081985473633,0,0,0.9172800183296204
0.807495958,0,0,16.554109573364258,0,0,0.9172800183296204
0.808117802,0,0,16.554109573364258,0,0,1.2994799613952637
0.808739701,0,0,-1.8339585065841675,0,0,0.9172800183296204
0.809361527,0,0,3.069965124130249,0,0,0.8408399820327759
0.809984426,0,0,3.069965124130249,0,0,1.2994799613952637
0.810605529,0,0,-3.0597896575927734,0,0,0.9172800183296204
0.811227317,0,0,-3.0597896575927734,0,0,-8.790599822998047
0.811849087,0,0,-11.640009880065918,0,0,0.4586400091648102
0.81247069,0,0,-3.0585925579071045,0,0,0.9937199950218201
0.813092682,0,0,-3.0585925579071045,0,0,0.7644000053405762
0.813712193,0,0,13.490129470825195,0,0,0.611519992351532
0.814329074,0,0,13.490129470825195,0,0,0.7644000053405762
0.814956732,0,0,5.522226333618164,0,0,0.9172800183296204
0.815598687,0,0,-12.865840911865234,0,0,0.9937199950218201
0.816237641,0,0,-12.865840911865234,0,0,0.611519992351532
0.816888411,0,0,-8.575431823730469,0,0,0.611519992351532
0.817515366,0,0,4.2963948249816895,0,0,0.611519992351532
0.818137284,0,0,4.2963948249816895,0,0,1.070159912109375
0.818759331,0,0,-0.608127236366272,0,0,0.9172800183296204
0.819381156,0,0,-15.931017875671387,0,0,0.3822000026702881
0.820002926,0,0,-15.931017875671387,0,0,0.611519992351532
0.820625659,0,0,4.2957963943481445,0,0,0.8408399820327759
0.821247466,0,0,4.2957963943481445,0,0,0.9172800183296204
0.821870161,0,0,-17.769166946411133,0,0,0.611519992351532
0.822491338,0,0,7.973888874053955,0,0,0.5350799560546875
0.82311309,0,0,7.973888874053955,0,0,1.1466000080108643
0.823735304,0,0,-7.961917877197266,0,0,1.070159912109375
0.824365537,0,0,-4.897938251495361,0,0,0.8408399820327759
0.824989843,0,0,-4.897938251495361,0,0,0.8408399820327759
0.825616169,0,0,-6.736684799194336,0,0,1.070159912109375
0.826240901,0,0,-6.736684799194336,0,0,0.9172800183296204
0.826862523,0,0,-8.575431823730469,0,0,0.9937199950218201
0.827484218,0,0,3.6828808784484863,0,0,2.06387996673584
0.828108581,0,0,3.6828808784484863,0,0,0.8408399820327759
0.82873048,0,0,16.554109573364258,0,0,0.7644000053405762
0.829351954,0,0,-17.769166946411133,0,0,0.9937199950218201
0.82997452,0,0,-17.769166946411133,0,0,0.9172800183296204
0.830596252,0,0,-9.801262855529785,0,0,0.5350799560546875
0.831217892,0,0,-9.801262855529785,0,0,1.070159912109375
0.831839884,0,0,-3.6721067428588867,0,0,1.070159912109375
0.832461562,0,0,-12.252925872802734,0,0,0.8408399820327759
0.833083517,0,0,-12.252925872802734,0,0,0.9937199950218201
0.83370586,0,0,-18.994400024414063,0,0,0.9172800183296204
0.834327704,0,0,-18.994400024414063,0,0,0.9937199950218201
0.834949733,0,0,-1.833359956741333,0,0,0.5350799560546875
0.83557141,0,0,-19.607913970947266,0,0,0.9172800183296204
0.836193513,0,0,-19.607913970947266,0,0,-9.096360206604004
0.836815357,0,0,10.425551414489746,0,0,0.9172800183296204
0.837437331,0,0,12.264298439025879,0,0,1.070159912109375
0.8380596,0,0,12.264298439025879,0,0,0.9172800183296204
0.838681259,0,0,0.005386953707784414,0,0,0.6879600286483765
0.839303195,0,0,0.005386953707784414,0,0,0.6879600286483765
0.839924891,0,0,0.005386953707784414,0,0,0.7644000053405762
0.840546846,0,0,15.328277587890625,0,0,1.070159912109375
0.841168616,0,0,15.328277587890625,0,0,0.8408399820327759
0.841790719,0,0,2.457049608230591,0,0,0.6879600286483765
0.842412415,0,0,-3.0597896575927734,0,0,1.223039984703064
0.843033944,0,0,-3.0597896575927734,0,0,0.9172800183296204
0.843655676,0,0,-11.640009880065918,0,0,0.7644000053405762
0.844277465,0,0,-11.640009880065918,0,0,0.6879600286483765
0.844899012,0,0,0.6189011335372925,0,0,0.9172800183296204
0.845523097,0,0,11.038467407226563,0,0,1.2994799613952637
0.846147533,0,0,11.038467407226563,0,0,0.6879600286483765
0.846769451,0,0,0.005985504016280174,0,0,0.9172800183296204
0.847391147,0,0,-6.736684799194336,0,0,0.6879600286483765
0.848012768,0,0,-6.736684799194336,0,0,1.2994799613952637
0.848634538,0,0,-11.027094841003418,0,0,0.8408399820327759
0.849256326,0,0,-11.027094841003418,0,0,0.6879600286483765
0.849878337,0,0,-14.092270851135254,0,0,1.070159912109375
0.850499995,0,0,4.2957963943481445,0,0,1.223039984703064
0.851121543,0,0,4.2957963943481445,0,0,0.5350799560546875
0.851743387,0,0,-11.027094841003418,0,0,0.7644000053405762
0.852364805,0,0,12.876615524291992,0,0,0.9172800183296204
0.852986852,0,0,12.876615524291992,0,0,0.9937199950218201
0.853609177,0,0,13.489530563354492,0,0,0.8408399820327759
0.854230873,0,0,13.489530563354492,0,0,0.7644000053405762
0.85485268,0,0,17.167024612426758,0,0,0.8408399820327759
0.85547445,0,0,-3.671508312225342,0,0,0.7644000053405762
0.856096534,0,0,-3.671508312225342,0,0,1.223039984703064
0.85671823,0,0,12.877213478088379,0,0,0.9172800183296204
0.857340111,0,0,2.457049608230591,0,0,1.1466000080108643
0.857962973,0,0,2.457049608230591,0,0,0.6879600286483765
0.858583817,0,0,0.6189011335372925,0,0,0.9937199950218201
0.859205698,0,0,0.6189011335372925,0,0,0.9937199950218201
0.859827227,0,0,-12.865840911865234,0,0,0.7644000053405762
0.860463237,0,0,4.908711910247803,0,0,1.2994799613952637
0.861085859,0,0,4.908711910247803,0,0,1.1466000080108643
0.86170848,0,0,1.2318167686462402,0,0,0.9172800183296204
0.862329824,0,0,12.263699531555176,0,0,1.1466000080108643
0.862951464,0,0,12.263699531555176,0,0,0.7644000053405762
0.863573475,0,0,12.876615524291992,0,0,0.611519992351532
0.864195281,0,0,12.876615524291992,0,0,0.9937199950218201
0.864816792,0,0,-5.5114521980285645,0,0,0.7644000053405762
0.865438802,0,0,3.069965124130249,0,0,0.7644000053405762
0.866061109,0,0,3.069965124130249,0,0,0.8408399820327759
0.866682342,0,0,15.328876495361328,0,0,0.9937199950218201
0.867305167,0,0,15.328876495361328,0,0,0.9172800183296204
0.867926437,0,0,12.264298439025879,0,0,0.7644000053405762
0.868548262,0,0,-1.2204443216323853,0,0,0.9937199950218201
0.869170032,0,0,-1.2204443216323853,0,0,0.9172800183296204
0.86979345,0,0,7.973888874053955,0,0,0.8408399820327759
0.870414497,0,0,3.069965124130249,0,0,0.9937199950218201
0.87103623,0,0,3.069965124130249,0,0,0.7644000053405762
0.871658315,0,0,6.7474589347839355,0,0,1.070159912109375
0.872280196,0,0,6.7474589347839355,0,0,0.6879600286483765
0.872902206,0,0,2.457049608230591,0,0,1.070159912109375
0.873524791,0,0,-0.608127236366272,0,0,1.1466000080108643
0.87414782,0,0,-0.608127236366272,0,0,0.6879600286483765
0.874769923,0,0,-4.898536682128906,0,0,0.6879600286483765
0.875391618,0,0,13.488932609558105,0,0,0.9937199950218201
0.876013573,0,0,13.488932609558105,0,0,0.5350799560546875
0.87663538,0,0,-7.349600791931152,0,0,0.7644000053405762
0.877257502,0,0,-7.349600791931152,0,0,0.9172800183296204
0.877880382,0,0,7.973888874053955,0,0,1.1466000080108643
0.878501615,0,0,11.651382446289063,0,0,0.4586400091648102
0.879124922,0,0,11.651382446289063,0,0,0.9937199950218201
0.879747192,0,0,-17.15625,0,0,0.9172800183296204
0.880369239,0,0,-9.187748908996582,0,0,0.9937199950218201
0.880991194,0,0,-9.187748908996582,0,0,0.7644000053405762
0.881613816,0,0,17.779939651489258,0,0,0.8408399820327759
0.8822419,0,0,17.779939651489258,0,0,0.8408399820327759
0.882864225,0,0,-9.188945770263672,0,0,0.8408399820327759
0.883486254,0,0,-14.091672897338867,0,0,0.7644000053405762
0.884107932,0,0,-14.091672897338867,0,0,1.070159912109375
0.884729627,0,0,-19.608510971069336,0,0,0.8408399820327759
0.885351675,0,0,15.941193580627441,0,0,0.9172800183296204
0.885974259,0,0,15.941193580627441,0,0,0.9937199950218201
0.886595807,0,0,-5.5108537673950195,0,0,0.6879600286483765
0.887217632,0,0,-5.5108537673950195,0,0,0.6879600286483765
0.887839291,0,0,-3.6721067428588867,0,0,0.611519992351532
0.888461227,0,0,14.103045463562012,0,0,0.9937199950218201
0.889083182,0,0,14.103045463562012,0,0,1.1466000080108643
0.889705804,0,0,7.97329044342041,0,0,0.8408399820327759
0.890327037,0,0,12.876615524291992,0,0,0.7644000053405762
0.890949232,0,0,12.876615524291992,0,0,0.9172800183296204
0.891571298,0,0,-16.5433349609375,0,0,0.7644000053405762
0.892193179,0,0,-16.5433349609375,0,0,1.223039984703064
0.892815153,0,0,19.005172729492188,0,0,0.7644000053405762
0.893436885,0,0,14.715362548828125,0,0,0.8408399820327759
0.894059655,0,0,14.715362548828125,0,0,0.7644000053405762
0.894681369,0,0,-15.930419921875,0,0,0.9937199950218201
0.895303509,0,0,10.424952507019043,0,0,0.7644000053405762
0.895925501,0,0,10.424952507019043,0,0,0.6879600286483765
0.896547327,0,0,-18.382081985473633,0,0,0.8408399820327759
0.897169263,0,0,-18.382081985473633,0,0,0.9937199950218201
0.897791996,0,0,11.650784492492676,0,0,0.7644000053405762
0.898413451,0,0,16.554109573364258,0,0,0.611519992351532
0.89903548,0,0,16.554109573364258,0,0,1.1466000080108643
0.899657231,0,0,16.55470848083496,0,0,0.9172800183296204
0.900279297,0,0,16.55470848083496,0,0,0.611519992351532
0.900901752,0,0,-7.9625163078308105,0,0,0.6879600286483765
0.901524244,0,0,-15.930419921875,0,0,0.8408399820327759
0.902146717,0,0,-15.930419921875,0,0,0.9937199950218201
0.902768506,0,0,-7.9625163078308105,0,0,0.9937199950218201
0.903390683,0,0,9.199121475219727,0,0,0.9172800183296204
0.904012619,0,0,9.199121475219727,0,0,0.7644000053405762
0.90463437,0,0,17.167024612426758,0,0,1.1466000080108643
0.905256529,0,0,17.167024612426758,0,0,-8.867039680480957
0.905879243,0,0,-18.994997024536133,0,0,0.7644000053405762
0.906500642,0,0,11.03786849975586,0,0,0.611519992351532
0.90712232,0,0,11.03786849975586,0,0,0.9937199950218201
0.907744256,0,0,-15.317503929138184,0,0,1.1466000080108643
0.908366211,0,0,-11.640009880065918,0,0,0.6879600286483765
0.908988036,0,0,-11.640009880065918,0,0,0.8408399820327759
0.90961088,0,0,15.941792488098145,0,0,0.8408399820327759
0.910231983,0,0,15.941792488098145,0,0,0.9937199950218201
0.910853957,0,0,5.522226333618164,0,0,0.4586400091648102
0.911476152,0,0,-19.607913970947266,0,0,1.070159912109375
0.912097774,0,0,-19.607913970947266,0,0,0.7644000053405762
0.912719821,0,0,-1.2204443216323853,0,0,0.9172800183296204
0.913341573,0,0,-15.930419921875,0,0,1.070159912109375
0.913964361,0,0,-15.930419921875,0,0,0.9172800183296204
0.914585945,0,0,2.457049608230591,0,0,0.9172800183296204
0.91520766,0,0,2.457049608230591,0,0,0.7644000053405762
0.915829763,0,0,5.521627902984619,0,0,0.8408399820327759
0.916451477,0,0,5.521627902984619,0,0,1.070159912109375
0.917073487,0,0,5.521627902984619,0,0,0.9172800183296204
0.917696239,0,0,-13.479355812072754,0,0,1.1466000080108643
0.918317416,0,0,-17.15625,0,0,1.1466000080108643
0.918939574,0,0,-17.15625,0,0,0.6879600286483765
0.919561307,0,0,-1.2204443216323853,0,0,0.9172800183296204
0.920183336,0,0,-1.2204443216323853,0,0,0.9937199950218201
0.920804884,0,0,-15.31690502166748,0,0,0.7644000053405762
0.921426431,0,0,-1.833359956741333,0,0,0.8408399820327759
0.922055145,0,0,-1.833359956741333,0,0,0.9172800183296204
0.922676822,0,0,4.908711910247803,0,0,0.8408399820327759
0.923298944,0,0,-10.414178848266602,0,0,0.9937199950218201
0.92392088,0,0,-10.414178848266602,0,0,1.223039984703064
0.924542521,0,0,-7.9625163078308105,0,0,0.6879600286483765
0.925164494,0,0,-7.9625163078308105,0,0,0.9172800183296204
0.925787079,0,0,-3.6727054119110107,0,0,0.8408399820327759
0.926408756,0,0,15.941193580627441,0,0,0.8408399820327759
0.927030433,0,0,15.941193580627441,0,0,1.2994799613952637
0.927652499,0,0,9.199121475219727,0,0,1.2994799613952637
0.928274306,0,0,7.360374450683594,0,0,0.8408399820327759
0.928896057,0,0,7.360374450683594,0,0,0.7644000053405762
0.92951853,0,0,-3.0591912269592285,0,0,0.9172800183296204
0.930140726,0,0,-3.0591912269592285,0,0,1.1466000080108643
0.930762718,0,0,-9.801262855529785,0,0,0.4586400091648102
0.931384747,0,0,-6.123769283294678,0,0,0.611519992351532
0.932006572,0,0,-6.123769283294678,0,0,0.9937199950218201
0.932628805,0,0,-4.285022258758545,0,0,0.6879600286483765
0.933250575,0,0,-4.285022258758545,0,0,0.9172800183296204
0.933872715,0,0,15.328277587890625,0,0,0.7644000053405762
0.934494411,0,0,-9.188347816467285,0,0,1.1466000080108643
0.935116143,0,0,-9.188347816467285,0,0,1.070159912109375
0.935738117,0,0,12.263699531555176,0,0,-8.867039680480957
0.936360127,0,0,-10.414777755737305,0,0,0.9937199950218201
0.936982064,0,0,-10.414777755737305,0,0,1.070159912109375
0.937604926,0,0,-19.607913970947266,0,0,0.9172800183296204
0.938226066,0,0,-19.607913970947266,0,0,0.7644000053405762
0.938847928,0,0,-15.318102836608887,0,0,0.8408399820327759
0.939469606,0,0,9.812037467956543,0,0,1.070159912109375
0.940091764,0,0,9.812037467956543,0,0,0.9172800183296204
0.940713812,0,0,-12.252925872802734,0,0,0.8408399820327759
0.941335544,0,0,9.812037467956543,0,0,0.611519992351532
0.94195837,0,0,9.812037467956543,0,0,0.7644000053405762
0.942579528,0,0,-15.930419921875,0,0,0.9172800183296204
0.94320152,0,0,-15.930419921875,0,0,1.1466000080108643
0.943823105,0,0,-6.123769283294678,0,0,0.611519992351532
0.944444893,0,0,-13.47875690460205,0,0,0.7644000053405762
0.945067181,0,0,-13.47875690460205,0,0,0.9172800183296204
0.945689525,0,0,1.844732403755188,0,0,0.9172800183296204
0.946311128,0,0,17.167024612426758,0,0,0.7644000053405762
0.946932824,0,0,17.167024612426758,0,0,0.9172800183296204
0.947554798,0,0,1.2312182188034058,0,0,0.9937199950218201
0.948176827,0,0,1.2312182188034058,0,0,0.8408399820327759
0.948798615,0,0,-17.769166946411133,0,0,0.8408399820327759
0.94942057,0,0,13.489530563354492,0,0,1.1466000080108643
0.950043228,0,0,13.489530563354492,0,0,1.1466000080108643
0.950664702,0,0,18.39285659790039,0,0,1.070159912109375
0.951286823,0,0,-3.0597896575927734,0,0,0.7644000053405762
0.951908667,0,0,-3.0597896575927734,0,0,0.6879600286483765
0.952530696,0,0,-8.575431823730469,0,0,0.8408399820327759
0.953152466,0,0,-8.575431823730469,0,0,1.2994799613952637
0.953775273,0,0,7.360973358154297,0,0,1.223039984703064
0.954396709,0,0,-11.640009880065918,0,0,0.9172800183296204
0.955018479,0,0,-11.640009880065918,0,0,0.9172800183296204
0.955640638,0,0,0.618302583694458,0,0,0.8408399820327759
0.956262389,0,0,2.4576480388641357,0,0,0.9172800183296204
0.956884344,0,0,2.4576480388641357,0,0,0.9172800183296204
0.957506854,0,0,16.554109573364258,0,0,0.611519992351532
0.958128198,0,0,16.554109573364258,0,0,0.9172800183296204
0.95875019,0,0,-14.704587936401367,0,0,1.1466000080108643
0.959371812,0,0,-12.252925872802734,0,0,1.070159912109375
0.959993841,0,0,-12.252925872802734,0,0,1.070159912109375
0.960615851,0,0,10.424354553222656,0,0,1.070159912109375
0.96123775,0,0,10.424354553222656,0,0,0.8408399820327759
0.961866502,0,0,7.360374450683594,0,0,0.7644000053405762
0.962488494,0,0,-7.349600791931152,0,0,0.5350799560546875
0.963110671,0,0,-7.349600791931152,0,0,0.8408399820327759
0.963732459,0,0,10.425551414489746,0,0,0.7644000053405762
0.964354562,0,0,-15.930419921875,0,0,1.2994799613952637
0.964976424,0,0,-15.930419921875,0,0,0.7644000053405762
0.965599713,0,0,-13.47875690460205,0,0,0.6879600286483765
0.96622626,0,0,-13.47875690460205,0,0,0.611519992351532
0.966848641,0,0,7.973888874053955,0,0,0.7644000053405762
0.967470577,0,0,0.005985504016280174,0,0,1.375920057296753
0.968092736,0,0,0.005985504016280174,0,0,0.6879600286483765
0.968714302,0,0,6.134543418884277,0,0,1.070159912109375
0.969336164,0,0,-17.769166946411133,0,0,0.611519992351532
0.969958823,0,0,-17.769166946411133,0,0,0.9172800183296204
0.970579815,0,0,-16.5433349609375,0,0,0.7644000053405762
0.971201937,0,0,-16.5433349609375,0,0,0.9172800183296204
0.971823688,0,0,10.424952507019043,0,0,0.8408399820327759
0.972446013,0,0,-18.994997024536133,0,0,0.6879600286483765
0.973068024,0,0,-18.994997024536133,0,0,1.5288000106811523
0.973690904,0,0,9.812037467956543,0,0,0.8408399820327759
0.974312433,0,0,9.81263542175293,0,0,0.5350799560546875
0.974934166,0,0,9.81263542175293,0,0,0.9937199950218201
0.975556251,0,0,12.264298439025879,0,0,1.070159912109375
0.976178039,0,0,12.264298439025879,0,0,0.8408399820327759
0.976800068,0,0,17.779939651489258,0,0,0.7644000053405762
0.977421838,0,0,-17.15625,0,0,0.9172800183296204
0.978044367,0,0,-17.15625,0,0,1.070159912109375
0.978666118,0,0,4.908711910247803,0,0,1.070159912109375
0.97928811,0,0,-1.8339585065841675,0,0,0.9172800183296204
0.979910176,0,0,-1.8339585065841675,0,0,0.7644000053405762
0.980532353,0,0,3.069965124130249,0,0,0.9937199950218201
0.981154271,0,0,3.069965124130249,0,0,0.9937199950218201
0.981776967,0,0,8.58620548248291,0,0,0.9937199950218201
0.982398385,0,0,19.00577163696289,0,0,0.8408399820327759
0.983020173,0,0,19.00577163696289,0,0,0.6879600286483765
0.98364172,0,0,-16.5433349609375,0,0,0.7644000053405762
0.984263694,0,0,-12.252925872802734,0,0,0.6879600286483765
0.984885871,0,0,-12.252925872802734,0,0,0.7644000053405762
0.985508344,0,0,-16.542736053466797,0,0,0.5350799560546875
0.98613067,0,0,-16.542736053466797,0,0,0.9937199950218201
0.986752439,0,0,11.038467407226563,0,0,0.305759996175766
0.987374209,0,0,-15.317503929138184,0,0,1.223039984703064
0.987996349,0,0,-15.317503929138184,0,0,0.5350799560546875
0.988618045,0,0,-8.575431823730469,0,0,0.8408399820327759
0.989239889,0,0,-11.640009880065918,0,0,0.9172800183296204
0.989862362,0,0,-11.640009880065918,0,0,0.9172800183296204
0.990486743,0,0,-14.70518684387207,0,0,0.8408399820327759
0.991108568,0,0,-14.70518684387207,0,0,0.9937199950218201
0.991730134,0,0,-8.576030731201172,0,0,0.7644000053405762
0.992352052,0,0,-3.6727054119110107,0,0,0.9172800183296204
0.992973692,0,0,-3.6727054119110107,0,0,0.611519992351532
0.993596833,0,0,3.069965124130249,0,0,0.6879600286483765
0.994218843,0,0,3.069965124130249,0,0,1.223039984703064
0.994840409,0,0,-9.801262855529785,0,0,0.5350799560546875
0.99546229,0,0,-0.6075286865234375,0,0,0.7644000053405762
0.996084115,0,0,-0.6075286865234375,0,0,0.8408399820327759
0.996705922,0,0,9.19972038269043,0,0,0.9937199950218201
0.997327858,0,0,0.6189011335372925,0,0,0.9172800183296204
0.997950517,0,0,0.6189011335372925,0,0,0.9937199950218201
0.998571491,0,0,-17.769166946411133,0,0,0.611519992351532
0.999193353,0,0,-17.769166946411133,0,0,1.1466000080108643
0.999815382,0,0,1.2318167686462402,0,0,0.9937199950218201
1.000436985,0,0,17.167024612426758,0,0,0.6879600286483765
1.001058866,0,0,17.167024612426758,0,0,0.9172800183296204
1.001684321,0,0,-14.092270851135254,0,0,0.8408399820327759
1.002301276,0,0,3.069965124130249,0,0,0.9172800183296204
1.002918768,0,0,3.069965124130249,0,0,0.7644000053405762
1.003536056,0,0,11.03786849975586,0,0,0.7644000053405762
1.004153659,0,0,11.03786849975586,0,0,0.9172800183296204
1.00477104,0,0,6.7474589347839355,0,0,0.9172800183296204
1.00538831,0,0,-14.091672897338867,0,0,0.8408399820327759
1.006011672,0,0,-14.091672897338867,0,0,0.9172800183296204
1.00663359,0,0,-16.5433349609375,0,0,0.611519992351532
1.007255341,0,0,6.7480573654174805,0,0,0.7644000053405762
1.007877185,0,0,6.7480573654174805,0,0,0.7644000053405762
1.008498918,0,0,-8.575431823730469,0,0,0.8408399820327759
1.009121039,0,0,-8.575431823730469,0,0,0.7644000053405762
1.00974368,0,0,-11.640009880065918,0,0,0.9172800183296204
1.010364857,0,0,0.6189011335372925,0,0,1.070159912109375
1.010986719,0,0,0.6189011335372925,0,0,0.9937199950218201
1.011608396,0,0,10.424952507019043,0,0,0.9937199950218201
1.012230666,0,0,-1.2210428714752197,0,0,0.9172800183296204
1.012852251,0,0,-1.2210428714752197,0,0,0.9172800183296204
1.013474243,0,0,8.58620548248291,0,0,0.7644000053405762
1.014106494,0,0,8.58620548248291,0,0,0.8408399820327759
1.014728374,0,0,4.2957963943481445,0,0,0.7644000053405762
1.015350441,0,0,10.424952507019043,0,0,0.611519992351532
1.015972081,0,0,10.424952507019043,0,0,0.7644000053405762
1.016593999,0,0,16.554109573364258,0,0,0.7644000053405762
1.017215491,0,0,16.554109573364258,0,0,0.6879600286483765
1.017838112,0,0,-12.865840911865234,0,0,0.8408399820327759
1.018459419,0,0,8.586804389953613,0,0,0.8408399820327759
1.019081115,0,0,8.586804389953613,0,0,1.070159912109375
1.019703032,0,0,0.005985504016280174,0,0,0.611519992351532
1.020324487,0,0,-11.640009880065918,0,0,0.9172800183296204
1.020946368,0,0,-11.640009880065918,0,0,1.070159912109375
1.021568545,0,0,1.2318167686462402,0,0,1.2994799613952637
1.022190334,0,0,1.2318167686462402,0,0,1.070159912109375
1.022812344,0,0,-4.285022258758545,0,0,0.7644000053405762
1.023434114,0,0,7.360374450683594,0,0,0.7644000053405762
1.024055976,0,0,7.360374450683594,0,0,0.8408399820327759
1.024677931,0,0,9.812037467956543,0,0,0.611519992351532
1.025299682,0,0,-4.898536682128906,0,0,0.9937199950218201
1.025923545,0,0,-4.898536682128906,0,0,0.7644000053405762
1.026547722,0,0,1.2312182188034058,0,0,0.8408399820327759
1.027172158,0,0,1.2312182188034058,0,0,0.8408399820327759
1.02779528,0,0,-15.930419921875,0,0,1.070159912109375
1.028416642,0,0,-11.027094841003418,0,0,0.9937199950218201
1.029038764,0,0,-11.027094841003418,0,0,0.8408399820327759
1.029660941,0,0,0.6189011335372925,0,0,0.8408399820327759
1.030282711,0,0,0.6189011335372925,0,0,0.611519992351532
1.030904406,0,0,0.6189011335372925,0,0,0.9172800183296204
1.031526121,0,0,-12.865840911865234,0,0,0.5350799560546875
1.032148001,0,0,-12.865840911865234,0,0,0.8408399820327759
1.032769641,0,0,-4.285022258758545,0,0,1.070159912109375
1.033391541,0,0,-1.2210428714752197,0,0,0.8408399820327759
1.03401394,0,0,-1.2210428714752197,0,0,1.070159912109375
1.034635543,0,0,18.392257690429688,0,0,1.070159912109375
1.035257665,0,0,7.360374450683594,0,0,0.7644000053405762
1.035879324,0,0,7.360374450683594,0,0,1.070159912109375
1.036501334,0,0,11.650784492492676,0,0,0.9172800183296204
1.037122974,0,0,11.650784492492676,0,0,0.8408399820327759
1.037745466,0,0,11.650784492492676,0,0,1.1466000080108643
1.03836718,0,0,4.2957963943481445,0,0,0.8408399820327759
1.038988746,0,0,4.2957963943481445,0,0,1.070159912109375
1.039610646,0,0,6.7480573654174805,0,0,0.8408399820327759
1.040232397,0,0,3.6834793090820313,0,0,1.070159912109375
1.040854537,0,0,3.6834793090820313,0,0,0.7644000053405762
1.041495084,0,0,4.2963948249816895,0,0,1.070159912109375
1.04211841,0,0,4.2963948249816895,0,0,0.9172800183296204
1.042740476,0,0,-7.349600791931152,0,0,0.9172800183296204
1.043362134,0,0,-9.801262855529785,0,0,1.1466000080108643
1.043986793,0,0,-9.801262855529785,0,0,0.9172800183296204
1.044614359,0,0,9.812037467956543,0,0,0.6879600286483765
1.045234666,0,0,-12.866439819335938,0,0,1.1466000080108643
1.04585738,0,0,-12.866439819335938,0,0,1.070159912109375
1.046478946,0,0,3.069965124130249,0,0,1.070159912109375
1.047100827,0,0,3.069965124130249,0,0,0.9172800183296204
1.047725004,0,0,18.392257690429688,0,0,1.070159912109375
1.048347922,0,0,-7.350199222564697,0,0,0.9937199950218201
1.048969951,0,0,-7.350199222564697,0,0,1.1466000080108643
1.049592146,0,0,0.618302583694458,0,0,-9.402119636535645
1.050214175,0,0,-7.349600791931152,0,0,0.9172800183296204
1.050838723,0,0,-7.349600791931152,0,0,0.9937199950218201
1.051459696,0,0,-4.897938251495361,0,0,1.070159912109375
1.052081485,0,0,-4.897938251495361,0,0,0.5350799560546875
1.052703477,0,0,-18.382081985473633,0,0,0.6879600286483765
1.053325432,0,0,-18.382081985473633,0,0,0.6879600286483765
1.053947831,0,0,-18.382081985473633,0,0,1.223039984703064
1.054569434,0,0,9.81263542175293,0,0,0.9937199950218201
1.055191333,0,0,9.81263542175293,0,0,0.9172800183296204
1.055813325,0,0,-3.6727054119110107,0,0,0.8408399820327759
1.056435391,0,0,-5.5114521980285645,0,0,1.070159912109375
1.057056995,0,0,-5.5114521980285645,0,0,1.2994799613952637
1.057679986,0,0,9.199121475219727,0,0,1.223039984703064
1.058301534,0,0,0.618302583694458,0,0,-8.790599822998047
1.058923193,0,0,0.618302583694458,0,0,0.5350799560546875
1.059545111,0,0,11.650784492492676,0,0,0.7644000053405762
1.060166658,0,0,11.650784492492676,0,0,0.8408399820327759
1.060788706,0,0,15.941193580627441,0,0,0.7644000053405762
1.0614105679999999,0,0,6.7480573654174805,0,0,0.8408399820327759
1.06203293,0,0,6.7480573654174805,0,0,0.7644000053405762
1.062653904,0,0,9.19972038269043,0,0,0.4586400091648102
1.063275599,0,0,5.521627902984619,0,0,1.070159912109375
1.063897517,0,0,5.521627902984619,0,0,0.6879600286483765
1.064519435,0,0,1.844732403755188,0,0,0.7644000053405762
1.065146075,0,0,1.844732403755188,0,0,0.7644000053405762
1.065776289,0,0,-13.47875690460205,0,0,0.8408399820327759
1.066664204,0,0,6.7474589347839355,0,0,1.070159912109375
1.067315918,0,0,-17.15625,0,0,0.6879600286483765
1.067968687,0,0,-17.15625,0,0,0.8408399820327759
1.068591068,0,0,-17.15625,0,0,1.223039984703064
1.069213171,0,0,7.360374450683594,0,0,0.8408399820327759
1.069840292,0,0,7.360374450683594,0,0,0.9172800183296204
1.070462525,0,0,17.779939651489258,0,0,0.9172800183296204
1.071084739,0,0,17.779939651489258,0,0,0.6879600286483765
1.071706565,0,0,9.81263542175293,0,0,0.7644000053405762
1.072328686,0,0,12.264298439025879,0,0,0.9937199950218201
1.072968715,0,0,12.264298439025879,0,0,1.2994799613952637
1.073592411,0,0,-2.446275472640991,0,0,0.611519992351532
1.074214495,0,0,11.03786849975586,0,0,1.223039984703064
1.074836135,0,0,11.03786849975586,0,0,0.7644000053405762
1.075458349,0,0,17.779939651489258,0,0,0.9172800183296204
1.076080341,0,0,17.779939651489258,0,0,0.8408399820327759
1.076702148,0,0,1.2312182188034058,0,0,0.9937199950218201
1.077324251,0,0,14.714763641357422,0,0,1.070159912109375
1.077947021,0,0,14.714763641357422,0,0,1.2994799613952637
1.078568291,0,0,-12.252925872802734,0,0,0.7644000053405762
1.079190042,0,0,-6.124367713928223,0,0,1.223039984703064
1.0798116819999999,0,0,-6.124367713928223,0,0,1.070159912109375
1.080434082,0,0,-18.382081985473633,0,0,0.6879600286483765
1.081055777,0,0,-18.382081985473633,0,0,1.1466000080108643
1.081694158,0,0,18.39285659790039,0,0,2.6754000186920166
1.082316446,0,0,7.973888874053955,0,0,0.8408399820327759
1.082938123,0,0,7.973888874053955,0,0,0.6879600286483765
1.083559967,0,0,-14.091073989868164,0,0,0.6879600286483765
1.084181644,0,0,-19.607913970947266,0,0,0.9172800183296204
1.084803692,0,0,-19.607913970947266,0,0,0.8408399820327759
1.085425332,0,0,-6.123769283294678,0,0,0.8408399820327759
1.086047861,0,0,-6.123769283294678,0,0,0.6879600286483765
1.0866694080000001,0,0,-6.736086368560791,0,0,1.223039984703064
1.087291289,0,0,-6.123769283294678,0,0,0.6879600286483765
1.08791317,0,0,-6.123769283294678,0,0,1.1466000080108643
1.088535125,0,0,18.39285659790039,0,0,0.7644000053405762
1.089156802,0,0,18.39285659790039,0,0,1.070159912109375
1.0897795160000001,0,0,12.876615524291992,0,0,0.8408399820327759
1.090400675,0,0,-2.4468741416931152,0,0,1.1466000080108643
1.091022593,0,0,-2.4468741416931152,0,0,0.8408399820327759
1.091644233,0,0,-13.47875690460205,0,0,0.6879600286483765
1.092266299,0,0,-19.607913970947266,0,0,0.9937199950218201
1.092888124,0,0,-19.607913970947266,0,0,0.611519992351532
1.093510376,0,0,5.522226333618164,0,0,0.7644000053405762
1.094131942,0,0,5.522226333618164,0,0,0.6879600286483765
1.094753656,0,0,17.78053855895996,0,0,0.8408399820327759
1.09537574,0,0,-8.575431823730469,0,0,0.5350799560546875
1.095997862,0,0,-8.575431823730469,0,0,1.070159912109375
1.096619706,0,0,-17.15625,0,0,0.8408399820327759
1.097241698,0,0,-17.769166946411133,0,0,0.9172800183296204
1.097864227,0,0,-17.769166946411133,0,0,0.9937199950218201
1.098485663,0,0,-1.2210428714752197,0,0,0.7644000053405762
1.099107396,0,0,-1.2210428714752197,0,0,0.9172800183296204
1.099728906,0,0,8.58620548248291,0,0,1.223039984703064
1.100350861,0,0,13.489530563354492,0,0,0.8408399820327759
1.100972687,0,0,13.489530563354492,0,0,0.9172800183296204
1.101595901,0,0,-1.2210428714752197,0,0,0.7644000053405762
1.102218134,0,0,7.97329044342041,0,0,1.070159912109375
1.102839996,0,0,7.97329044342041,0,0,1.1466000080108643
1.103461988,0,0,4.908711910247803,0,0,0.7644000053405762
1.104083721,0,0,4.908711910247803,0,0,0.6879600286483765
1.104705509,0,0,7.97329044342041,0,0,0.611519992351532
1.105327686,0,0,1.2318167686462402,0,0,1.2994799613952637
1.105950289,0,0,1.2318167686462402,0,0,0.5350799560546875
1.106571448,0,0,0.6189011335372925,0,0,0.9172800183296204
1.107193088,0,0,-13.47875690460205,0,0,0.9172800183296204
1.107815024,0,0,-13.47875690460205,0,0,0.9172800183296204
1.108436775,0,0,-11.027094841003418,0,0,0.9937199950218201
1.109058619,0,0,-11.027094841003418,0,0,0.9172800183296204
1.109681167,0,0,-3.6727054119110107,0,0,0.9937199950218201
1.11030264,0,0,3.069965124130249,0,0,0.9937199950218201
1.110924669,0,0,3.069965124130249,0,0,0.9937199950218201
1.111546328,0,0,15.941193580627441,0,0,1.070159912109375
1.112168338,0,0,7.360374450683594,0,0,0.7644000053405762
1.112790478,0,0,7.360374450683594,0,0,0.3822000026702881
1.113412137,0,0,10.424952507019043,0,0,1.1466000080108643
1.114034592,0,0,10.424952507019043,0,0,0.9937199950218201
1.114655436,0,0,7.360374450683594,0,0,0.8408399820327759
1.1152782430000001,0,0,-2.446275472640991,0,0,0.9937199950218201
1.115899568,0,0,-2.446275472640991,0,0,0.5350799560546875
1.116520875,0,0,-12.865840911865234,0,0,1.375920057296753
1.1171424779999999,0,0,-12.865840911865234,0,0,0.611519992351532
1.117765044,0,0,-18.994997024536133,0,0,0.9172800183296204
1.118385758,0,0,5.521627902984619,0,0,0.6879600286483765
1.11900725,0,0,5.521627902984619,0,0,1.223039984703064
1.11962852,0,0,-6.736684799194336,0,0,1.070159912109375
1.120250178,0,0,-1.2210428714752197,0,0,0.9937199950218201
1.120871467,0,0,-1.2210428714752197,0,0,0.9172800183296204
1.121499514,0,0,12.263699531555176,0,0,0.8408399820327759
1.122121932,0,0,12.263699531555176,0,0,0.611519992351532
1.122743128,0,0,-6.736684799194336,0,0,0.9172800183296204
1.123364638,0,0,1.8441338539123535,0,0,1.1466000080108643
1.123992334,0,0,1.8441338539123535,0,0,0.8408399820327759
1.124616567,0,0,-15.317503929138184,0,0,0.8408399820327759
1.125237299,0,0,15.328277587890625,0,0,0.5350799560546875
1.1258596060000001,0,0,15.328277587890625,0,0,0.7644000053405762
1.126480876,0,0,-11.640009880065918,0,0,0.6879600286483765
1.127102257,0,0,-11.640009880065918,0,0,1.070159912109375
1.127723952,0,0,-1.833359956741333,0,0,1.1466000080108643
1.1283452409999999,0,0,11.650784492492676,0,0,0.7644000053405762
1.128966973,0,0,11.650784492492676,0,0,0.8408399820327759
1.129613391,0,0,-1.2204443216323853,0,0,0.5350799560546875
1.130235087,0,0,10.425551414489746,0,0,0.9937199950218201
1.130856616,0,0,10.425551414489746,0,0,0.8408399820327759
1.131477978,0,0,9.812037467956543,0,0,0.5350799560546875
1.1320996,0,0,9.812037467956543,0,0,1.070159912109375
1.132721147,0,0,11.650784492492676,0,0,1.1466000080108643
1.133342454,0,0,11.03786849975586,0,0,0.611519992351532
1.1339641679999999,0,0,11.03786849975586,0,0,0.7644000053405762
1.13458566,0,0,1.2312182188034058,0,0,0.7644000053405762
1.135207115,0,0,-11.640009880065918,0,0,1.1466000080108643
1.135828607,0,0,-11.640009880065918,0,0,0.9172800183296204
1.136450025,0,0,7.97329044342041,0,0,0.8408399820327759
1.137071702,0,0,7.97329044342041,0,0,0.611519992351532
1.137694027,0,0,11.650784492492676,0,0,1.070159912109375
1.138314741,0,0,8.586804389953613,0,0,1.223039984703064
1.138936289,0,0,8.586804389953613,0,0,0.611519992351532
1.139557577,0,0,14.715960502624512,0,0,0.9937199950218201
1.140179106,0,0,-12.252925872802734,0,0,0.611519992351532
1.140800358,0,0,-12.252925872802734,0,0,0.9937199950218201
1.141422127,0,0,-17.769166946411133,0,0,0.8408399820327759
1.142044527,0,0,-17.769166946411133,0,0,0.611519992351532
1.142665463,0,0,-10.414777755737305,0,0,0.8408399820327759
1.1432870290000001,0,0,14.102446556091309,0,0,0.9172800183296204
1.143908521,0,0,14.102446556091309,0,0,0.9172800183296204
1.144530309,0,0,11.03786849975586,0,0,0.9937199950218201
1.145152116,0,0,9.199121475219727,0,0,0.9937199950218201
1.145774275,0,0,9.199121475219727,0,0,0.611519992351532
1.1463951,0,0,-11.640608787536621,0,0,0.9937199950218201
1.14701637,0,0,-11.640608787536621,0,0,0.5350799560546875
1.147637862,0,0,14.102446556091309,0,0,0.611519992351532
1.148259169,0,0,17.16762351989746,0,0,0.9172800183296204
1.148880846,0,0,17.16762351989746,0,0,0.9172800183296204
1.149503282,0,0,-12.865840911865234,0,0,0.611519992351532
1.150125163,0,0,-12.865840911865234,0,0,1.070159912109375
1.150746785,0,0,-4.285621166229248,0,0,0.7644000053405762
1.15137098,0,0,-3.0591912269592285,0,0,0.9937199950218201
1.151993028,0,0,-3.0591912269592285,0,0,0.7644000053405762
1.152614798,0,0,-0.6075286865234375,0,0,1.070159912109375
1.153236364,0,0,-10.414178848266602,0,0,1.070159912109375
1.153859059,0,0,-10.414178848266602,0,0,0.9172800183296204
1.154479792,0,0,-11.640009880065918,0,0,0.9172800183296204
1.15510158,0,0,-11.640009880065918,0,0,1.1466000080108643
1.155723257,0,0,-14.091672897338867,0,0,0.4586400091648102
1.156344379,0,0,6.7474589347839355,0,0,0.9172800183296204
1.156965834,0,0,6.7474589347839355,0,0,0.9937199950218201
1.157601048,0,0,4.908711910247803,0,0,0.6879600286483765
1.158222892,0,0,1.844732403755188,0,0,0.6879600286483765
1.1588446239999999,0,0,1.844732403755188,0,0,0.7644000053405762
1.159466209,0,0,-12.252326965332031,0,0,1.223039984703064
1.160087701,0,0,-12.252326965332031,0,0,0.9172800183296204
1.160709045,0,0,-17.76856803894043,0,0,0.9172800183296204
1.1613445,0,0,12.263699531555176,0,0,0.9937199950218201
1.161967343,0,0,12.263699531555176,0,0,0.7644000053405762
1.1625877980000001,0,0,10.425551414489746,0,0,0.9937199950218201
1.16320929,0,0,-5.5108537673950195,0,0,1.223039984703064
1.16383069,0,0,-5.5108537673950195,0,0,0.9172800183296204
1.164452126,0,0,4.908711910247803,0,0,0.9172800183296204
1.165073729,0,0,4.908711910247803,0,0,0.6879600286483765
1.165695703,0,0,-5.5108537673950195,0,0,1.070159912109375
1.1663168800000001,0,0,-12.253523826599121,0,0,0.8408399820327759
1.166938131,0,0,-12.253523826599121,0,0,0.8408399820327759
1.167559882,0,0,-16.543933868408203,0,0,0.8408399820327759
1.168181282,0,0,-13.479355812072754,0,0,1.070159912109375
1.168803126,0,0,-13.479355812072754,0,0,0.7644000053405762
1.169424784,0,0,11.650784492492676,0,0,0.8408399820327759
1.17004698,0,0,11.650784492492676,0,0,0.6879600286483765
1.170668046,0,0,-12.865840911865234,0,0,0.9937199950218201
1.1712895190000001,0,0,16.554109573364258,0,0,0.611519992351532
1.171911104,0,0,16.554109573364258,0,0,0.6879600286483765
1.172532596,0,0,10.424952507019043,0,0,0.611519992351532
1.173154032,0,0,-17.15625,0,0,0.9172800183296204
1.173776395,0,0,-17.15625,0,0,0.8408399820327759
1.174397164,0,0,-4.898536682128906,0,0,0.6879600286483765
1.17501886,0,0,-4.898536682128906,0,0,0.6879600286483765
1.175640537,0,0,6.7474589347839355,0,0,0.8408399820327759
1.176261585,0,0,17.167024612426758,0,0,0.9937199950218201
1.176883114,0,0,17.167024612426758,0,0,1.223039984703064
1.177504939,0,0,-5.5114521980285645,0,0,0.7644000053405762
1.178126153,0,0,0.005386953707784414,0,0,0.4586400091648102
1.178747534,0,0,0.005386953707784414,0,0,0.5350799560546875
1.179368989,0,0,3.6828808784484863,0,0,0.9172800183296204
1.1799907219999999,0,0,3.6828808784484863,0,0,0.7644000053405762
1.180611936,0,0,6.135141849517822,0,0,0.9937199950218201
1.18123365,0,0,-11.026495933532715,0,0,0.9172800183296204
1.181855864,0,0,-11.026495933532715,0,0,1.070159912109375
1.182476653,0,0,-13.47875690460205,0,0,0.9937199950218201
1.183098089,0,0,-13.47875690460205,0,0,0.9937199950218201
1.183719451,0,0,-13.47875690460205,0,0,0.611519992351532
1.184341036,0,0,7.360973358154297,0,0,1.1466000080108643
1.184962546,0,0,7.360973358154297,0,0,0.9937199950218201
1.185594612,0,0,19.00577163696289,0,0,0.8408399820327759
1.186216604,0,0,-17.15625,0,0,1.223039984703064
1.186838004,0,0,-17.15625,0,0,1.070159912109375
1.187459811,0,0,14.715362548828125,0,0,1.2994799613952637
1.1880809509999999,0,0,14.715362548828125,0,0,0.9937199950218201
1.188702406,0,0,15.328277587890625,0,0,0.9172800183296204
1.189324046,0,0,18.39285659790039,0,0,0.9172800183296204
1.189946223,0,0,18.39285659790039,0,0,1.1466000080108643
1.190567067,0,0,-5.5108537673950195,0,0,0.611519992351532
1.191188411,0,0,10.425551414489746,0,0,0.611519992351532
1.191810051,0,0,10.425551414489746,0,0,0.5350799560546875
1.19243158,0,0,-17.15565299987793,0,0,1.1466000080108643
1.193052794,0,0,-17.15565299987793,0,0,0.9172800183296204
1.193675156,0,0,15.941193580627441,0,0,0.9937199950218201
1.194295963,0,0,-12.865840911865234,0,0,0.7644000053405762
1.194917566,0,0,-12.865840911865234,0,0,0.9937199950218201
1.195539058,0,0,3.6834793090820313,0,0,0.8408399820327759
1.196160402,0,0,3.069965124130249,0,0,0.8408399820327759
1.196782005,0,0,3.069965124130249,0,0,0.8408399820327759
1.19740346,0,0,-7.9631147384643555,0,0,-8.561279296875
1.198025619,0,0,-7.9631147384643555,0,0,1.070159912109375
1.19864674,0,0,7.360374450683594,0,0,1.2994799613952637
1.199267973,0,0,-12.866439819335938,0,0,1.223039984703064
1.19988952,0,0,-12.866439819335938,0,0,0.6879600286483765
1.200510698,0,0,15.941193580627441,0,0,0.8408399820327759
1.201138393,0,0,12.876615524291992,0,0,0.9172800183296204
1.201760959,0,0,12.876615524291992,0,0,0.6879600286483765
1.202381618,0,0,14.715362548828125,0,0,0.8408399820327759
1.203003425,0,0,14.715362548828125,0,0,1.070159912109375
1.20362475,0,0,-17.15625,0,0,0.9937199950218201
1.204246297,0,0,10.424952507019043,0,0,1.070159912109375
1.204867512,0,0,10.424952507019043,0,0,0.611519992351532
1.205489763,0,0,-18.382081985473633,0,0,0.9172800183296204
1.20611194,0,0,14.715362548828125,0,0,0.9937199950218201
1.206733413,0,0,14.715362548828125,0,0,1.1466000080108643
1.207355017,0,0,-12.866439819335938,0,0,0.9172800183296204
1.207976471,0,0,-12.866439819335938,0,0,0.7644000053405762
1.2085979629999999,0,0,-11.027692794799805,0,0,0.8408399820327759
1.209219326,0,0,12.876615524291992,0,0,0.9172800183296204
1.209841429,0,0,12.876615524291992,0,0,0.9937199950218201
1.210462421,0,0,9.812037467956543,0,0,0.7644000053405762
1.211083728,0,0,9.812037467956543,0,0,0.9937199950218201
1.211705534,0,0,9.199121475219727,0,0,0.7644000053405762
1.21232723,0,0,11.650784492492676,0,0,1.070159912109375
1.212948574,0,0,11.650784492492676,0,0,0.5350799560546875
1.213570381,0,0,3.070563793182373,0,0,0.611519992351532
1.214191947,0,0,7.360973358154297,0,0,1.070159912109375
1.214813439,0,0,7.360973358154297,0,0,0.5350799560546875
1.21543506,0,0,-9.188347816467285,0,0,0.9172800183296204
1.216056349,0,0,-9.188347816467285,0,0,1.070159912109375
1.2166781740000001,0,0,5.522226333618164,0,0,1.070159912109375
1.217299536,0,0,-14.091672897338867,0,0,1.070159912109375
1.21792188,0,0,-14.091672897338867,0,0,0.611519992351532
1.218542465,0,0,-17.769765853881836,0,0,0.7644000053405762
1.2191637339999999,0,0,19.00577163696289,0,0,0.8408399820327759
1.2197853,0,0,19.00577163696289,0,0,0.9937199950218201
1.22040657,0,0,-7.9625163078308105,0,0,0.9937199950218201
1.221028321,0,0,-7.9625163078308105,0,0,0.9172800183296204
1.22165035,0,0,-6.124367713928223,0,0,0.9172800183296204
1.222271342,0,0,10.424952507019043,0,0,0.9937199950218201
1.222892908,0,0,10.424952507019043,0,0,0.9172800183296204
1.223514252,0,0,2.457049608230591,0,0,0.6879600286483765
1.224135781,0,0,15.328277587890625,0,0,0.8408399820327759
1.224757162,0,0,15.328277587890625,0,0,0.7644000053405762
1.225383728,0,0,-19.607913970947266,0,0,0.4586400091648102
1.226004202,0,0,-19.607913970947266,0,0,0.9937199950218201
1.226625397,0,0,11.03786849975586,0,0,0.6879600286483765
1.227250834,0,0,-9.801262855529785,0,0,0.9172800183296204
1.2278736590000001,0,0,-9.801262855529785,0,0,0.9937199950218201
1.228495855,0,0,-3.6721067428588867,0,0,0.8408399820327759
1.229118217,0,0,11.03786849975586,0,0,0.9172800183296204
1.229739283,0,0,11.03786849975586,0,0,1.1466000080108643
1.230360849,0,0,17.779939651489258,0,0,0.8408399820327759
1.23098236,0,0,17.779939651489258,0,0,0.9172800183296204
1.231603981,0,0,9.812037467956543,0,0,0.7644000053405762
1.232225455,0,0,-9.188945770263672,0,0,0.7644000053405762
1.2328466869999999,0,0,-9.188945770263672,0,0,0.7644000053405762
1.23346829,0,0,-2.4468741416931152,0,0,0.611519992351532
1.234092208,0,0,14.102446556091309,0,0,2.522519826889038
1.234713922,0,0,14.102446556091309,0,0,0.8408399820327759
1.2353354699999999,0,0,6.7480573654174805,0,0,0.6879600286483765
1.235956499,0,0,6.7480573654174805,0,0,1.070159912109375
1.236578065,0,0,14.715960502624512,0,0,0.8408399820327759
1.237199446,0,0,-5.5108537673950195,0,0,1.070159912109375
1.237821345,0,0,-5.5108537673950195,0,0,0.4586400091648102
1.238442597,0,0,14.715960502624512,0,0,0.9172800183296204
1.2390642920000001,0,0,14.715960502624512,0,0,0.611519992351532
1.239685803,0,0,-17.15625,0,0,0.9937199950218201
1.240307184,0,0,1.2312182188034058,0,0,0.8408399820327759
1.24093675,0,0,1.2312182188034058,0,0,1.070159912109375
1.241559075,0,0,13.489530563354492,0,0,1.070159912109375
1.242180641,0,0,1.8441338539123535,0,0,0.9937199950218201
1.242802281,0,0,1.8441338539123535,0,0,0.5350799560546875
1.243423569,0,0,-16.5433349609375,0,0,0.6879600286483765
1.244045154,0,0,-16.5433349609375,0,0,0.8408399820327759
1.2446665160000001,0,0,0.618302583694458,0,0,0.8408399820327759
1.24528799,0,0,-8.575431823730469,0,0,0.7644000053405762
1.245909778,0,0,-8.575431823730469,0,0,0.8408399820327759
1.2465309740000001,0,0,-3.6721067428588867,0,0,1.375920057296753
1.247152632,0,0,-8.575431823730469,0,0,0.4586400091648102
1.24777405,0,0,-8.575431823730469,0,0,0.9937199950218201
1.248395561,0,0,-4.897938251495361,0,0,0.9172800183296204
1.24901709,0,0,-4.897938251495361,0,0,1.2994799613952637
1.249638841,0,0,-9.800664901733398,0,0,0.9172800183296204
1.250260277,0,0,19.00577163696289,0,0,0.9172800183296204
1.25088164,0,0,19.00577163696289,0,0,0.7644000053405762
1.251503317,0,0,4.2957963943481445,0,0,0.9172800183296204
1.252124698,0,0,-1.2210428714752197,0,0,0.9937199950218201
1.252746079,0,0,-1.2210428714752197,0,0,1.070159912109375
1.253367645,0,0,-13.479355812072754,0,0,0.6879600286483765
1.2539898219999999,0,0,-13.479355812072754,0,0,0.6879600286483765
1.254611258,0,0,-7.9625163078308105,0,0,0.9937199950218201
1.255232713,0,0,1.844732403755188,0,0,0.7644000053405762
1.255854261,0,0,1.844732403755188,0,0,0.9172800183296204
1.256475938,0,0,16.55470848083496,0,0,0.7644000053405762
1.257097078,0,0,-15.31690502166748,0,0,0.9172800183296204
1.257719625,0,0,-15.31690502166748,0,0,1.2994799613952637
1.258340321,0,0,-5.5108537673950195,0,0,1.070159912109375
1.258961924,0,0,-5.5108537673950195,0,0,0.8408399820327759
1.259583324,0,0,-17.769166946411133,0,0,0.8408399820327759
1.260204741,0,0,7.973888874053955,0,0,1.070159912109375
1.260826437,0,0,7.973888874053955,0,0,0.6879600286483765
1.261447725,0,0,13.489530563354492,0,0,0.611519992351532
1.262070051,0,0,1.2312182188034058,0,0,1.070159912109375
1.262690858,0,0,1.2312182188034058,0,0,1.070159912109375
1.263312127,0,0,19.00577163696289,0,0,0.9937199950218201
1.26393373,0,0,19.00577163696289,0,0,1.2994799613952637
1.264554926,0,0,-18.382680892944336,0,0,1.070159912109375
1.265176474,0,0,14.715362548828125,0,0,0.7644000053405762
1.265798706,0,0,14.715362548828125,0,0,0.9937199950218201
1.26641955,0,0,7.360374450683594,0,0,0.9172800183296204
1.26704119,0,0,7.360374450683594,0,0,0.7644000053405762
1.267662534,0,0,-13.47875690460205,0,0,0.611519992351532
1.2682838410000001,0,0,-4.897938251495361,0,0,0.9937199950218201
1.268905518,0,0,-4.897938251495361,0,0,0.611519992351532
1.269539843,0,0,15.328277587890625,0,0,0.9937199950218201
1.27016215,0,0,-19.607913970947266,0,0,0.4586400091648102
1.270783549,0,0,-19.607913970947266,0,0,1.223039984703064
1.271405041,0,0,15.941792488098145,0,0,0.9172800183296204
1.272026348,0,0,15.941792488098145,0,0,0.7644000053405762
1.272647599,0,0,12.263699531555176,0,0,1.070159912109375
1.273269239,0,0,6.7474589347839355,0,0,0.8408399820327759
1.2738908420000001,0,0,6.7474589347839355,0,0,0.6879600286483765
1.27451226,0,0,18.39285659790039,0,0,0.9937199950218201
1.2751334380000001,0,0,0.005386953707784414,0,0,1.1466000080108643
1.2757549479999999,0,0,0.005386953707784414,0,0,0.611519992351532
1.27637657,0,0,18.39285659790039,0,0,1.1466000080108643
1.276997876,0,0,18.39285659790039,0,0,0.6879600286483765
1.277749867,0,0,12.263699531555176,0,0,1.1466000080108643
1.278375211,0,0,-5.5108537673950195,0,0,0.9937199950218201
1.278997091,0,0,-5.5108537673950195,0,0,1.223039984703064
1.279618565,0,0,1.2318167686462402,0,0,0.6879600286483765
1.280239909,0,0,14.103045463562012,0,0,1.1466000080108643
1.280861438,0,0,14.103045463562012,0,0,0.8408399820327759
1.281493207,0,0,11.651382446289063,0,0,1.1466000080108643
1.282115718,0,0,-15.31690502166748,0,0,1.070159912109375
1.28273708,0,0,-15.31690502166748,0,0,1.070159912109375
1.283358331,0,0,12.876615524291992,0,0,0.8408399820327759
1.283980046,0,0,12.876615524291992,0,0,0.7644000053405762
1.284601352,0,0,7.360374450683594,0,0,0.9937199950218201
1.285228918,0,0,-11.027094841003418,0,0,1.070159912109375
1.285851503,0,0,-11.027094841003418,0,0,0.8408399820327759
1.286472661,0,0,-4.898536682128906,0,0,0.611519992351532
1.287094357,0,0,4.908711910247803,0,0,0.9172800183296204
1.287715738,0,0,4.908711910247803,0,0,0.9172800183296204
1.288337137,0,0,17.167024612426758,0,0,0.611519992351532
1.288958444,0,0,17.167024612426758,0,0,0.7644000053405762
1.2895895290000001,0,0,-0.6075286865234375,0,0,0.9172800183296204
1.290211669,0,0,-4.285022258758545,0,0,0.7644000053405762
1.290832994,0,0,-4.285022258758545,0,0,2.2167599201202393
1.291454579,0,0,18.39285659790039,0,0,1.070159912109375
1.292075922,0,0,0.005985504016280174,0,0,0.8408399820327759
1.2926973959999999,0,0,0.005985504016280174,0,0,1.070159912109375
1.293319036,0,0,-8.575431823730469,0,0,0.8408399820327759
1.293941454,0,0,-8.575431823730469,0,0,0.6879600286483765
1.29456252,0,0,-3.6727054119110107,0,0,0.9937199950218201
1.295184142,0,0,9.812037467956543,0,0,0.9937199950218201
