Time,AccelX1,AccelY1,AccelZ1,AccelX2,AccelY2,AccelZ2
0.000003463,0,0,-4.285022258758545,0,0,0.9172800183296204
0.000649381,0,0,-4.285022258758545,0,0,0.9937199950218201
0.001267226,0,0,-14.091672897338867,0,0,1.070159912109375
0.001886626,0,0,-14.091672897338867,0,0,1.070159912109375
0.002503397,0,0,14.715362548828125,0,0,0.8408399820327759
0.003123056,0,0,19.00577163696289,0,0,1.070159912109375
0.003740105,0,0,19.00577163696289,0,0,1.070159912109375
0.004357005,0,0,-11.027692794799805,0,0,0.7644000053405762
0.004974368,0,0,-3.6727054119110107,0,0,1.070159912109375
0.005594083,0,0,-3.6727054119110107,0,0,1.070159912109375
0.006211113,0,0,0.618302583694458,0,0,0.9172800183296204
0.006828717,0,0,0.618302583694458,0,0,0.9172800183296204
0.007445654,0,0,3.6828808784484863,0,0,0.8408399820327759
0.008063017,0,0,9.812037467956543,0,0,0.8408399820327759
0.008680029,0,0,9.812037467956543,0,0,0.9172800183296204
0.009297651,0,0,-12.865840911865234,0,0,1.1466000080108643
0.009927866,0,0,-12.252326965332031,0,0,0.9172800183296204
0.010547063,0,0,-12.252326965332031,0,0,0.8408399820327759
0.011164963,0,0,-17.15565299987793,0,0,1.070159912109375
0.011782085,0,0,-17.15565299987793,0,0,0.7644000053405762
0.012399578,0,0,-3.0591912269592285,0,0,-8.714159965515137
0.013017071,0,0,-11.027094841003418,0,0,0.8408399820327759
0.013657267,0,0,-11.027094841003418,0,0,0.9172800183296204
0.014275038,0,0,-16.5433349609375,0,0,0.9937199950218201
0.01489229,0,0,-12.252925872802734,0,0,0.7644000053405762
0.015509764,0,0,-12.252925872802734,0,0,0.8408399820327759
0.016126868,0,0,17.167024612426758,0,0,1.223039984703064
0.016744509,0,0,17.167024612426758,0,0,0.7644000053405762
0.017379372,0,0,7.97329044342041,0,0,0.9937199950218201
0.018007754,0,0,12.263699531555176,0,0,0.6879600286483765
0.018626543,0,0,12.263699531555176,0,0,0.9937199950218201
0.019243832,0,0,-18.382081985473633,0,0,0.8408399820327759
0.019860769,0,0,-18.382081985473633,0,0,0.8408399820327759
0.02049278,0,0,15.328277587890625,0,0,0.9172800183296204
0.021111995,0,0,-17.15625,0,0,0.6879600286483765
0.021729821,0,0,-17.15625,0,0,0.9172800183296204
0.022346981,0,0,-5.5108537673950195,0,0,0.4586400091648102
0.022964714,0,0,-8.575431823730469,0,0,0.611519992351532
0.023582504,0,0,-8.575431823730469,0,0,0.8408399820327759
0.024199719,0,0,17.167024612426758,0,0,1.070159912109375
0.024817082,0,0,17.167024612426758,0,0,0.8408399820327759
0.02543413,0,0,5.522226333618164,0,0,0.8408399820327759
0.02605329,0,0,-12.865840911865234,0,0,1.070159912109375
0.026670579,0,0,-12.865840911865234,0,0,0.7644000053405762
0.027287553,0,0,8.58620548248291,0,0,0.9172800183296204
0.027904935,0,0,9.199121475219727,0,0,0.9172800183296204
0.02852202,0,0,9.199121475219727,0,0,0.7644000053405762
0.029139606,0,0,-6.737283706665039,0,0,0.8408399820327759
0.029758487,0,0,-6.737283706665039,0,0,0.7644000053405762
0.030376184,0,0,-0.608127236366272,0,0,0.6879600286483765
0.030993677,0,0,9.812037467956543,0,0,0.6879600286483765
0.031610521,0,0,9.812037467956543,0,0,1.2994799613952637
0.032227681,0,0,-4.897938251495361,0,0,1.1466000080108643
0.032844859,0,0,-4.897938251495361,0,0,0.9937199950218201
0.033463314,0,0,-15.930419921875,0,0,0.7644000053405762
0.034081289,0,0,18.39285659790039,0,0,0.9172800183296204
0.034698374,0,0,18.39285659790039,0,0,0.7644000053405762
0.03531583,0,0,-15.317503929138184,0,0,1.070159912109375
0.035932897,0,0,-7.349600791931152,0,0,0.6879600286483765
0.036550149,0,0,-7.349600791931152,0,0,0.8408399820327759
0.037167568,0,0,11.03786849975586,0,0,0.9937199950218201
0.037786246,0,0,11.03786849975586,0,0,0.9172800183296204
0.038403646,0,0,-4.898536682128906,0,0,0.9172800183296204
0.039020546,0,0,7.97329044342041,0,0,1.070159912109375
0.039670298,0,0,7.97329044342041,0,0,0.611519992351532
0.04030255,0,0,-1.2210428714752197,0,0,0.9172800183296204
0.040921931,0,0,12.876615524291992,0,0,1.070159912109375
0.041564479,0,0,12.876615524291992,0,0,0.8408399820327759
0.042186361,0,0,15.941193580627441,0,0,1.070159912109375
0.042808095,0,0,15.941193580627441,0,0,0.6879600286483765
0.043430032,0,0,-7.9625163078308105,0,0,0.7644000053405762
0.044051358,0,0,3.070563793182373,0,0,0.611519992351532
0.044673128,0,0,3.070563793182373,0,0,0.8408399820327759
0.045294529,0,0,-3.0591912269592285,0,0,0.611519992351532
0.045917577,0,0,-9.801262855529785,0,0,0.9937199950218201
0.046537736,0,0,-9.801262855529785,0,0,0.9172800183296204
0.047158951,0,0,-12.865840911865234,0,0,0.6879600286483765
0.047780574,0,0,-12.865840911865234,0,0,0.9937199950218201
0.048402011,0,0,2.457049608230591,0,0,0.611519992351532
0.049023448,0,0,-2.4468741416931152,0,0,1.223039984703064
0.049645885,0,0,-2.4468741416931152,0,0,1.223039984703064
0.050266619,0,0,9.812037467956543,0,0,1.070159912109375
0.050888315,0,0,-11.027692794799805,0,0,1.1466000080108643
0.051509586,0,0,-11.027692794799805,0,0,0.7644000053405762
0.052131042,0,0,5.521627902984619,0,0,1.070159912109375
0.052752238,0,0,5.521627902984619,0,0,0.7644000053405762
0.053373768,0,0,9.199121475219727,0,0,0.7644000053405762
0.053996316,0,0,-2.446275472640991,0,0,0.9172800183296204
0.054617105,0,0,-2.446275472640991,0,0,0.8408399820327759
0.055239024,0,0,-13.47875690460205,0,0,0.6879600286483765
0.055860387,0,0,-13.47875690460205,0,0,0.6879600286483765
0.05648201,0,0,5.522226333618164,0,0,0.9937199950218201
0.057103688,0,0,6.135141849517822,0,0,0.6879600286483765
0.057725903,0,0,6.135141849517822,0,0,1.223039984703064
0.058346932,0,0,-4.285022258758545,0,0,1.1466000080108643
0.05896824,0,0,6.7474589347839355,0,0,0.9172800183296204
0.059590029,0,0,6.7474589347839355,0,0,1.1466000080108643
0.06021167,0,0,6.7474589347839355,0,0,0.8408399820327759
0.060832885,0,0,6.7474589347839355,0,0,0.611519992351532
0.061455174,0,0,-9.188347816467285,0,0,1.1466000080108643
0.062076759,0,0,-17.769166946411133,0,0,0.9937199950218201
0.062698419,0,0,-17.769166946411133,0,0,0.9172800183296204
0.063319671,0,0,5.521627902984619,0,0,0.7644000053405762
0.063941015,0,0,-17.769166946411133,0,0,0.9172800183296204
0.064562712,0,0,-17.769166946411133,0,0,0.8408399820327759
0.065183964,0,0,14.103045463562012,0,0,1.1466000080108643
0.065806142,0,0,14.103045463562012,0,0,0.7644000053405762
0.066427153,0,0,12.264298439025879,0,0,0.611519992351532
0.067048276,0,0,2.4576480388641357,0,0,0.5350799560546875
0.067669768,0,0,2.4576480388641357,0,0,0.9172800183296204
0.068290946,0,0,-1.833359956741333,0,0,0.5350799560546875
0.068912495,0,0,-1.833359956741333,0,0,0.9172800183296204
0.069535173,0,0,-1.833359956741333,0,0,0.9937199950218201
0.070156647,0,0,-14.704587936401367,0,0,0.8408399820327759
0.070778232,0,0,-14.704587936401367,0,0,1.070159912109375
0.071399484,0,0,13.489530563354492,0,0,0.7644000053405762
0.072021032,0,0,1.2312182188034058,0,0,1.070159912109375
0.072642544,0,0,1.2312182188034058,0,0,0.6879600286483765
0.073264018,0,0,18.39285659790039,0,0,1.070159912109375
0.073886344,0,0,0.618302583694458,0,0,1.1466000080108643
0.074506911,0,0,0.618302583694458,0,0,0.7644000053405762
0.075128533,0,0,15.328277587890625,0,0,0.9172800183296204
0.075749748,0,0,15.328277587890625,0,0,1.1466000080108643
0.076371537,0,0,-5.5108537673950195,0,0,0.611519992351532
0.076993345,0,0,-1.833359956741333,0,0,1.1466000080108643
0.077615356,0,0,-1.833359956741333,0,0,0.6879600286483765
0.078236219,0,0,-12.252925872802734,0,0,0.611519992351532
0.078857453,0,0,-12.252925872802734,0,0,0.7644000053405762
0.079478946,0,0,-1.833359956741333,0,0,1.1466000080108643
0.080112568,0,0,10.425551414489746,0,0,0.9937199950218201
0.080734727,0,0,10.425551414489746,0,0,0.7644000053405762
0.081356424,0,0,-8.575431823730469,0,0,1.223039984703064
0.081978509,0,0,1.2312182188034058,0,0,0.611519992351532
0.082599465,0,0,1.2312182188034058,0,0,0.7644000053405762
0.083220958,0,0,-4.285621166229248,0,0,0.5350799560546875
0.083842265,0,0,-4.285621166229248,0,0,0.9937199950218201
0.084463832,0,0,3.6828808784484863,0,0,0.5350799560546875
0.085085029,0,0,3.069965124130249,0,0,1.2994799613952637
0.085707262,0,0,3.069965124130249,0,0,0.9172800183296204
0.086328107,0,0,15.941193580627441,0,0,0.8408399820327759
0.086949729,0,0,7.973888874053955,0,0,0.9172800183296204
0.087571296,0,0,7.973888874053955,0,0,0.4586400091648102
0.088192492,0,0,-8.574832916259766,0,0,0.7644000053405762
0.088814152,0,0,-8.574832916259766,0,0,0.6879600286483765
0.089435682,0,0,11.651382446289063,0,0,0.611519992351532
0.090070471,0,0,-7.349600791931152,0,0,0.8408399820327759
0.090691908,0,0,-7.349600791931152,0,0,0.9937199950218201
0.091313289,0,0,12.264298439025879,0,0,0.9937199950218201
0.091935004,0,0,-4.897938251495361,0,0,0.9172800183296204
0.092556275,0,0,-4.897938251495361,0,0,0.9937199950218201
0.093178083,0,0,-6.124367713928223,0,0,0.8408399820327759
0.093800798,0,0,-6.124367713928223,0,0,0.8408399820327759
0.094421439,0,0,9.199121475219727,0,0,0.611519992351532
0.095043061,0,0,12.876615524291992,0,0,1.1466000080108643
0.095664368,0,0,12.876615524291992,0,0,0.8408399820327759
0.096286009,0,0,-3.6727054119110107,0,0,0.8408399820327759
0.096907836,0,0,17.167024612426758,0,0,0.9172800183296204
0.097530291,0,0,17.167024612426758,0,0,0.7644000053405762
0.098167525,0,0,-6.123769283294678,0,0,0.9937199950218201
0.09878824,0,0,-6.123769283294678,0,0,1.070159912109375
0.099410047,0,0,11.038467407226563,0,0,0.8408399820327759
0.10003191,0,0,-3.0591912269592285,0,0,0.9172800183296204
0.100653218,0,0,-3.0591912269592285,0,0,0.5350799560546875
0.101274988,0,0,-11.027094841003418,0,0,0.9937199950218201
0.101898518,0,0,4.2963948249816895,0,0,0.7644000053405762
0.102518678,0,0,4.2963948249816895,0,0,0.7644000053405762
0.103140337,0,0,-7.349600791931152,0,0,0.8408399820327759
0.103761793,0,0,-7.349600791931152,0,0,0.7644000053405762
0.104383471,0,0,14.102446556091309,0,0,0.8408399820327759
0.105004501,0,0,15.328277587890625,0,0,0.9172800183296204
0.105637845,0,0,15.328277587890625,0,0,0.6879600286483765
0.106257634,0,0,-3.6727054119110107,0,0,0.6879600286483765
0.106878942,0,0,9.199121475219727,0,0,0.8408399820327759
0.10750062,0,0,9.199121475219727,0,0,1.1466000080108643
0.108121779,0,0,18.39285659790039,0,0,0.8408399820327759
0.108743309,0,0,18.39285659790039,0,0,0.611519992351532
0.109364654,0,0,3.070563793182373,0,0,0.611519992351532
0.109995442,0,0,2.4576480388641357,0,0,-8.943479537963867
0.110618694,0,0,2.4576480388641357,0,0,0.6879600286483765
0.111240354,0,0,2.4576480388641357,0,0,0.8408399820327759
0.111861995,0,0,2.4576480388641357,0,0,0.9172800183296204
0.112483154,0,0,17.167024612426758,0,0,1.375920057296753
0.113104851,0,0,9.19972038269043,0,0,0.9937199950218201
0.113727325,0,0,9.19972038269043,0,0,0.9172800183296204
0.114348021,0,0,-8.575431823730469,0,0,0.9172800183296204
0.114969792,0,0,-18.994997024536133,0,0,0.9172800183296204
0.115594914,0,0,-18.994997024536133,0,0,1.223039984703064
0.116222444,0,0,12.263699531555176,0,0,0.9937199950218201
0.116846381,0,0,12.263699531555176,0,0,0.7644000053405762
0.117480429,0,0,15.328277587890625,0,0,0.9172800183296204
0.118127681,0,0,-4.898536682128906,0,0,0.611519992351532
0.118749489,0,0,-4.898536682128906,0,0,-8.714159965515137
0.119373722,0,0,-9.801861763000488,0,0,0.611519992351532
0.120210453,0,0,-14.091672897338867,0,0,0.8408399820327759
0.120840168,0,0,-14.091672897338867,0,0,0.9172800183296204
0.121464698,0,0,3.070563793182373,0,0,0.9937199950218201
0.122286448,0,0,1.844732403755188,0,0,0.6879600286483765
0.122906163,0,0,-18.382081985473633,0,0,1.1466000080108643
0.123524192,0,0,-18.382081985473633,0,0,0.8408399820327759
0.124141796,0,0,-17.769166946411133,0,0,0.8408399820327759
0.124759215,0,0,-17.769166946411133,0,0,0.6879600286483765
0.125376782,0,0,-6.123769283294678,0,0,0.8408399820327759
0.126853394,0,0,18.39285659790039,0,0,0.5350799560546875
0.127476332,0,0,6.7474589347839355,0,0,0.7644000053405762
0.128098306,0,0,13.489530563354492,0,0,0.9172800183296204
0.128720651,0,0,13.489530563354492,0,0,0.9172800183296204
0.129343199,0,0,10.424952507019043,0,0,0.9937199950218201
0.129966636,0,0,-12.865840911865234,0,0,0.8408399820327759
0.130587573,0,0,-12.865840911865234,0,0,0.8408399820327759
0.131209307,0,0,-2.446275472640991,0,0,0.9172800183296204
0.131853836,0,0,-2.446275472640991,0,0,1.1466000080108643
0.132510347,0,0,3.6834793090820313,0,0,1.070159912109375
0.133135618,0,0,-8.575431823730469,0,0,0.6879600286483765
0.13375924,0,0,-8.575431823730469,0,0,1.1466000080108643
0.134383418,0,0,15.328277587890625,0,0,0.9937199950218201
0.135009929,0,0,-15.317503929138184,0,0,0.9937199950218201
0.135637922,0,0,-15.317503929138184,0,0,1.1466000080108643
0.136263729,0,0,-11.027094841003418,0,0,0.6879600286483765
0.136890555,0,0,-16.5433349609375,0,0,0.7644000053405762
0.137519789,0,0,-16.5433349609375,0,0,0.611519992351532
0.138208836,0,0,7.360374450683594,0,0,0.8408399820327759
0.138846218,0,0,7.360374450683594,0,0,0.8408399820327759
0.139474451,0,0,3.069965124130249,0,0,0.8408399820327759
0.140103425,0,0,-3.6727054119110107,0,0,0.6879600286483765
0.140729844,0,0,-3.6727054119110107,0,0,1.223039984703064
0.141357411,0,0,17.779939651489258,0,0,0.9172800183296204
0.141990478,0,0,14.103045463562012,0,0,0.7644000053405762
0.14261797,0,0,14.103045463562012,0,0,0.7644000053405762
0.143247019,0,0,0.6189011335372925,0,0,0.7644000053405762
0.143886826,0,0,-6.736684799194336,0,0,0.5350799560546875
0.144531096,0,0,-6.736684799194336,0,0,1.070159912109375
0.145174181,0,0,-1.2204443216323853,0,0,0.611519992351532
0.145807729,0,0,-1.2204443216323853,0,0,0.9172800183296204
0.14643387,0,0,14.715960502624512,0,0,0.9937199950218201
0.147062122,0,0,17.78053855895996,0,0,1.070159912109375
0.147686856,0,0,17.78053855895996,0,0,0.8408399820327759
0.148309719,0,0,12.876615524291992,0,0,0.8408399820327759
0.148932286,0,0,11.03786849975586,0,0,0.9172800183296204
0.149563575,0,0,11.03786849975586,0,0,1.1466000080108643
0.150186512,0,0,7.360374450683594,0,0,1.223039984703064
0.150809319,0,0,7.360374450683594,0,0,1.1466000080108643
0.15143172,0,0,-4.898536682128906,0,0,0.8408399820327759
0.152200525,0,0,15.328277587890625,0,0,0.8408399820327759
0.152829018,0,0,15.328277587890625,0,0,0.8408399820327759
0.153469474,0,0,-15.317503929138184,0,0,0.6879600286483765
0.154093485,0,0,-3.0591912269592285,0,0,0.7644000053405762
0.154716107,0,0,-3.0591912269592285,0,0,0.9172800183296204
0.155338322,0,0,11.651382446289063,0,0,0.8408399820327759
0.155961371,0,0,-3.6721067428588867,0,0,0.7644000053405762
0.156583863,0,0,-3.6721067428588867,0,0,0.9172800183296204
0.157206726,0,0,-7.349600791931152,0,0,0.9172800183296204
0.157828367,0,0,-7.349600791931152,0,0,0.7644000053405762
0.158445786,0,0,4.908711910247803,0,0,0.9172800183296204
0.159063835,0,0,4.2957963943481445,0,0,0.6879600286483765
0.159681716,0,0,4.2957963943481445,0,0,0.5350799560546875
0.160309561,0,0,3.069965124130249,0,0,0.9937199950218201
0.160931294,0,0,5.521627902984619,0,0,0.9172800183296204
0.161609916,0,0,5.521627902984619,0,0,0.9172800183296204
0.162240464,0,0,-14.092270851135254,0,0,0.6879600286483765
0.162858401,0,0,1.2312182188034058,0,0,0.9937199950218201
0.163678725,0,0,1.2312182188034058,0,0,0.9172800183296204
0.164303348,0,0,11.650784492492676,0,0,0.6879600286483765
0.164920729,0,0,-4.285022258758545,0,0,0.611519992351532
0.165569277,0,0,-4.285022258758545,0,0,0.611519992351532
0.166190085,0,0,-7.9625163078308105,0,0,0.9172800183296204
0.168600316,0,0,17.779939651489258,0,0,1.223039984703064
0.169274253,0,0,-4.897938251495361,0,0,0.8408399820327759
0.170063929,0,0,-5.5108537673950195,0,0,0.8408399820327759
0.170709421,0,0,-5.5108537673950195,0,0,1.070159912109375
0.171380599,0,0,16.554109573364258,0,0,0.7644000053405762
0.172039943,0,0,3.6828808784484863,0,0,0.8408399820327759
0.172702861,0,0,3.6828808784484863,0,0,0.9172800183296204
0.173357798,0,0,12.263699531555176,0,0,1.070159912109375
0.174006309,0,0,-16.5433349609375,0,0,0.8408399820327759
0.17464469,0,0,-16.5433349609375,0,0,0.9172800183296204
0.175261924,0,0,17.167024612426758,0,0,0.7644000053405762
0.175880139,0,0,6.134543418884277,0,0,0.4586400091648102
0.176496761,0,0,6.134543418884277,0,0,0.9172800183296204
0.177114236,0,0,18.39285659790039,0,0,0.8408399820327759
0.177735321,0,0,18.39285659790039,0,0,0.9172800183296204
0.178353092,0,0,-4.285022258758545,0,0,0.9937199950218201
0.178969918,0,0,7.973888874053955,0,0,1.1466000080108643
0.179587151,0,0,7.973888874053955,0,0,1.1466000080108643
0.180204292,0,0,0.005985504016280174,0,0,0.9937199950218201
0.180821211,0,0,0.005985504016280174,0,0,0.9937199950218201
0.181462278,0,0,17.167024612426758,0,0,0.9172800183296204
0.182082548,0,0,17.779939651489258,0,0,0.9937199950218201
0.182700059,0,0,17.779939651489258,0,0,0.6879600286483765
0.183317441,0,0,-7.9625163078308105,0,0,0.6879600286483765
0.18393449,0,0,6.7474589347839355,0,0,0.7644000053405762
0.184551797,0,0,6.7474589347839355,0,0,0.611519992351532
0.185187531,0,0,9.812037467956543,0,0,0.6879600286483765
0.185816134,0,0,9.812037467956543,0,0,0.7644000053405762
0.186437683,0,0,8.58620548248291,0,0,0.9172800183296204
0.187059268,0,0,-16.5433349609375,0,0,0.611519992351532
0.187680964,0,0,-16.5433349609375,0,0,0.7644000053405762
0.188302198,0,0,-12.865840911865234,0,0,1.1466000080108643
0.188923876,0,0,-16.5433349609375,0,0,0.6879600286483765
0.189553758,0,0,-16.5433349609375,0,0,0.9937199950218201
0.190175213,0,0,-3.6721067428588867,0,0,0.7644000053405762
0.190796595,0,0,-3.6721067428588867,0,0,1.2994799613952637
0.191417625,0,0,-15.317503929138184,0,0,0.611519992351532
0.192039358,0,0,11.650784492492676,0,0,0.6879600286483765
0.192660944,0,0,11.650784492492676,0,0,0.7644000053405762
0.193282159,0,0,3.069965124130249,0,0,1.1466000080108643
0.193904874,0,0,2.457049608230591,0,0,1.1466000080108643
0.194525274,0,0,2.457049608230591,0,0,0.9172800183296204
0.1951466,0,0,-6.737283706665039,0,0,0.8408399820327759
0.195767833,0,0,-6.737283706665039,0,0,0.9172800183296204
0.196389011,0,0,-7.9631147384643555,0,0,0.8408399820327759
0.197010541,0,0,9.199121475219727,0,0,0.5350799560546875
0.197632608,0,0,9.199121475219727,0,0,1.070159912109375
0.198253286,0,0,3.070563793182373,0,0,0.9937199950218201
0.19887439,0,0,1.2318167686462402,0,0,0.6879600286483765
0.199498438,0,0,1.2318167686462402,0,0,0.7644000053405762
0.200121079,0,0,-9.801262855529785,0,0,0.611519992351532
0.200742535,0,0,-9.801262855529785,0,0,0.611519992351532
0.201364194,0,0,7.360374450683594,0,0,0.9937199950218201
0.201986039,0,0,18.39285659790039,0,0,0.9172800183296204
0.202608217,0,0,18.39285659790039,0,0,0.8408399820327759
0.203230376,0,0,19.00577163696289,0,0,0.8408399820327759
0.203851924,0,0,6.134543418884277,0,0,0.9937199950218201
0.204473788,0,0,6.134543418884277,0,0,0.9172800183296204
0.205095466,0,0,-17.15625,0,0,0.6879600286483765
0.205716347,0,0,-17.15625,0,0,0.8408399820327759
0.206332803,0,0,-19.607913970947266,0,0,0.9937199950218201
0.206949907,0,0,-17.769166946411133,0,0,0.6879600286483765
0.207567455,0,0,-17.769166946411133,0,0,0.7644000053405762
0.208184393,0,0,-5.5108537673950195,0,0,1.1466000080108643
0.208801885,0,0,-5.5108537673950195,0,0,0.9172800183296204
0.209419267,0,0,11.038467407226563,0,0,0.8408399820327759
0.210043352,0,0,-5.5108537673950195,0,0,1.1466000080108643
0.210665253,0,0,-5.5108537673950195,0,0,0.9937199950218201
0.211286912,0,0,-9.188347816467285,0,0,0.9937199950218201
0.21190896,0,0,-10.414178848266602,0,0,0.8408399820327759
0.212530657,0,0,-10.414178848266602,0,0,1.223039984703064
0.213152446,0,0,-17.15625,0,0,0.5350799560546875
0.213773531,0,0,-17.15625,0,0,0.8408399820327759
0.214394913,0,0,-1.833359956741333,0,0,0.6879600286483765
0.215016406,0,0,-17.15625,0,0,1.1466000080108643
0.21563788,0,0,-17.15625,0,0,1.1466000080108643
0.216259336,0,0,7.360374450683594,0,0,1.070159912109375
0.216880977,0,0,16.554109573364258,0,0,0.7644000053405762
0.217503617,0,0,16.554109573364258,0,0,1.070159912109375
0.21812524,0,0,11.650784492492676,0,0,0.611519992351532
0.218746399,0,0,11.650784492492676,0,0,0.9172800183296204
0.219372559,0,0,11.03786849975586,0,0,0.7644000053405762
0.219993829,0,0,18.39285659790039,0,0,0.611519992351532
0.220615211,0,0,18.39285659790039,0,0,0.5350799560546875
0.221236667,0,0,-3.0591912269592285,0,0,0.9937199950218201
0.221858771,0,0,-11.027094841003418,0,0,0.8408399820327759
0.222479763,0,0,-11.027094841003418,0,0,1.070159912109375
0.223101275,0,0,0.6189011335372925,0,0,0.8408399820327759
0.223723675,0,0,0.6189011335372925,0,0,1.070159912109375
0.224345686,0,0,12.877213478088379,0,0,0.8408399820327759
0.224967216,0,0,4.2963948249816895,0,0,0.8408399820327759
0.225589283,0,0,4.2963948249816895,0,0,0.9172800183296204
0.226210961,0,0,-11.027094841003418,0,0,1.1466000080108643
0.226832564,0,0,-11.027094841003418,0,0,1.223039984703064
0.227454502,0,0,15.328277587890625,0,0,1.070159912109375
0.228076143,0,0,-0.608127236366272,0,0,0.7644000053405762
0.228698246,0,0,-0.608127236366272,0,0,0.611519992351532
0.229319924,0,0,3.069965124130249,0,0,0.9937199950218201
0.229939325,0,0,17.779939651489258,0,0,0.7644000053405762
0.230556651,0,0,17.779939651489258,0,0,1.070159912109375
0.231173718,0,0,-11.027094841003418,0,0,0.9937199950218201
0.231791173,0,0,-11.027094841003418,0,0,0.8408399820327759
0.232408148,0,0,-3.0591912269592285,0,0,0.8408399820327759
0.233025622,0,0,6.135141849517822,0,0,0.611519992351532
0.233648356,0,0,6.135141849517822,0,0,0.8408399820327759
0.234269459,0,0,11.650784492492676,0,0,0.8408399820327759
0.234891008,0,0,-7.349600791931152,0,0,1.1466000080108643
0.235512278,0,0,-7.349600791931152,0,0,1.070159912109375
0.236133864,0,0,-0.6075286865234375,0,0,-8.943479537963867
0.236755542,0,0,-0.6075286865234375,0,0,0.9937199950218201
0.237376683,0,0,0.618302583694458,0,0,0.7644000053405762
0.237999194,0,0,0.005386953707784414,0,0,0.9937199950218201
0.238619927,0,0,0.005386953707784414,0,0,0.8408399820327759
0.239241328,0,0,15.328277587890625,0,0,0.7644000053405762
0.239862617,0,0,15.328277587890625,0,0,1.2994799613952637
0.240483924,0,0,15.328277587890625,0,0,0.7644000053405762
0.24110551,0,0,14.715362548828125,0,0,0.8408399820327759
0.241727706,0,0,14.715362548828125,0,0,1.223039984703064
0.242348477,0,0,-18.382081985473633,0,0,0.9937199950218201
0.242970154,0,0,-6.123769283294678,0,0,0.9172800183296204
0.243591314,0,0,-6.123769283294678,0,0,-8.790599822998047
0.244212881,0,0,-17.769166946411133,0,0,0.9172800183296204
0.244834096,0,0,-13.47875690460205,0,0,1.070159912109375
0.245456366,0,0,-13.47875690460205,0,0,0.8408399820327759
0.2460781,0,0,-2.446275472640991,0,0,1.223039984703064
0.246699537,0,0,-2.446275472640991,0,0,1.1466000080108643
0.247342826,0,0,5.522226333618164,0,0,0.8408399820327759
0.247965022,0,0,12.876615524291992,0,0,0.9172800183296204
0.248586478,0,0,12.876615524291992,0,0,0.9172800183296204
0.249207619,0,0,-9.188945770263672,0,0,0.7644000053405762
0.249829778,0,0,-15.317503929138184,0,0,0.9172800183296204
0.250450604,0,0,-15.317503929138184,0,0,0.9937199950218201
0.251071931,0,0,4.908711910247803,0,0,0.611519992351532
0.251693275,0,0,4.908711910247803,0,0,1.070159912109375
0.252314527,0,0,-6.124367713928223,0,0,0.7644000053405762
0.25293602,0,0,8.58620548248291,0,0,0.6879600286483765
0.25355805,0,0,8.58620548248291,0,0,0.611519992351532
0.254178728,0,0,-7.349600791931152,0,0,1.070159912109375
0.254800072,0,0,-7.349600791931152,0,0,0.6879600286483765
0.255421306,0,0,18.393455505371094,0,0,0.5350799560546875
0.256042762,0,0,16.55470848083496,0,0,0.5350799560546875
0.256664217,0,0,16.55470848083496,0,0,0.6879600286483765
0.257285303,0,0,6.135141849517822,0,0,1.223039984703064
0.257907481,0,0,17.167024612426758,0,0,0.9172800183296204
0.258528048,0,0,17.167024612426758,0,0,0.5350799560546875
0.259149522,0,0,-17.15625,0,0,0.9172800183296204
0.259770959,0,0,-17.15625,0,0,0.9172800183296204
0.260392248,0,0,12.876615524291992,0,0,0.7644000053405762
0.261013722,0,0,-11.640009880065918,0,0,0.9937199950218201
0.261635493,0,0,-11.640009880065918,0,0,0.8408399820327759
0.2622563,0,0,3.069965124130249,0,0,0.7644000053405762
0.262877627,0,0,4.908711910247803,0,0,0.9172800183296204
0.263499027,0,0,4.908711910247803,0,0,0.9172800183296204
0.264120705,0,0,4.909310817718506,0,0,0.611519992351532
0.264742068,0,0,4.909310817718506,0,0,0.611519992351532
0.265363616,0,0,-15.929821014404297,0,0,0.9937199950218201
0.26598472,0,0,1.2318167686462402,0,0,0.6879600286483765
0.266604602,0,0,1.2318167686462402,0,0,0.6879600286483765
0.267224946,0,0,-14.091073989868164,0,0,0.6879600286483765
0.267856402,0,0,9.81263542175293,0,0,0.8408399820327759
0.268515079,0,0,9.81263542175293,0,0,1.070159912109375
0.269140461,0,0,-16.5433349609375,0,0,0.7644000053405762
0.269762954,0,0,-16.5433349609375,0,0,0.9172800183296204
0.270384391,0,0,15.328277587890625,0,0,0.7644000053405762
0.271005569,0,0,8.58620548248291,0,0,1.1466000080108643
0.271627284,0,0,8.58620548248291,0,0,1.1466000080108643
0.272248592,0,0,11.03786849975586,0,0,0.6879600286483765
0.272870195,0,0,7.360374450683594,0,0,0.9937199950218201
0.273510799,0,0,7.360374450683594,0,0,1.070159912109375
0.274132255,0,0,18.39285659790039,0,0,0.8408399820327759
0.274753822,0,0,18.39285659790039,0,0,0.9937199950218201
0.275375055,0,0,-14.704587936401367,0,0,0.8408399820327759
0.275996567,0,0,-15.317503929138184,0,0,0.8408399820327759
0.276617763,0,0,-15.317503929138184,0,0,0.8408399820327759
0.277239126,0,0,3.6834793090820313,0,0,0.7644000053405762
0.277861749,0,0,5.522226333618164,0,0,0.4586400091648102
0.278482278,0,0,5.522226333618164,0,0,0.8408399820327759
0.279103697,0,0,-11.640009880065918,0,0,0.9172800183296204
0.279725431,0,0,-11.640009880065918,0,0,0.9937199950218201
0.28034672,0,0,-15.930419921875,0,0,1.070159912109375
0.280968175,0,0,-3.0597896575927734,0,0,0.9172800183296204
0.281590131,0,0,-3.0597896575927734,0,0,0.7644000053405762
0.282211198,0,0,-5.5114521980285645,0,0,0.7644000053405762
0.282832691,0,0,-2.446275472640991,0,0,0.9172800183296204
0.283453943,0,0,-2.446275472640991,0,0,0.5350799560546875
0.284075213,0,0,-11.640009880065918,0,0,0.7644000053405762
0.284696262,0,0,-11.640009880065918,0,0,0.8408399820327759
0.285317699,0,0,14.715362548828125,0,0,0.9172800183296204
0.285939562,0,0,-18.382081985473633,0,0,0.5350799560546875
0.286560332,0,0,-18.382081985473633,0,0,0.8408399820327759
0.287189436,0,0,9.81263542175293,0,0,0.5350799560546875
0.287811096,0,0,9.81263542175293,0,0,0.9937199950218201
0.288432551,0,0,-1.833359956741333,0,0,0.7644000053405762
0.289053822,0,0,-6.123769283294678,0,0,0.6879600286483765
0.289675907,0,0,-6.123769283294678,0,0,0.4586400091648102
0.290296993,0,0,-10.414178848266602,0,0,0.9172800183296204
0.290918134,0,0,-18.382081985473633,0,0,1.223039984703064
0.291539552,0,0,-18.382081985473633,0,0,0.7644000053405762
0.292160656,0,0,9.812037467956543,0,0,0.611519992351532
0.292782075,0,0,9.812037467956543,0,0,0.9172800183296204
0.293403568,0,0,-14.70518684387207,0,0,1.070159912109375
0.294025172,0,0,-16.5433349609375,0,0,0.9172800183296204
0.294645979,0,0,-16.5433349609375,0,0,0.9172800183296204
0.295267064,0,0,4.908711910247803,0,0,0.611519992351532
0.295888687,0,0,17.779939651489258,0,0,0.7644000053405762
0.29651018,0,0,17.779939651489258,0,0,0.7644000053405762
0.29713145,0,0,16.554109573364258,0,0,0.9172800183296204
0.297753536,0,0,16.554109573364258,0,0,0.3822000026702881
0.298374158,0,0,-15.317503929138184,0,0,0.8408399820327759
0.298995558,0,0,-10.414178848266602,0,0,0.9172800183296204
0.299616995,0,0,-10.414178848266602,0,0,0.9937199950218201
0.300238118,0,0,-11.027094841003418,0,0,0.7644000053405762
0.300859407,0,0,0.005985504016280174,0,0,0.9172800183296204
0.301481251,0,0,0.005985504016280174,0,0,0.8408399820327759
0.302103115,0,0,11.650784492492676,0,0,0.611519992351532
0.302724274,0,0,11.650784492492676,0,0,1.070159912109375
0.303345526,0,0,17.779939651489258,0,0,0.7644000053405762
0.303966945,0,0,-8.576030731201172,0,0,0.9937199950218201
0.304588197,0,0,-8.576030731201172,0,0,1.2994799613952637
0.30520956,0,0,11.03786849975586,0,0,0.9172800183296204
0.305831571,0,0,15.941193580627441,0,0,0.8408399820327759
0.306452508,0,0,15.941193580627441,0,0,0.5350799560546875
0.307073872,0,0,8.58620548248291,0,0,0.9172800183296204
0.307695012,0,0,8.58620548248291,0,0,0.7644000053405762
0.308316635,0,0,11.03786849975586,0,0,0.8408399820327759
0.30893785,0,0,-13.47875690460205,0,0,0.9172800183296204
0.309560269,0,0,-13.47875690460205,0,0,0.6879600286483765
0.310181169,0,0,-4.897938251495361,0,0,0.8408399820327759
0.310802365,0,0,-4.897938251495361,0,0,0.611519992351532
0.311423802,0,0,11.038467407226563,0,0,0.6879600286483765
0.312044777,0,0,11.038467407226563,0,0,0.8408399820327759
0.312666306,0,0,11.038467407226563,0,0,0.8408399820327759
0.313287651,0,0,19.00577163696289,0,0,0.9172800183296204
0.313909514,0,0,17.779939651489258,0,0,0.9937199950218201
0.314530433,0,0,17.779939651489258,0,0,0.9172800183296204
0.315151629,0,0,-17.15625,0,0,1.223039984703064
0.315772881,0,0,-17.15625,0,0,1.070159912109375
0.316394337,0,0,-15.317503929138184,0,0,0.6879600286483765
0.317015497,0,0,-3.6721067428588867,0,0,0.9172800183296204
0.317637878,0,0,-3.6721067428588867,0,0,0.6879600286483765
0.318258667,0,0,-0.608127236366272,0,0,0.7644000053405762
0.318880234,0,0,9.812037467956543,0,0,0.7644000053405762
0.319501375,0,0,9.812037467956543,0,0,0.7644000053405762
0.320122738,0,0,6.135141849517822,0,0,0.6879600286483765
0.320744157,0,0,6.135141849517822,0,0,0.5350799560546875
0.32136539,0,0,0.6189011335372925,0,0,0.9937199950218201
0.321987494,0,0,-14.704587936401367,0,0,0.6879600286483765
0.322608006,0,0,-14.704587936401367,0,0,0.9172800183296204
0.323257239,0,0,-8.575431823730469,0,0,0.7644000053405762
0.323880343,0,0,-16.5433349609375,0,0,0.6879600286483765
0.324501817,0,0,-16.5433349609375,0,0,0.9172800183296204
0.325123143,0,0,-7.349600791931152,0,0,0.611519992351532
0.325745043,0,0,-7.349600791931152,0,0,0.8408399820327759
0.326365869,0,0,-14.091672897338867,0,0,1.223039984703064
0.326987473,0,0,9.199121475219727,0,0,0.8408399820327759
0.327608855,0,0,9.199121475219727,0,0,0.8408399820327759
0.328230218,0,0,-17.769166946411133,0,0,1.223039984703064
0.328851563,0,0,9.812037467956543,0,0,0.8408399820327759
0.329473704,0,0,9.812037467956543,0,0,0.9172800183296204
0.330095622,0,0,9.199121475219727,0,0,0.9172800183296204
0.330716911,0,0,9.199121475219727,0,0,0.6879600286483765
0.331343978,0,0,-4.897938251495361,0,0,0.611519992351532
0.331965712,0,0,3.6834793090820313,0,0,0.8408399820327759
0.332587204,0,0,3.6834793090820313,0,0,0.9172800183296204
0.333208567,0,0,-12.252925872802734,0,0,0.6879600286483765
0.333830579,0,0,1.844732403755188,0,0,0.5350799560546875
0.334451405,0,0,1.844732403755188,0,0,0.7644000053405762
0.335072564,0,0,-14.704587936401367,0,0,0.611519992351532
0.335694131,0,0,-14.704587936401367,0,0,1.070159912109375
0.336315568,0,0,6.7480573654174805,0,0,0.152879998087883
0.336936746,0,0,18.39285659790039,0,0,0.7644000053405762
0.337558998,0,0,18.39285659790039,0,0,1.1466000080108643
0.338179695,0,0,0.618302583694458,0,0,0.9937199950218201
0.338800984,0,0,0.618302583694458,0,0,0.8408399820327759
0.339422088,0,0,-4.898536682128906,0,0,0.6879600286483765
0.340043525,0,0,-17.769765853881836,0,0,1.070159912109375
0.340664999,0,0,-17.769765853881836,0,0,0.9172800183296204
0.341286029,0,0,14.715362548828125,0,0,0.9937199950218201
0.341907688,0,0,-3.0591912269592285,0,0,0.6879600286483765
0.342528829,0,0,-3.0591912269592285,0,0,1.070159912109375
0.343150063,0,0,14.715960502624512,0,0,0.8408399820327759
0.34377163,0,0,14.715960502624512,0,0,0.9172800183296204
0.344392808,0,0,11.038467407226563,0,0,0.8408399820327759
0.345014245,0,0,6.7480573654174805,0,0,0.6879600286483765
0.345636108,0,0,6.7480573654174805,0,0,1.223039984703064
0.346256879,0,0,6.135141849517822,0,0,0.6879600286483765
0.346878205,0,0,-11.640009880065918,0,0,0.8408399820327759
0.347499327,0,0,-11.640009880065918,0,0,1.375920057296753
0.348120579,0,0,-9.188945770263672,0,0,0.7644000053405762
0.348741665,0,0,-9.188945770263672,0,0,0.6879600286483765
0.349363324,0,0,-3.6727054119110107,0,0,0.6879600286483765
0.349985632,0,0,15.941193580627441,0,0,0.9172800183296204
0.350606439,0,0,15.941193580627441,0,0,0.9172800183296204
0.351228006,0,0,6.134543418884277,0,0,0.8408399820327759
0.351849036,0,0,12.876615524291992,0,0,1.070159912109375
0.352470269,0,0,12.876615524291992,0,0,0.611519992351532
0.353091929,0,0,15.941193580627441,0,0,0.8408399820327759
0.35371381,0,0,15.941193580627441,0,0,0.8408399820327759
0.354334636,0,0,-19.607913970947266,0,0,0.9937199950218201
0.354955629,0,0,7.360973358154297,0,0,0.9172800183296204
0.355577085,0,0,7.360973358154297,0,0,0.8408399820327759
0.356198263,0,0,-16.542736053466797,0,0,0.9172800183296204
0.356819496,0,0,4.2963948249816895,0,0,0.9937199950218201
0.357453082,0,0,4.2963948249816895,0,0,0.9937199950218201
0.358075408,0,0,-4.285022258758545,0,0,0.8408399820327759
0.358696882,0,0,-4.285022258758545,0,0,0.6879600286483765
0.359318078,0,0,-7.9625163078308105,0,0,0.6879600286483765
0.359939479,0,0,2.457049608230591,0,0,0.8408399820327759
0.36056062,0,0,2.457049608230591,0,0,0.7644000053405762
0.361181779,0,0,0.618302583694458,0,0,0.6879600286483765
0.361804179,0,0,0.618302583694458,0,0,0.8408399820327759
0.362424672,0,0,-12.866439819335938,0,0,1.070159912109375
0.363046017,0,0,-15.930419921875,0,0,0.8408399820327759
0.363667361,0,0,-15.930419921875,0,0,0.2293200045824051
0.364288613,0,0,6.135141849517822,0,0,0.9937199950218201
0.364909921,0,0,9.19972038269043,0,0,2.3696401119232178
0.36553108,0,0,9.19972038269043,0,0,0.8408399820327759
0.366152703,0,0,-9.188347816467285,0,0,0.611519992351532
0.366774251,0,0,-9.188347816467285,0,0,0.611519992351532
0.367395373,0,0,9.81263542175293,0,0,0.9172800183296204
0.368016903,0,0,-12.252925872802734,0,0,0.9937199950218201
0.368638118,0,0,-12.252925872802734,0,0,1.1466000080108643
0.369259407,0,0,-12.252925872802734,0,0,1.070159912109375
0.369881252,0,0,14.102446556091309,0,0,0.9937199950218201
0.370501726,0,0,14.102446556091309,0,0,1.070159912109375
0.371123182,0,0,3.6828808784484863,0,0,1.070159912109375
0.371744119,0,0,3.6828808784484863,0,0,0.6879600286483765
0.372365223,0,0,-2.4468741416931152,0,0,0.7644000053405762
0.372986716,0,0,-3.0597896575927734,0,0,0.7644000053405762
0.373608783,0,0,-3.0597896575927734,0,0,0.9172800183296204
0.374229646,0,0,5.521627902984619,0,0,0.9172800183296204
0.374850879,0,0,-17.769166946411133,0,0,0.9937199950218201
0.375472094,0,0,-17.769166946411133,0,0,0.9172800183296204
0.376093217,0,0,-19.607913970947266,0,0,0.7644000053405762
0.376714746,0,0,-19.607913970947266,0,0,0.8408399820327759
0.377336221,0,0,-15.930419921875,0,0,0.9172800183296204
0.377958102,0,0,-1.833359956741333,0,0,1.223039984703064
0.378579243,0,0,-1.833359956741333,0,0,0.9937199950218201
0.379200458,0,0,-0.6075286865234375,0,0,0.9937199950218201
0.37982171,0,0,-4.285022258758545,0,0,0.9172800183296204
0.380443129,0,0,-4.285022258758545,0,0,0.8408399820327759
0.381064362,0,0,14.715362548828125,0,0,0.6879600286483765
0.381686077,0,0,14.715362548828125,0,0,0.9937199950218201
0.382306922,0,0,-15.930419921875,0,0,0.9937199950218201
0.382928082,0,0,-3.0591912269592285,0,0,0.8408399820327759
0.383549445,0,0,-3.0591912269592285,0,0,0.7644000053405762
0.384170697,0,0,17.167024612426758,0,0,1.070159912109375
0.384792115,0,0,17.167024612426758,0,0,0.9172800183296204
0.38541309,0,0,4.908711910247803,0,0,1.070159912109375
0.386035416,0,0,4.908711910247803,0,0,0.7644000053405762
0.386655742,0,0,4.908711910247803,0,0,0.9172800183296204
0.387276809,0,0,-3.0591912269592285,0,0,0.8408399820327759
0.387898357,0,0,2.4576480388641357,0,0,1.070159912109375
0.388519239,0,0,2.4576480388641357,0,0,0.7644000053405762
0.389140546,0,0,8.586804389953613,0,0,0.611519992351532
0.389762632,0,0,8.586804389953613,0,0,0.6879600286483765
0.390383161,0,0,4.909310817718506,0,0,0.7644000053405762
0.391004451,0,0,12.877213478088379,0,0,0.9172800183296204
0.391625517,0,0,12.877213478088379,0,0,0.9937199950218201
0.392246788,0,0,-18.382081985473633,0,0,0.7644000053405762
0.392867781,0,0,9.812037467956543,0,0,0.611519992351532
0.393501588,0,0,9.812037467956543,0,0,1.070159912109375
0.394123359,0,0,-16.5433349609375,0,0,1.070159912109375
0.394744555,0,0,-16.5433349609375,0,0,0.8408399820327759
0.395365863,0,0,-9.801262855529785,0,0,0.4586400091648102
0.39598693,0,0,10.424952507019043,0,0,1.223039984703064
0.396608348,0,0,10.424952507019043,0,0,0.9937199950218201
0.397229674,0,0,11.650784492492676,0,0,0.7644000053405762
0.397850815,0,0,14.715960502624512,0,0,1.070159912109375
0.398470401,0,0,14.715960502624512,0,0,0.8408399820327759
0.399208374,0,0,15.941792488098145,0,0,0.8408399820327759
0.399845033,0,0,11.038467407226563,0,0,1.070159912109375
0.400494766,0,0,11.038467407226563,0,0,0.611519992351532
0.401119425,0,0,1.844732403755188,0,0,0.7644000053405762
0.401746011,0,0,1.844732403755188,0,0,1.1466000080108643
0.402367541,0,0,-1.833359956741333,0,0,1.070159912109375
0.402986607,0,0,19.00577163696289,0,0,0.8408399820327759
0.403606619,0,0,19.00577163696289,0,0,1.070159912109375
0.404226167,0,0,6.7474589347839355,0,0,1.1466000080108643
0.404843308,0,0,-14.704587936401367,0,0,0.7644000053405762
0.405486189,0,0,-14.704587936401367,0,0,0.7644000053405762
0.406103886,0,0,3.069965124130249,0,0,0.611519992351532
0.406721342,0,0,3.069965124130249,0,0,0.8408399820327759
0.407338816,0,0,-12.865840911865234,0,0,0.8408399820327759
0.407955901,0,0,16.554109573364258,0,0,1.070159912109375
0.408573154,0,0,16.554109573364258,0,0,0.7644000053405762
0.40918998,0,0,-9.188347816467285,0,0,0.8408399820327759
0.409815954,0,0,-9.188347816467285,0,0,1.1466000080108643
0.410433947,0,0,-9.188347816467285,0,0,0.6879600286483765
0.411051162,0,0,15.328876495361328,0,0,0.9172800183296204
0.411668784,0,0,15.328876495361328,0,0,0.8408399820327759
0.412285814,0,0,13.490129470825195,0,0,0.9172800183296204
0.412903288,0,0,6.135141849517822,0,0,1.223039984703064
0.413524614,0,0,6.135141849517822,0,0,0.4586400091648102
0.414146422,0,0,-9.188347816467285,0,0,-8.714159965515137
0.41476797,0,0,-9.188347816467285,0,0,0.9172800183296204
0.415389482,0,0,-6.737283706665039,0,0,1.223039984703064
0.416011085,0,0,12.876615524291992,0,0,0.9172800183296204
0.416632819,0,0,12.876615524291992,0,0,0.9172800183296204
0.41725433,0,0,4.2957963943481445,0,0,0.8408399820327759
0.417876582,0,0,3.6828808784484863,0,0,0.9172800183296204
0.42024287,0,0,-13.47875690460205,0,0,0.9172800183296204
0.42086777,0,0,9.199121475219727,0,0,0.9937199950218201
0.421518855,0,0,9.199121475219727,0,0,0.7644000053405762
0.422137477,0,0,-19.607913970947266,0,0,0.8408399820327759
0.422765451,0,0,-19.607913970947266,0,0,0.7644000053405762
0.423383722,0,0,-7.9625163078308105,0,0,0.9937199950218201
0.42400277,0,0,-17.15625,0,0,1.223039984703064
0.42462117,0,0,-17.15625,0,0,0.6879600286483765
0.425240034,0,0,-19.607913970947266,0,0,1.1466000080108643
0.425859582,0,0,1.8441338539123535,0,0,0.8408399820327759
0.426477112,0,0,1.8441338539123535,0,0,0.9937199950218201
0.427095716,0,0,17.167024612426758,0,0,1.070159912109375
0.427714134,0,0,17.167024612426758,0,0,0.611519992351532
0.428340127,0,0,-17.769166946411133,0,0,0.5350799560546875
0.428958027,0,0,7.97329044342041,0,0,0.611519992351532
0.429577779,0,0,7.97329044342041,0,0,0.9172800183296204
0.43019542,0,0,-15.930419921875,0,0,0.8408399820327759
0.430813673,0,0,1.2318167686462402,0,0,0.8408399820327759
0.431447147,0,0,1.2318167686462402,0,0,0.7644000053405762
0.432065584,0,0,8.586804389953613,0,0,0.7644000053405762
0.432683966,0,0,8.586804389953613,0,0,1.2994799613952637
0.433302495,0,0,-0.6075286865234375,0,0,0.5350799560546875
0.433922636,0,0,11.651382446289063,0,0,1.223039984703064
0.434540148,0,0,11.651382446289063,0,0,0.8408399820327759
0.435158492,0,0,0.6189011335372925,0,0,1.070159912109375
0.435777226,0,0,0.6189011335372925,0,0,0.7644000053405762
0.436395626,0,0,-9.801262855529785,0,0,0.7644000053405762
0.43701386,0,0,6.7474589347839355,0,0,0.9937199950218201
0.437633482,0,0,6.7474589347839355,0,0,1.1466000080108643
0.438250919,0,0,-17.15625,0,0,0.7644000053405762
0.438869634,0,0,13.489530563354492,0,0,0.611519992351532
0.439505386,0,0,13.489530563354492,0,0,0.6879600286483765
0.440124305,0,0,-13.479355812072754,0,0,1.1466000080108643
0.440743075,0,0,-13.479355812072754,0,0,1.070159912109375
0.441361383,0,0,-1.8339585065841675,0,0,0.8408399820327759
0.441981154,0,0,-11.640009880065918,0,0,0.7644000053405762
0.442599128,0,0,-11.640009880065918,0,0,0.7644000053405762
0.44321738,0,0,-11.027094841003418,0,0,0.611519992351532
0.44383604,0,0,4.909310817718506,0,0,0.7644000053405762
0.444455495,0,0,4.909310817718506,0,0,0.9172800183296204
0.445074636,0,0,0.6189011335372925,0,0,0.5350799560546875
0.445694277,0,0,0.6189011335372925,0,0,0.611519992351532
0.446311937,0,0,-2.446275472640991,0,0,0.9937199950218201
0.4469308,0,0,-17.769166946411133,0,0,0.7644000053405762
0.447554922,0,0,-17.769166946411133,0,0,0.7644000053405762
0.448173582,0,0,12.876615524291992,0,0,0.7644000053405762
0.448791871,0,0,0.005386953707784414,0,0,0.9937199950218201
0.449410623,0,0,0.005386953707784414,0,0,0.7644000053405762
0.450030375,0,0,-6.737283706665039,0,0,0.9937199950218201
0.450647886,0,0,-6.737283706665039,0,0,0.8408399820327759
0.451266675,0,0,4.2957963943481445,0,0,0.9172800183296204
0.451884946,0,0,18.39285659790039,0,0,0.7644000053405762
0.452503828,0,0,18.39285659790039,0,0,1.070159912109375
0.453122154,0,0,-18.994997024536133,0,0,0.8408399820327759
0.453741554,0,0,-18.994997024536133,0,0,0.4586400091648102
0.454361028,0,0,-6.736684799194336,0,0,0.611519992351532
0.454979299,0,0,8.586804389953613,0,0,1.070159912109375
0.45559794,0,0,8.586804389953613,0,0,1.070159912109375
0.456216432,0,0,4.2963948249816895,0,0,0.7644000053405762
0.45683487,0,0,-18.382081985473633,0,0,0.9172800183296204
0.457454363,0,0,-18.382081985473633,0,0,1.223039984703064
0.458072022,0,0,12.876615524291992,0,0,0.9937199950218201
0.458689441,0,0,12.876615524291992,0,0,1.223039984703064
0.459306341,0,0,0.005386953707784414,0,0,1.070159912109375
0.459923926,0,0,3.069965124130249,0,0,1.1466000080108643
0.460541401,0,0,3.069965124130249,0,0,1.070159912109375
0.461171097,0,0,7.97329044342041,0,0,1.1466000080108643
0.46178696,0,0,7.97329044342041,0,0,1.223039984703064
0.462401101,0,0,14.102446556091309,0,0,0.9172800183296204
0.463015409,0,0,14.715362548828125,0,0,0.8408399820327759
0.463629605,0,0,14.715362548828125,0,0,1.070159912109375
0.464243617,0,0,-16.5433349609375,0,0,0.9172800183296204
0.464857795,0,0,-11.640009880065918,0,0,0.9172800183296204
0.46547238,0,0,-11.640009880065918,0,0,0.6879600286483765
0.466087132,0,0,1.2318167686462402,0,0,0.9937199950218201
0.46670131,0,0,1.2318167686462402,0,0,0.7644000053405762
0.467315322,0,0,14.103045463562012,0,0,0.4586400091648102
0.467929352,0,0,-15.317503929138184,0,0,1.070159912109375
0.468543271,0,0,-15.317503929138184,0,0,1.070159912109375
0.469160004,0,0,-11.640009880065918,0,0,0.7644000053405762
0.469775108,0,0,-11.640009880065918,0,0,0.9172800183296204
0.470389101,0,0,-18.382081985473633,0,0,0.9937199950218201
0.471003094,0,0,9.812037467956543,0,0,1.070159912109375
0.471616809,0,0,9.812037467956543,0,0,0.9172800183296204
0.472230894,0,0,12.263699531555176,0,0,0.8408399820327759
0.472844813,0,0,9.812037467956543,0,0,0.8408399820327759
0.473461343,0,0,9.812037467956543,0,0,0.7644000053405762
0.474082095,0,0,8.58620548248291,0,0,0.9937199950218201
0.474701106,0,0,8.58620548248291,0,0,0.5350799560546875
0.475320247,0,0,17.779939651489258,0,0,1.070159912109375
0.475939203,0,0,3.6834793090820313,0,0,0.611519992351532
0.476558381,0,0,3.6834793090820313,0,0,0.8408399820327759
0.477178466,0,0,4.909310817718506,0,0,0.6879600286483765
0.477798311,0,0,-19.607315063476563,0,0,0.8408399820327759
0.478417415,0,0,-19.607315063476563,0,0,0.6879600286483765
0.479036204,0,0,-4.897938251495361,0,0,1.070159912109375
0.479655363,0,0,-4.897938251495361,0,0,1.1466000080108643
0.480274097,0,0,-7.349600791931152,0,0,0.9937199950218201
0.480893331,0,0,11.03786849975586,0,0,1.070159912109375
0.481513749,0,0,11.03786849975586,0,0,0.8408399820327759
0.482132816,0,0,-4.898536682128906,0,0,1.1466000080108643
0.482752124,0,0,-4.898536682128906,0,0,0.9937199950218201
0.483370931,0,0,4.2957963943481445,0,0,0.7644000053405762
0.483990165,0,0,-6.737283706665039,0,0,0.9172800183296204
0.484609454,0,0,-6.737283706665039,0,0,0.8408399820327759
0.485260817,0,0,4.908711910247803,0,0,1.070159912109375
0.485879624,0,0,-18.382081985473633,0,0,0.8408399820327759
0.486497988,0,0,-18.382081985473633,0,0,0.5350799560546875
0.487130073,0,0,-3.6721067428588867,0,0,0.8408399820327759
0.487749862,0,0,-3.6721067428588867,0,0,0.9172800183296204
0.488368966,0,0,17.779939651489258,0,0,0.6879600286483765
0.488988144,0,0,-2.446275472640991,0,0,0.7644000053405762
0.489608377,0,0,-2.446275472640991,0,0,0.6879600286483765
0.490227222,0,0,-12.865840911865234,0,0,0.9172800183296204
0.490846418,0,0,-3.6727054119110107,0,0,0.9172800183296204
0.491465263,0,0,-3.6727054119110107,0,0,0.8408399820327759
0.492084719,0,0,-0.608127236366272,0,0,0.9172800183296204
0.492703675,0,0,-0.608127236366272,0,0,0.9172800183296204
0.493322797,0,0,-11.027692794799805,0,0,0.9937199950218201
0.493943197,0,0,-4.898536682128906,0,0,1.070159912109375
0.494561264,0,0,-4.898536682128906,0,0,0.6879600286483765
0.495180424,0,0,8.58620548248291,0,0,0.8408399820327759
0.495799231,0,0,1.2312182188034058,0,0,0.8408399820327759
0.496418483,0,0,1.2312182188034058,0,0,0.8408399820327759
0.497037439,0,0,-3.6721067428588867,0,0,0.8408399820327759
0.497657839,0,0,-3.6721067428588867,0,0,0.7644000053405762
0.498276517,0,0,-2.446275472640991,0,0,1.1466000080108643
0.498895362,0,0,-6.123769283294678,0,0,1.1466000080108643
0.499514392,0,0,-6.123769283294678,0,0,0.611519992351532
0.500133384,0,0,-1.833359956741333,0,0,0.7644000053405762
0.500752488,0,0,-1.833359956741333,0,0,1.070159912109375
0.501371666,0,0,-7.9625163078308105,0,0,0.9172800183296204
0.501991844,0,0,-12.865840911865234,0,0,1.1466000080108643
0.502610559,0,0,-12.865840911865234,0,0,0.611519992351532
0.503229663,0,0,5.521627902984619,0,0,0.4586400091648102
0.503848619,0,0,-6.124367713928223,0,0,0.9937199950218201
0.504467686,0,0,-6.124367713928223,0,0,1.070159912109375
0.505086864,0,0,-16.5433349609375,0,0,0.7644000053405762
0.505707005,0,0,-16.5433349609375,0,0,0.9172800183296204
0.506325553,0,0,-19.607913970947266,0,0,0.9937199950218201
0.506944879,0,0,11.650784492492676,0,0,0.8408399820327759
0.507564242,0,0,11.650784492492676,0,0,0.7644000053405762
0.508183365,0,0,17.167024612426758,0,0,-9.249239921569824
0.508802654,0,0,0.6189011335372925,0,0,0.8408399820327759
0.509421758,0,0,0.6189011335372925,0,0,0.6879600286483765
0.510041454,0,0,-5.5108537673950195,0,0,1.070159912109375
0.510660521,0,0,-5.5108537673950195,0,0,0.6879600286483765
0.511279755,0,0,15.941792488098145,0,0,0.5350799560546875
0.511898951,0,0,17.78053855895996,0,0,0.6879600286483765
0.512517981,0,0,17.78053855895996,0,0,0.6879600286483765
0.513137066,0,0,-13.47875690460205,0,0,0.7644000053405762
0.513757133,0,0,-13.47875690460205,0,0,0.7644000053405762
0.514375534,0,0,5.521627902984619,0,0,0.7644000053405762
0.514994582,0,0,-1.2210428714752197,0,0,-9.172800064086914
0.51561339,0,0,-1.2210428714752197,0,0,0.9937199950218201
0.516232605,0,0,3.069965124130249,0,0,0.611519992351532
0.516851412,0,0,4.2957963943481445,0,0,0.6879600286483765
0.517471405,0,0,4.2957963943481445,0,0,0.8408399820327759
0.518090824,0,0,4.2957963943481445,0,0,1.1466000080108643
0.518709891,0,0,4.2957963943481445,0,0,0.9937199950218201
0.519328939,0,0,-13.47875690460205,0,0,0.7644000053405762
0.519947876,0,0,-11.640009880065918,0,0,0.7644000053405762
0.520566961,0,0,-11.640009880065918,0,0,0.9937199950218201
0.521185806,0,0,14.715960502624512,0,0,1.1466000080108643
0.521805632,0,0,-16.542736053466797,0,0,0.9172800183296204
0.522424255,0,0,-16.542736053466797,0,0,0.611519992351532
0.523043136,0,0,4.2963948249816895,0,0,0.7644000053405762
0.523662351,0,0,4.2963948249816895,0,0,0.8408399820327759
0.524281252,0,0,-16.5433349609375,0,0,1.1466000080108643
0.524900337,0,0,-18.382081985473633,0,0,0.9937199950218201
0.525520922,0,0,-18.382081985473633,0,0,0.9172800183296204
0.526139989,0,0,16.554109573364258,0,0,0.9172800183296204
0.526765278,0,0,16.554109573364258,0,0,0.8408399820327759
0.527384456,0,0,-9.188347816467285,0,0,0.611519992351532
0.528003597,0,0,0.618302583694458,0,0,0.611519992351532
0.528622701,0,0,0.618302583694458,0,0,0.9172800183296204
0.529241564,0,0,-6.737283706665039,0,0,0.9937199950218201
0.529862168,0,0,16.554109573364258,0,0,0.7644000053405762
0.530480272,0,0,16.554109573364258,0,0,0.9172800183296204
0.531099506,0,0,-4.285022258758545,0,0,0.6879600286483765
0.531718517,0,0,-4.285022258758545,0,0,0.9937199950218201
0.532337639,0,0,-7.9625163078308105,0,0,1.070159912109375
0.532956854,0,0,3.6834793090820313,0,0,0.8408399820327759
0.533576773,0,0,3.6834793090820313,0,0,0.5350799560546875
0.534195358,0,0,14.103045463562012,0,0,1.070159912109375
0.534814407,0,0,10.425551414489746,0,0,1.070159912109375
0.535433344,0,0,10.425551414489746,0,0,0.6879600286483765
0.536052522,0,0,-14.704587936401367,0,0,0.611519992351532
0.536671441,0,0,-14.704587936401367,0,0,0.9937199950218201
0.537291045,0,0,-6.124367713928223,0,0,1.070159912109375
0.537910982,0,0,7.360374450683594,0,0,0.9172800183296204
0.538529715,0,0,7.360374450683594,0,0,0.8408399820327759
0.539149023,0,0,-16.543933868408203,0,0,0.9937199950218201
0.539767905,0,0,-16.543933868408203,0,0,0.8408399820327759
0.540387268,0,0,-1.8339585065841675,0,0,0.6879600286483765
0.541006279,0,0,-14.091672897338867,0,0,0.9172800183296204
0.541626587,0,0,-14.091672897338867,0,0,0.611519992351532
0.542245135,0,0,-18.994997024536133,0,0,0.9937199950218201
0.542864072,0,0,-4.285022258758545,0,0,0.9172800183296204
0.543483417,0,0,-4.285022258758545,0,0,1.223039984703064
0.544102539,0,0,-0.6075286865234375,0,0,0.7644000053405762
0.544722106,0,0,-0.6075286865234375,0,0,0.8408399820327759
0.545341118,0,0,-14.704587936401367,0,0,0.7644000053405762
0.545961592,0,0,11.03786849975586,0,0,1.070159912109375
0.546579659,0,0,11.03786849975586,0,0,0.9937199950218201
0.547198522,0,0,14.715362548828125,0,0,0.9937199950218201
0.5478177,0,0,1.8441338539123535,0,0,0.5350799560546875
0.548436693,0,0,1.8441338539123535,0,0,0.6879600286483765
0.54905563,0,0,-19.607913970947266,0,0,1.070159912109375
0.549676067,0,0,-19.607913970947266,0,0,0.8408399820327759
0.550294449,0,0,15.941193580627441,0,0,0.8408399820327759
0.550913627,0,0,15.328277587890625,0,0,0.9172800183296204
0.55153262,0,0,15.328277587890625,0,0,0.9937199950218201
0.552151983,0,0,-9.188347816467285,0,0,0.6879600286483765
0.552771124,0,0,-12.865840911865234,0,0,0.8408399820327759
0.553389987,0,0,-12.865840911865234,0,0,0.7644000053405762
0.554010183,0,0,-12.252925872802734,0,0,0.9937199950218201
0.554628361,0,0,-12.252925872802734,0,0,1.1466000080108643
0.555247558,0,0,-8.575431823730469,0,0,2.6754000186920166
0.555866903,0,0,4.2963948249816895,0,0,0.611519992351532
0.556485784,0,0,4.2963948249816895,0,0,0.8408399820327759
0.557104962,0,0,16.554109573364258,0,0,0.8408399820327759
0.557725085,0,0,16.554109573364258,0,0,0.9172800183296204
0.558343577,0,0,15.941193580627441,0,0,0.8408399820327759
0.558962589,0,0,3.6828808784484863,0,0,0.6879600286483765
0.559581933,0,0,3.6828808784484863,0,0,1.070159912109375
0.560201019,0,0,-14.70518684387207,0,0,0.6879600286483765
0.560819956,0,0,6.7474589347839355,0,0,1.070159912109375
0.561457486,0,0,6.7474589347839355,0,0,0.8408399820327759
0.56207833,0,0,7.97329044342041,0,0,0.7644000053405762
0.562697286,0,0,7.97329044342041,0,0,0.8408399820327759
0.56331652,0,0,6.134543418884277,0,0,0.9937199950218201
0.563935179,0,0,-17.15625,0,0,0.8408399820327759
0.56455432,0,0,-17.15625,0,0,0.611519992351532
0.565173368,0,0,-1.2204443216323853,0,0,0.9937199950218201
0.565793806,0,0,0.005985504016280174,0,0,0.9172800183296204
0.566419558,0,0,0.005985504016280174,0,0,0.9172800183296204
0.567039032,0,0,12.264298439025879,0,0,1.070159912109375
0.567658265,0,0,12.264298439025879,0,0,0.8408399820327759
0.568276906,0,0,2.4576480388641357,0,0,1.1466000080108643
0.568896288,0,0,1.8441338539123535,0,0,0.9937199950218201
0.569515077,0,0,1.8441338539123535,0,0,0.9172800183296204
0.570129163,0,0,11.03786849975586,0,0,1.070159912109375
0.570743767,0,0,11.03786849975586,0,0,0.9172800183296204
0.571357889,0,0,-4.285621166229248,0,0,0.9172800183296204
0.571972419,0,0,-19.608510971069336,0,0,0.611519992351532
0.57258693,0,0,-19.608510971069336,0,0,1.1466000080108643
0.573201164,0,0,-11.640608787536621,0,0,0.4586400091648102
0.573822508,0,0,13.489530563354492,0,0,0.6879600286483765
0.574441575,0,0,13.489530563354492,0,0,0.5350799560546875
0.575060827,0,0,-14.704587936401367,0,0,0.6879600286483765
0.575679709,0,0,-14.704587936401367,0,0,0.8408399820327759
0.57629898,0,0,-15.317503929138184,0,0,0.9172800183296204
0.576918065,0,0,1.844732403755188,0,0,1.1466000080108643
0.577537576,0,0,1.844732403755188,0,0,1.070159912109375
0.578157106,0,0,18.39285659790039,0,0,0.9172800183296204
0.578776118,0,0,-11.027094841003418,0,0,0.611519992351532
0.579395277,0,0,-11.027094841003418,0,0,0.9937199950218201
0.580014455,0,0,4.2963948249816895,0,0,0.7644000053405762
0.580633374,0,0,4.2963948249816895,0,0,0.9937199950218201
0.581252496,0,0,14.102446556091309,0,0,0.9937199950218201
0.581872878,0,0,-0.608127236366272,0,0,0.8408399820327759
0.582491204,0,0,-0.608127236366272,0,0,0.6879600286483765
0.583110382,0,0,6.134543418884277,0,0,0.9172800183296204
0.583729152,0,0,6.134543418884277,0,0,0.7644000053405762
0.584348405,0,0,7.360374450683594,0,0,0.9172800183296204
0.584967342,0,0,12.876615524291992,0,0,0.7644000053405762
0.585587816,0,0,12.876615524291992,0,0,0.9172800183296204
0.586206179,0,0,8.58620548248291,0,0,0.6879600286483765
0.586825079,0,0,16.554109573364258,0,0,0.9172800183296204
0.587444313,0,0,16.554109573364258,0,0,0.6879600286483765
0.588063343,0,0,-17.15625,0,0,0.9172800183296204
0.588682465,0,0,-17.15625,0,0,0.9172800183296204
0.589301495,0,0,17.779939651489258,0,0,0.9937199950218201
0.589921617,0,0,-15.930419921875,0,0,1.070159912109375
0.590540258,0,0,-15.930419921875,0,0,0.9937199950218201
0.591158955,0,0,-17.15625,0,0,0.8408399820327759
0.591778244,0,0,-4.897938251495361,0,0,0.8408399820327759
0.592397144,0,0,-4.897938251495361,0,0,0.7644000053405762
0.593016452,0,0,-12.252925872802734,0,0,0.7644000053405762
0.593636259,0,0,-12.252925872802734,0,0,0.305759996175766
0.594254493,0,0,-16.5433349609375,0,0,0.8408399820327759
0.594873541,0,0,-3.6727054119110107,0,0,0.9937199950218201
0.595492442,0,0,-3.6727054119110107,0,0,0.9937199950218201
0.596111582,0,0,-6.737283706665039,0,0,0.9172800183296204
0.596730538,0,0,-6.737283706665039,0,0,0.8408399820327759
0.597349475,0,0,18.39285659790039,0,0,0.8408399820327759
0.597969839,0,0,2.4576480388641357,0,0,0.5350799560546875
0.598588202,0,0,2.4576480388641357,0,0,0.7644000053405762
0.599207306,0,0,0.005985504016280174,0,0,0.9937199950218201
0.599827447,0,0,13.490129470825195,0,0,0.8408399820327759
0.600447476,0,0,13.490129470825195,0,0,0.7644000053405762
0.601066821,0,0,-19.607913970947266,0,0,1.1466000080108643
0.601686018,0,0,-19.607913970947266,0,0,0.9937199950218201
0.602305307,0,0,12.876615524291992,0,0,0.5350799560546875
0.602924429,0,0,11.03786849975586,0,0,1.1466000080108643
0.603543552,0,0,11.03786849975586,0,0,0.7644000053405762
0.60416273,0,0,-9.188945770263672,0,0,-9.019920349121094
0.604781519,0,0,-11.640009880065918,0,0,0.611519992351532
0.605400919,0,0,-11.640009880065918,0,0,1.070159912109375
0.606027763,0,0,5.521627902984619,0,0,0.9172800183296204
0.606647627,0,0,5.521627902984619,0,0,0.9172800183296204
0.607266582,0,0,9.199121475219727,0,0,0.4586400091648102
0.607885371,0,0,-5.5114521980285645,0,0,0.6879600286483765
0.608504457,0,0,-5.5114521980285645,0,0,0.8408399820327759
0.609123413,0,0,-18.382081985473633,0,0,0.9172800183296204
0.609743405,0,0,-18.382081985473633,0,0,0.8408399820327759
0.610362417,0,0,6.135141849517822,0,0,0.9172800183296204
0.610981428,0,0,8.586804389953613,0,0,0.9172800183296204
0.611600736,0,0,8.586804389953613,0,0,0.8408399820327759
0.612219451,0,0,18.39285659790039,0,0,0.9937199950218201
0.612838592,0,0,-9.188347816467285,0,0,0.9937199950218201
0.613457751,0,0,-9.188347816467285,0,0,0.9937199950218201
0.61407717,0,0,11.03786849975586,0,0,0.5350799560546875
0.61469657,0,0,11.03786849975586,0,0,0.611519992351532
0.61531547,0,0,-4.898536682128906,0,0,0.8408399820327759
0.615934611,0,0,-15.930419921875,0,0,0.6879600286483765
0.616553437,0,0,-15.930419921875,0,0,0.8408399820327759
0.617172541,0,0,12.876615524291992,0,0,0.7644000053405762
0.617792701,0,0,5.521627902984619,0,0,0.6879600286483765
0.618410842,0,0,5.521627902984619,0,0,0.5350799560546875
0.619029964,0,0,9.199121475219727,0,0,0.8408399820327759
0.619648938,0,0,9.199121475219727,0,0,0.9937199950218201
0.620268061,0,0,-6.736684799194336,0,0,0.9937199950218201
0.620887294,0,0,-12.865840911865234,0,0,0.9937199950218201
0.621507602,0,0,-12.865840911865234,0,0,0.611519992351532
0.622126687,0,0,17.779939651489258,0,0,0.6879600286483765
0.622745643,0,0,17.779939651489258,0,0,0.9172800183296204
0.623364895,0,0,-17.769166946411133,0,0,0.9937199950218201
0.623984036,0,0,16.554109573364258,0,0,0.7644000053405762
0.624603177,0,0,16.554109573364258,0,0,0.7644000053405762
0.625222299,0,0,5.521627902984619,0,0,0.8408399820327759
0.625841496,0,0,-11.640608787536621,0,0,0.8408399820327759
0.626460637,0,0,-11.640608787536621,0,0,0.8408399820327759
0.627079518,0,0,13.489530563354492,0,0,0.8408399820327759
0.627698456,0,0,13.489530563354492,0,0,0.9172800183296204
0.628317671,0,0,7.97329044342041,0,0,0.9937199950218201
0.628936571,0,0,3.069965124130249,0,0,1.223039984703064
0.629557212,0,0,3.069965124130249,0,0,0.6879600286483765
0.630175353,0,0,16.554109573364258,0,0,0.8408399820327759
0.630794586,0,0,-8.575431823730469,0,0,0.611519992351532
0.631413894,0,0,-8.575431823730469,0,0,0.8408399820327759
0.632032887,0,0,-1.833359956741333,0,0,1.1466000080108643
0.632652176,0,0,-1.833359956741333,0,0,0.7644000053405762
0.633271039,0,0,-6.123769283294678,0,0,0.611519992351532
0.633888161,0,0,6.7480573654174805,0,0,0.8408399820327759
0.634501765,0,0,6.7480573654174805,0,0,0.9172800183296204
0.635116129,0,0,15.941193580627441,0,0,0.8408399820327759
0.635731196,0,0,15.941193580627441,0,0,0.6879600286483765
0.636345429,0,0,14.715362548828125,0,0,0.8408399820327759
0.636960089,0,0,12.263699531555176,0,0,0.9937199950218201
0.637597155,0,0,12.263699531555176,0,0,1.070159912109375
0.638214593,0,0,1.8441338539123535,0,0,0.9937199950218201
0.6388334,0,0,5.521627902984619,0,0,1.070159912109375
0.63945206,0,0,5.521627902984619,0,0,1.070159912109375
0.64007096,0,0,11.03786849975586,0,0,1.070159912109375
0.640689601,0,0,11.03786849975586,0,0,0.6879600286483765
0.641308149,0,0,11.03786849975586,0,0,1.070159912109375
0.641928272,0,0,10.424952507019043,0,0,0.7644000053405762
0.642617338,0,0,10.424952507019043,0,0,0.7644000053405762
0.643239386,0,0,18.39285659790039,0,0,0.8408399820327759
0.643858194,0,0,8.586804389953613,0,0,1.070159912109375
0.644476964,0,0,8.586804389953613,0,0,1.070159912109375
0.645095864,0,0,-12.252925872802734,0,0,0.9172800183296204
0.645715728,0,0,-12.252925872802734,0,0,1.9874399900436401
0.646333794,0,0,-15.317503929138184,0,0,0.9172800183296204
0.646952195,0,0,-2.446275472640991,0,0,0.6879600286483765
0.647571002,0,0,-2.446275472640991,0,0,0.9172800183296204
0.648189773,0,0,4.2957963943481445,0,0,1.2994799613952637
0.648808395,0,0,-4.898536682128906,0,0,0.8408399820327759
0.649427203,0,0,-4.898536682128906,0,0,0.9937199950218201
0.650052325,0,0,-2.4468741416931152,0,0,0.611519992351532
0.650670744,0,0,-2.4468741416931152,0,0,1.070159912109375
0.651289515,0,0,2.457049608230591,0,0,0.8408399820327759
0.6519081,0,0,16.554109573364258,0,0,0.611519992351532
0.652526796,0,0,16.554109573364258,0,0,0.6879600286483765
0.653145252,0,0,14.102446556091309,0,0,0.5350799560546875
0.653764986,0,0,-9.801262855529785,0,0,0.9172800183296204
0.654382886,0,0,-9.801262855529785,0,0,0.8408399820327759
0.655001268,0,0,-11.640009880065918,0,0,0.7644000053405762
0.655621594,0,0,-11.640009880065918,0,0,0.8408399820327759
0.656251772,0,0,-5.5108537673950195,0,0,0.8408399820327759
0.657132298,0,0,2.4576480388641357,0,0,0.9172800183296204
0.657749236,0,0,-2.446275472640991,0,0,0.7644000053405762
0.658363525,0,0,-2.446275472640991,0,0,0.6879600286483765
0.658978147,0,0,17.779939651489258,0,0,0.9172800183296204
0.659592473,0,0,17.779939651489258,0,0,0.9937199950218201
0.6602068,0,0,14.102446556091309,0,0,1.070159912109375
0.660821404,0,0,6.134543418884277,0,0,0.9937199950218201
0.661435878,0,0,6.134543418884277,0,0,0.5350799560546875
0.662076889,0,0,1.8441338539123535,0,0,0.9172800183296204
0.662695456,0,0,1.8441338539123535,0,0,0.8408399820327759
0.663314449,0,0,8.58620548248291,0,0,0.7644000053405762
0.663933219,0,0,2.457049608230591,0,0,0.9172800183296204
0.664551805,0,0,2.457049608230591,0,0,0.8408399820327759
0.665170686,0,0,3.069965124130249,0,0,2.446079969406128
0.665789679,0,0,14.715362548828125,0,0,1.1466000080108643
0.666408246,0,0,14.715362548828125,0,0,0.9172800183296204
0.667031905,0,0,15.328277587890625,0,0,0.9172800183296204
0.667650824,0,0,15.328277587890625,0,0,0.9172800183296204
0.668269743,0,0,12.263699531555176,0,0,1.1466000080108643
0.669118677,0,0,-12.865840911865234,0,0,0.611519992351532
0.669765577,0,0,12.876615524291992,0,0,0.6879600286483765
0.670401348,0,0,12.876615524291992,0,0,0.8408399820327759
0.671049136,0,0,16.554109573364258,0,0,1.223039984703064
0.671668963,0,0,16.554109573364258,0,0,0.9937199950218201
0.672287844,0,0,3.069965124130249,0,0,0.6879600286483765
0.672906504,0,0,6.134543418884277,0,0,0.6879600286483765
0.673530126,0,0,6.134543418884277,0,0,1.223039984703064
0.674148915,0,0,0.618302583694458,0,0,0.6879600286483765
0.674767815,0,0,8.58620548248291,0,0,0.7644000053405762
0.675386808,0,0,8.58620548248291,0,0,0.611519992351532
0.676005505,0,0,-17.769166946411133,0,0,0.7644000053405762
0.676624331,0,0,-17.769166946411133,0,0,0.8408399820327759
0.677243046,0,0,12.876615524291992,0,0,0.6879600286483765
0.677863057,0,0,-12.252925872802734,0,0,0.6879600286483765
0.678481217,0,0,-12.252925872802734,0,0,0.9172800183296204
0.679099913,0,0,12.263699531555176,0,0,1.2994799613952637
0.67971898,0,0,12.263699531555176,0,0,1.452359914779663
0.680337788,0,0,-1.2204443216323853,0,0,0.5350799560546875
0.680956929,0,0,14.102446556091309,0,0,0.9172800183296204
0.681576495,0,0,14.102446556091309,0,0,0.8408399820327759
0.682195155,0,0,4.908711910247803,0,0,1.070159912109375
0.682814259,0,0,18.39285659790039,0,0,0.6879600286483765
0.683433011,0,0,18.39285659790039,0,0,0.9172800183296204
0.684051874,0,0,4.908711910247803,0,0,1.070159912109375
0.684670515,0,0,4.908711910247803,0,0,1.223039984703064
0.685289397,0,0,-17.769166946411133,0,0,0.8408399820327759
0.685909186,0,0,19.00577163696289,0,0,0.8408399820327759
0.686527271,0,0,19.00577163696289,0,0,0.7644000053405762
0.687146245,0,0,13.489530563354492,0,0,1.070159912109375
0.687764923,0,0,-16.5433349609375,0,0,1.223039984703064
0.688383898,0,0,-16.5433349609375,0,0,0.6879600286483765
0.68900265,0,0,7.973888874053955,0,0,0.8408399820327759
0.689622513,0,0,7.973888874053955,0,0,0.9937199950218201
0.690240802,0,0,-1.833359956741333,0,0,0.7644000053405762
0.690859424,0,0,-12.865242958068848,0,0,0.9937199950218201
0.691478417,0,0,-12.865242958068848,0,0,0.6879600286483765
0.692097169,0,0,-8.575431823730469,0,0,0.7644000053405762
0.692715903,0,0,-8.575431823730469,0,0,1.1466000080108643
0.693334933,0,0,4.908711910247803,0,0,-8.943479537963867
0.693954666,0,0,14.102446556091309,0,0,0.611519992351532
0.694573066,0,0,14.102446556091309,0,0,0.6879600286483765
0.695191633,0,0,-18.382081985473633,0,0,1.070159912109375
0.69581033,0,0,-1.2210428714752197,0,0,0.7644000053405762
0.696429526,0,0,-1.2210428714752197,0,0,0.9172800183296204
0.697048149,0,0,-14.704587936401367,0,0,0.9937199950218201
0.697668216,0,0,-14.704587936401367,0,0,0.7644000053405762
0.698286357,0,0,-4.897938251495361,0,0,0.9172800183296204
0.698905349,0,0,-12.252326965332031,0,0,0.8408399820327759
0.699524379,0,0,-12.252326965332031,0,0,0.7644000053405762
0.700143039,0,0,13.490129470825195,0,0,0.5350799560546875
0.700762143,0,0,-4.285022258758545,0,0,0.9937199950218201
0.701380672,0,0,-4.285022258758545,0,0,0.9172800183296204
0.702000499,0,0,-7.349600791931152,0,0,0.7644000053405762
0.702618899,0,0,-7.349600791931152,0,0,0.9172800183296204
0.703237484,0,0,-15.317503929138184,0,0,0.6879600286483765
0.703856533,0,0,7.97329044342041,0,0,0.9937199950218201
0.704475155,0,0,7.97329044342041,0,0,0.9172800183296204
0.705137073,0,0,6.7474589347839355,0,0,0.9172800183296204
0.705762992,0,0,-2.4468741416931152,0,0,0.7644000053405762
0.706382911,0,0,-2.4468741416931152,0,0,0.8408399820327759
0.707004163,0,0,12.876615524291992,0,0,0.9937199950218201
0.707625952,0,0,12.876615524291992,0,0,-8.790599822998047
0.708247593,0,0,-14.091672897338867,0,0,0.9172800183296204
0.708868956,0,0,-13.47875690460205,0,0,0.9937199950218201
0.70960204,0,0,-13.47875690460205,0,0,1.1466000080108643
0.710225607,0,0,-9.188347816467285,0,0,0.7644000053405762
0.710847192,0,0,-7.349600791931152,0,0,0.5350799560546875
0.711469092,0,0,-7.349600791931152,0,0,1.1466000080108643
0.712090326,0,0,0.6189011335372925,0,0,0.7644000053405762
0.712711985,0,0,0.6189011335372925,0,0,0.7644000053405762
0.713333311,0,0,-8.575431823730469,0,0,0.7644000053405762
0.713955674,0,0,-16.5433349609375,0,0,0.611519992351532
0.714576686,0,0,-16.5433349609375,0,0,0.9937199950218201
0.715198882,0,0,1.8441338539123535,0,0,1.070159912109375
0.715819949,0,0,-3.6727054119110107,0,0,0.7644000053405762
0.716441256,0,0,-3.6727054119110107,0,0,0.7644000053405762
0.717062879,0,0,14.715362548828125,0,0,0.6879600286483765
0.717685279,0,0,14.715362548828125,0,0,1.223039984703064
0.718305735,0,0,14.102446556091309,0,0,1.070159912109375
0.718927524,0,0,6.134543418884277,0,0,0.7644000053405762
0.719548739,0,0,6.134543418884277,0,0,0.7644000053405762
0.720170454,0,0,9.812037467956543,0,0,0.7644000053405762
0.720792039,0,0,-11.640009880065918,0,0,1.1466000080108643
0.721413217,0,0,-11.640009880065918,0,0,0.6879600286483765
0.722035654,0,0,-6.736684799194336,0,0,0.7644000053405762
0.722656221,0,0,-6.736684799194336,0,0,0.9937199950218201
0.723277844,0,0,19.00577163696289,0,0,0.6879600286483765
0.723899299,0,0,-3.0591912269592285,0,0,0.9937199950218201
0.724520366,0,0,-3.0591912269592285,0,0,0.9172800183296204
0.725141766,0,0,-11.640009880065918,0,0,0.9172800183296204
0.725763796,0,0,-4.898536682128906,0,0,0.9937199950218201
0.726384696,0,0,-4.898536682128906,0,0,0.9172800183296204
0.727005985,0,0,-12.253523826599121,0,0,0.7644000053405762
0.727627256,0,0,-12.253523826599121,0,0,0.6879600286483765
0.728248952,0,0,-7.350199222564697,0,0,0.8408399820327759
0.728870297,0,0,15.328277587890625,0,0,0.7644000053405762
0.729504493,0,0,15.328277587890625,0,0,0.9172800183296204
0.730126245,0,0,13.489530563354492,0,0,0.7644000053405762
0.730747886,0,0,7.973888874053955,0,0,1.070159912109375
0.731369379,0,0,7.973888874053955,0,0,0.611519992351532
0.731990464,0,0,4.2963948249816895,0,0,1.1466000080108643
0.732611994,0,0,4.2963948249816895,0,0,0.8408399820327759
0.733233209,0,0,-4.897938251495361,0,0,0.9937199950218201
0.73385485,0,0,-12.252925872802734,0,0,0.9937199950218201
0.734802598,0,0,7.360973358154297,0,0,1.1466000080108643
0.735432776,0,0,7.360973358154297,0,0,0.9172800183296204
0.736054269,0,0,-15.930419921875,0,0,0.3822000026702881
0.73667578,0,0,-15.930419921875,0,0,0.4586400091648102
0.737297032,0,0,9.199121475219727,0,0,0.8408399820327759
0.737919988,0,0,17.779939651489258,0,0,1.070159912109375
0.738592628,0,0,17.779939651489258,0,0,0.9937199950218201
0.739236565,0,0,17.779939651489258,0,0,0.611519992351532
0.739859984,0,0,12.876615524291992,0,0,0.611519992351532
0.740481495,0,0,12.876615524291992,0,0,0.5350799560546875
0.741102988,0,0,17.779939651489258,0,0,0.5350799560546875
0.741727721,0,0,17.779939651489258,0,0,0.7644000053405762
0.742346307,0,0,5.522226333618164,0,0,2.6754000186920166
0.742967911,0,0,-14.091672897338867,0,0,1.070159912109375
0.743589181,0,0,-14.091672897338867,0,0,0.8408399820327759
0.744210656,0,0,-6.123769283294678,0,0,0.9937199950218201
0.744831963,0,0,5.522226333618164,0,0,0.5350799560546875
0.745453882,0,0,5.522226333618164,0,0,0.7644000053405762
0.746076152,0,0,-9.188347816467285,0,0,0.9937199950218201
0.746697312,0,0,-9.188347816467285,0,0,0.9172800183296204
0.747318971,0,0,8.58620548248291,0,0,0.6879600286483765
0.747940427,0,0,-9.801861763000488,0,0,0.6879600286483765
0.748561975,0,0,-9.801861763000488,0,0,0.6879600286483765
0.749183487,0,0,18.39285659790039,0,0,0.7644000053405762
0.749805498,0,0,-5.5114521980285645,0,0,1.452359914779663
0.750426398,0,0,-5.5114521980285645,0,0,0.6879600286483765
0.751047557,0,0,2.457049608230591,0,0,0.9172800183296204
0.751668976,0,0,2.457049608230591,0,0,1.1466000080108643
0.752290284,0,0,5.521627902984619,0,0,0.7644000053405762
0.752911499,0,0,-15.930419921875,0,0,0.6879600286483765
0.753534121,0,0,-15.930419921875,0,0,0.7644000053405762
0.754155429,0,0,7.973888874053955,0,0,1.070159912109375
0.754776959,0,0,0.005985504016280174,0,0,0.6879600286483765
0.755398359,0,0,0.005985504016280174,0,0,0.6879600286483765
0.756019629,0,0,-7.9625163078308105,0,0,0.9172800183296204
0.756640955,0,0,-7.9625163078308105,0,0,0.9172800183296204
0.75728967,0,0,-7.9625163078308105,0,0,1.070159912109375
0.757912496,0,0,6.7480573654174805,0,0,0.8408399820327759
0.758533378,0,0,6.7480573654174805,0,0,0.4586400091648102
0.7591545,0,0,11.03786849975586,0,0,0.9172800183296204
0.7597759,0,0,-9.801861763000488,0,0,1.070159912109375
0.760396838,0,0,-9.801861763000488,0,0,0.6879600286483765
0.76101833,0,0,-4.285621166229248,0,0,0.7644000053405762
0.761640527,0,0,-4.285621166229248,0,0,0.7644000053405762
0.762261353,0,0,8.58620548248291,0,0,0.9937199950218201
0.762882642,0,0,14.102446556091309,0,0,0.9172800183296204
0.763503783,0,0,14.102446556091309,0,0,0.611519992351532
0.764125313,0,0,-7.349600791931152,0,0,0.6879600286483765
0.764746231,0,0,13.490129470825195,0,0,0.6879600286483765
0.765367446,0,0,13.490129470825195,0,0,2.5989599227905273
0.765989643,0,0,-4.285022258758545,0,0,0.5350799560546875
0.766610358,0,0,-4.285022258758545,0,0,0.9937199950218201
0.767231647,0,0,-12.252925872802734,0,0,0.9937199950218201
0.76785301,0,0,-0.6075286865234375,0,0,0.9172800183296204
0.768474336,0,0,-0.6075286865234375,0,0,1.070159912109375
0.769095755,0,0,-19.607913970947266,0,0,0.6879600286483765
0.769717655,0,0,-19.607913970947266,0,0,1.070159912109375
0.7703385,0,0,11.03786849975586,0,0,0.9172800183296204
0.770959622,0,0,4.908711910247803,0,0,0.9172800183296204
0.77158093,0,0,4.908711910247803,0,0,0.9172800183296204
0.772202163,0,0,7.97329044342041,0,0,0.8408399820327759
0.77282323,0,0,0.618302583694458,0,0,0.8408399820327759
0.773467556,0,0,0.618302583694458,0,0,0.9937199950218201
0.774089308,0,0,0.005386953707784414,0,0,0.6879600286483765
0.774710153,0,0,0.005386953707784414,0,0,0.611519992351532
0.775330719,0,0,12.263699531555176,0,0,0.8408399820327759
0.775979471,0,0,-17.15625,0,0,0.8408399820327759
0.776606538,0,0,-17.15625,0,0,0.7644000053405762
0.777228123,0,0,7.360374450683594,0,0,0.7644000053405762
0.777850672,0,0,-12.252925872802734,0,0,0.8408399820327759
0.778471424,0,0,-12.252925872802734,0,0,0.8408399820327759
0.779092472,0,0,0.005985504016280174,0,0,1.223039984703064
0.779713835,0,0,0.005985504016280174,0,0,0.9937199950218201
0.780334957,0,0,17.779939651489258,0,0,0.4586400091648102
0.780956395,0,0,3.6828808784484863,0,0,0.9937199950218201
0.781578276,0,0,3.6828808784484863,0,0,1.223039984703064
0.78219888,0,0,-8.576030731201172,0,0,0.9172800183296204
0.782820317,0,0,-17.15625,0,0,0.9937199950218201
0.78344131,0,0,-17.15625,0,0,0.9172800183296204
0.784062729,0,0,1.2312182188034058,0,0,0.7644000053405762
0.784684018,0,0,1.2312182188034058,0,0,1.070159912109375
0.785321844,0,0,5.521627902984619,0,0,0.6879600286483765
0.785945077,0,0,-18.994997024536133,0,0,0.7644000053405762
0.786564681,0,0,-18.994997024536133,0,0,0.611519992351532
0.787186322,0,0,-6.736684799194336,0,0,0.9172800183296204
0.787807556,0,0,7.973888874053955,0,0,0.611519992351532
0.788429104,0,0,7.973888874053955,0,0,0.8408399820327759
0.789050615,0,0,-0.6075286865234375,0,0,0.611519992351532
0.78967246,0,0,-0.6075286865234375,0,0,0.9937199950218201
0.790293212,0,0,11.650784492492676,0,0,0.9172800183296204
0.790914464,0,0,8.58620548248291,0,0,0.9937199950218201
0.791535994,0,0,8.58620548248291,0,0,1.1466000080108643
0.79215745,0,0,6.7474589347839355,0,0,0.8408399820327759
0.792778739,0,0,14.715362548828125,0,0,0.611519992351532
0.793400139,0,0,14.715362548828125,0,0,0.7644000053405762
0.794022187,0,0,13.489530563354492,0,0,0.3822000026702881
0.794643124,0,0,13.489530563354492,0,0,0.8408399820327759
0.795264321,0,0,2.457049608230591,0,0,0.9937199950218201
0.795885573,0,0,0.005386953707784414,0,0,0.611519992351532
0.796506936,0,0,0.005386953707784414,0,0,0.9172800183296204
0.797128003,0,0,4.2957963943481445,0,0,0.611519992351532
0.797749384,0,0,6.7474589347839355,0,0,0.6879600286483765
0.798369229,0,0,6.7474589347839355,0,0,0.8408399820327759
0.798989185,0,0,-15.317503929138184,0,0,0.8408399820327759
0.799609437,0,0,-15.317503929138184,0,0,0.7644000053405762
0.800643925,0,0,-3.0591912269592285,0,0,0.611519992351532
0.801263455,0,0,-9.801262855529785,0,0,0.6879600286483765
0.801882984,0,0,-8.575431823730469,0,0,0.6879600286483765
0.802500218,0,0,-8.575431823730469,0,0,0.9937199950218201
0.803117229,0,0,18.39285659790039,0,0,0.6879600286483765
0.803734481,0,0,17.167024612426758,0,0,1.070159912109375
0.804351289,0,0,17.167024612426758,0,0,1.070159912109375
0.804968615,0,0,15.328277587890625,0,0,0.9172800183296204
0.805586404,0,0,15.328277587890625,0,0,0.7644000053405762
0.80620386,0,0,2.457049608230591,0,0,0.9172800183296204
0.806821371,0,0,8.58620548248291,0,0,0.9172800183296204
0.807438624,0,0,8.58620548248291,0,0,0.8408399820327759
0.808055968,0,0,-17.15625,0,0,0.9172800183296204
0.808672868,0,0,-17.15625,0,0,0.8408399820327759
0.809290009,0,0,17.167024612426758,0,0,0.6879600286483765
0.809917132,0,0,11.651382446289063,0,0,1.070159912109375
0.81053468,0,0,11.651382446289063,0,0,0.611519992351532
0.811152062,0,0,-6.736684799194336,0,0,0.611519992351532
0.811768795,0,0,12.876615524291992,0,0,0.5350799560546875
0.812386085,0,0,12.876615524291992,0,0,2.446079969406128
0.813003411,0,0,-3.0591912269592285,0,0,0.611519992351532
0.8136262,0,0,-3.0591912269592285,0,0,0.7644000053405762
0.814247896,0,0,12.876615524291992,0,0,0.7644000053405762
0.814869241,0,0,-3.0597896575927734,0,0,0.6879600286483765
0.815490734,0,0,-3.0597896575927734,0,0,0.6879600286483765
0.816112041,0,0,-6.123769283294678,0,0,0.611519992351532
0.816733608,0,0,17.779939651489258,0,0,0.9937199950218201
0.817355304,0,0,17.779939651489258,0,0,0.9172800183296204
0.817978279,0,0,-4.897938251495361,0,0,0.9937199950218201
0.818598475,0,0,-4.897938251495361,0,0,0.5350799560546875
0.819219783,0,0,-13.47875690460205,0,0,0.5350799560546875
0.819841294,0,0,-4.897938251495361,0,0,0.5350799560546875
0.820462879,0,0,-4.897938251495361,0,0,0.9937199950218201
0.821084354,0,0,-15.317503929138184,0,0,0.9937199950218201
0.821706846,0,0,-15.317503929138184,0,0,0.611519992351532
0.822327598,0,0,-11.640009880065918,0,0,0.7644000053405762
0.822949017,0,0,-13.47875690460205,0,0,0.8408399820327759
0.823570584,0,0,-13.47875690460205,0,0,1.070159912109375
0.824191947,0,0,-0.6075286865234375,0,0,0.7644000053405762
0.824813532,0,0,-4.285022258758545,0,0,0.8408399820327759
0.825435007,0,0,-4.285022258758545,0,0,0.7644000053405762
0.826057333,0,0,11.650784492492676,0,0,0.8408399820327759
0.826678715,0,0,11.650784492492676,0,0,0.9172800183296204
0.827299911,0,0,4.908711910247803,0,0,2.2932000160217285
0.827921719,0,0,5.521627902984619,0,0,1.1466000080108643
0.828543082,0,0,5.521627902984619,0,0,0.9172800183296204
0.829164741,0,0,-1.833359956741333,0,0,1.223039984703064
0.829787326,0,0,7.360973358154297,0,0,0.6879600286483765
0.830407967,0,0,7.360973358154297,0,0,0.8408399820327759
0.831029738,0,0,-3.0591912269592285,0,0,0.6879600286483765
0.831650971,0,0,-3.0591912269592285,0,0,0.9172800183296204
0.832272612,0,0,8.586804389953613,0,0,0.7644000053405762
0.832893957,0,0,-3.6721067428588867,0,0,0.9937199950218201
0.833515783,0,0,-3.6721067428588867,0,0,0.9172800183296204
0.834137461,0,0,19.00577163696289,0,0,0.9937199950218201
0.834758713,0,0,-17.769166946411133,0,0,2.522519826889038
0.835380613,0,0,-17.769166946411133,0,0,0.9172800183296204
0.83600205,0,0,5.521627902984619,0,0,0.6879600286483765
0.836623543,0,0,5.521627902984619,0,0,1.070159912109375
0.837245258,0,0,9.199121475219727,0,0,0.9172800183296204
0.837867307,0,0,-16.5433349609375,0,0,0.7644000053405762
0.838488392,0,0,-16.5433349609375,0,0,0.9937199950218201
0.839109774,0,0,-13.47875690460205,0,0,0.9172800183296204
0.839731285,0,0,-11.640009880065918,0,0,0.9172800183296204
0.840352667,0,0,-11.640009880065918,0,0,0.9937199950218201
0.840974048,0,0,-4.897938251495361,0,0,0.5350799560546875
0.841596504,0,0,-4.897938251495361,0,0,1.070159912109375
0.842217293,0,0,3.6834793090820313,0,0,2.446079969406128
0.842839064,0,0,5.522226333618164,0,0,0.8408399820327759
0.843460704,0,0,5.522226333618164,0,0,0.6879600286483765
0.844081956,0,0,10.425551414489746,0,0,1.070159912109375
0.844703616,0,0,-0.6075286865234375,0,0,0.9937199950218201
0.845325053,0,0,-0.6075286865234375,0,0,0.9937199950218201
0.845947268,0,0,-19.607913970947266,0,0,0.8408399820327759
0.846568279,0,0,-19.607913970947266,0,0,0.8408399820327759
0.847189568,0,0,12.876615524291992,0,0,0.6879600286483765
0.847810932,0,0,4.2957963943481445,0,0,0.6879600286483765
0.84843235,0,0,4.2957963943481445,0,0,1.070159912109375
0.849053973,0,0,15.941193580627441,0,0,0.7644000053405762
0.849675836,0,0,15.941193580627441,0,0,2.446079969406128
0.850297069,0,0,6.134543418884277,0,0,0.7644000053405762
0.850918692,0,0,4.908711910247803,0,0,0.9172800183296204
0.851540147,0,0,4.908711910247803,0,0,1.1466000080108643
0.852161659,0,0,7.360374450683594,0,0,0.611519992351532
0.852782818,0,0,-12.865840911865234,0,0,0.8408399820327759
0.853404348,0,0,-12.865840911865234,0,0,0.7644000053405762
0.854026637,0,0,8.586804389953613,0,0,1.070159912109375
0.854647241,0,0,8.586804389953613,0,0,0.611519992351532
0.855268826,0,0,0.005985504016280174,0,0,0.9172800183296204
0.855890152,0,0,-14.091672897338867,0,0,0.7644000053405762
0.856511756,0,0,-14.091672897338867,0,0,0.611519992351532
0.857133175,0,0,12.876615524291992,0,0,2.5989599227905273
0.857755186,0,0,-15.930419921875,0,0,1.223039984703064
0.858376512,0,0,-15.930419921875,0,0,0.9172800183296204
0.858997913,0,0,16.554109573364258,0,0,0.5350799560546875
0.859619424,0,0,16.554109573364258,0,0,0.8408399820327759
0.860240972,0,0,11.03786849975586,0,0,0.611519992351532
0.860862224,0,0,11.650784492492676,0,0,0.7644000053405762
0.861484235,0,0,11.650784492492676,0,0,1.1466000080108643
0.862106117,0,0,9.199121475219727,0,0,0.611519992351532
0.862727925,0,0,-1.8339585065841675,0,0,1.070159912109375
0.863349399,0,0,-1.8339585065841675,0,0,0.7644000053405762
0.863982577,0,0,-18.382081985473633,0,0,0.7644000053405762
0.864604773,0,0,-18.382081985473633,0,0,0.7644000053405762
0.865226118,0,0,-12.865840911865234,0,0,0.7644000053405762
0.865847518,0,0,-12.865840911865234,0,0,0.9937199950218201
0.866466955,0,0,-12.865840911865234,0,0,0.8408399820327759
0.867087318,0,0,-11.640009880065918,0,0,0.7644000053405762
0.868430636,0,0,-12.865840911865234,0,0,1.223039984703064
0.869052518,0,0,-2.446275472640991,0,0,0.6879600286483765
0.869671899,0,0,-2.446275472640991,0,0,0.9172800183296204
0.87028917,0,0,9.812037467956543,0,0,0.3822000026702881
0.870906552,0,0,-5.5114521980285645,0,0,1.1466000080108643
0.871523341,0,0,-5.5114521980285645,0,0,0.9172800183296204
0.872140463,0,0,-6.124367713928223,0,0,0.9937199950218201
0.872757382,0,0,-17.156848907470703,0,0,0.6879600286483765
0.873374319,0,0,-17.156848907470703,0,0,0.7644000053405762
0.873992497,0,0,14.102446556091309,0,0,1.070159912109375
0.874609749,0,0,14.102446556091309,0,0,0.4586400091648102
0.875227057,0,0,-12.865840911865234,0,0,0.9172800183296204
0.875843828,0,0,-6.123769283294678,0,0,0.6879600286483765
0.876461117,0,0,-6.123769283294678,0,0,0.9172800183296204
0.877078369,0,0,5.522226333618164,0,0,0.5350799560546875
0.877696602,0,0,-6.123769283294678,0,0,0.7644000053405762
0.878313984,0,0,-6.123769283294678,0,0,0.8408399820327759
0.878930977,0,0,-15.317503929138184,0,0,0.7644000053405762
0.879548285,0,0,-15.317503929138184,0,0,0.9937199950218201
0.880165574,0,0,-18.382081985473633,0,0,0.9937199950218201
0.8807824,0,0,-6.736684799194336,0,0,0.7644000053405762
0.881399726,0,0,-6.736684799194336,0,0,0.7644000053405762
0.882021811,0,0,16.554109573364258,0,0,1.223039984703064
0.882643526,0,0,16.554109573364258,0,0,0.611519992351532
0.883266352,0,0,11.650784492492676,0,0,0.9172800183296204
0.88388816,0,0,-3.6727054119110107,0,0,0.9937199950218201
0.88450969,0,0,-3.6727054119110107,0,0,1.070159912109375
0.885131201,0,0,1.2312182188034058,0,0,0.7644000053405762
0.885753879,0,0,7.97329044342041,0,0,0.7644000053405762
0.886387872,0,0,7.97329044342041,0,0,0.8408399820327759
0.887009735,0,0,-4.285022258758545,0,0,0.9172800183296204
0.88763132,0,0,-4.285022258758545,0,0,1.2994799613952637
0.888252757,0,0,5.522226333618164,0,0,0.611519992351532
0.888874435,0,0,5.522226333618164,0,0,0.7644000053405762
0.889507632,0,0,5.522226333618164,0,0,0.6879600286483765
0.890129458,0,0,-10.414178848266602,0,0,1.070159912109375
0.890751117,0,0,16.554109573364258,0,0,0.611519992351532
0.891372758,0,0,16.554109573364258,0,0,0.7644000053405762
0.891994288,0,0,12.263699531555176,0,0,0.9172800183296204
0.892615503,0,0,12.263699531555176,0,0,1.070159912109375
0.893237459,0,0,2.457049608230591,0,0,0.8408399820327759
0.893859396,0,0,17.779939651489258,0,0,0.611519992351532
0.894480889,0,0,17.779939651489258,0,0,0.8408399820327759
0.895102381,0,0,-2.4468741416931152,0,0,0.7644000053405762
0.895723522,0,0,-11.027692794799805,0,0,1.070159912109375
0.896345256,0,0,-11.027692794799805,0,0,0.9172800183296204
0.896966841,0,0,-7.349600791931152,0,0,1.223039984703064
0.897588501,0,0,-7.349600791931152,0,0,1.1466000080108643
0.898208216,0,0,-1.2204443216323853,0,0,0.9172800183296204
0.898828394,0,0,-7.9625163078308105,0,0,1.223039984703064
0.899448757,0,0,-7.9625163078308105,0,0,1.070159912109375
0.900069009,0,0,0.005985504016280174,0,0,0.6879600286483765
0.900706557,0,0,-7.349600791931152,0,0,0.7644000053405762
0.901329772,0,0,-7.349600791931152,0,0,0.8408399820327759
0.901952413,0,0,1.2318167686462402,0,0,1.1466000080108643
0.902573406,0,0,1.2318167686462402,0,0,0.8408399820327759
0.90319488,0,0,-3.0591912269592285,0,0,0.9937199950218201
0.903816224,0,0,-5.5108537673950195,0,0,0.9937199950218201
0.90443781,0,0,-5.5108537673950195,0,0,0.9937199950218201
0.905059173,0,0,15.328277587890625,0,0,0.4586400091648102
0.905681555,0,0,15.328277587890625,0,0,0.7644000053405762
0.906302492,0,0,1.8441338539123535,0,0,1.070159912109375
0.906923707,0,0,7.360374450683594,0,0,0.8408399820327759
0.907545237,0,0,7.360374450683594,0,0,0.8408399820327759
0.908166618,0,0,-9.801262855529785,0,0,0.6879600286483765
0.90878813,0,0,1.2318167686462402,0,0,0.6879600286483765
0.909409382,0,0,1.2318167686462402,0,0,0.7644000053405762
0.910038004,0,0,-4.285022258758545,0,0,1.070159912109375
0.910660311,0,0,-4.285022258758545,0,0,1.070159912109375
0.911281675,0,0,-7.9625163078308105,0,0,0.305759996175766
0.911903167,0,0,-14.091672897338867,0,0,0.4586400091648102
0.912524345,0,0,-14.091672897338867,0,0,1.1466000080108643
0.913146042,0,0,-15.930419921875,0,0,0.7644000053405762
0.913769072,0,0,-19.607913970947266,0,0,0.6879600286483765
0.914389046,0,0,-19.607913970947266,0,0,1.1466000080108643
0.915010779,0,0,-12.253523826599121,0,0,1.070159912109375
0.915631976,0,0,-12.253523826599121,0,0,0.611519992351532
0.916253395,0,0,9.199121475219727,0,0,0.8408399820327759
0.916874943,0,0,-9.188945770263672,0,0,0.9937199950218201
0.917508935,0,0,-9.188945770263672,0,0,1.070159912109375
0.91812965,0,0,4.908711910247803,0,0,1.223039984703064
0.918749458,0,0,-12.865840911865234,0,0,0.6879600286483765
0.919369969,0,0,-12.865840911865234,0,0,0.5350799560546875
0.921681165,0,0,-6.123769283294678,0,0,0.5350799560546875
0.922327398,0,0,-1.833359956741333,0,0,1.070159912109375
0.922948817,0,0,0.6189011335372925,0,0,0.611519992351532
0.923570717,0,0,0.6189011335372925,0,0,1.070159912109375
0.924193173,0,0,-16.5433349609375,0,0,0.7644000053405762
0.92481548,0,0,12.876615524291992,0,0,0.9172800183296204
0.925460565,0,0,12.876615524291992,0,0,0.611519992351532
0.926086021,0,0,-18.995595932006836,0,0,0.6879600286483765
0.926708088,0,0,-9.801861763000488,0,0,0.7644000053405762
0.92733021,0,0,-9.801861763000488,0,0,0.6879600286483765
0.927969555,0,0,-3.6727054119110107,0,0,0.9937199950218201
0.928592084,0,0,-3.6727054119110107,0,0,0.8408399820327759
0.929214281,0,0,-16.543933868408203,0,0,1.070159912109375
0.929837403,0,0,-6.124367713928223,0,0,0.8408399820327759
0.93045847,0,0,-6.124367713928223,0,0,0.7644000053405762
0.931080407,0,0,-12.252925872802734,0,0,0.7644000053405762
0.9317024,0,0,-0.6075286865234375,0,0,0.611519992351532
0.932324448,0,0,-0.6075286865234375,0,0,0.7644000053405762
0.932946311,0,0,4.909310817718506,0,0,0.9172800183296204
0.933569286,0,0,4.909310817718506,0,0,0.5350799560546875
0.934190501,0,0,1.2318167686462402,0,0,0.7644000053405762
0.934812049,0,0,-4.897938251495361,0,0,1.1466000080108643
0.935434134,0,0,-4.897938251495361,0,0,0.611519992351532
0.936055794,0,0,-4.897938251495361,0,0,0.611519992351532
0.936678009,0,0,-4.897938251495361,0,0,0.7644000053405762
0.937299761,0,0,-9.801262855529785,0,0,0.9172800183296204
0.937922605,0,0,5.521627902984619,0,0,0.8408399820327759
0.938544246,0,0,5.521627902984619,0,0,1.070159912109375
0.939166109,0,0,-12.252925872802734,0,0,1.1466000080108643
0.939787936,0,0,-17.769166946411133,0,0,0.611519992351532
0.940409836,0,0,-17.769166946411133,0,0,0.9937199950218201
0.941032106,0,0,-0.608127236366272,0,0,0.7644000053405762
0.94165484,0,0,-0.608127236366272,0,0,0.6879600286483765
0.942276092,0,0,-8.575431823730469,0,0,0.9172800183296204
0.94289801,0,0,1.2318167686462402,0,0,0.7644000053405762
0.943519725,0,0,1.2318167686462402,0,0,0.9172800183296204
0.944141866,0,0,-6.736086368560791,0,0,0.9172800183296204
0.944764044,0,0,3.6834793090820313,0,0,0.9937199950218201
0.94538587,0,0,3.6834793090820313,0,0,0.9172800183296204
0.946008715,0,0,15.941193580627441,0,0,0.7644000053405762
0.946630152,0,0,15.941193580627441,0,0,2.14031982421875
0.947252219,0,0,-5.5108537673950195,0,0,0.6879600286483765
0.947874119,0,0,0.005386953707784414,0,0,0.8408399820327759
0.948495853,0,0,0.005386953707784414,0,0,1.375920057296753
0.94911792,0,0,-11.640608787536621,0,0,1.070159912109375
0.949740227,0,0,-12.865840911865234,0,0,1.070159912109375
0.950361794,0,0,-12.865840911865234,0,0,0.7644000053405762
0.950983935,0,0,11.650784492492676,0,0,0.8408399820327759
0.951605687,0,0,11.650784492492676,0,0,1.070159912109375
0.952227809,0,0,17.167024612426758,0,0,0.8408399820327759
0.952849543,0,0,-13.47875690460205,0,0,0.8408399820327759
0.953472184,0,0,-13.47875690460205,0,0,0.9172800183296204
0.954094547,0,0,-14.704587936401367,0,0,1.1466000080108643
0.954716336,0,0,-11.640009880065918,0,0,0.6879600286483765
0.955338551,0,0,-11.640009880065918,0,0,1.223039984703064
0.955960229,0,0,17.16762351989746,0,0,0.9172800183296204
0.956582277,0,0,17.16762351989746,0,0,1.223039984703064
0.957204214,0,0,-4.897938251495361,0,0,0.611519992351532
0.957826818,0,0,2.4576480388641357,0,0,0.8408399820327759
0.958448237,0,0,2.4576480388641357,0,0,0.8408399820327759
0.959070045,0,0,19.00577163696289,0,0,0.9172800183296204
0.959692241,0,0,6.134543418884277,0,0,0.9172800183296204
0.960313956,0,0,6.134543418884277,0,0,0.8408399820327759
0.96093569,0,0,14.715362548828125,0,0,0.9172800183296204
0.961558645,0,0,14.715362548828125,0,0,1.070159912109375
0.962180619,0,0,17.779939651489258,0,0,0.7644000053405762
0.962802594,0,0,6.134543418884277,0,0,0.8408399820327759
0.963424512,0,0,6.134543418884277,0,0,0.9937199950218201
0.964046561,0,0,-6.736684799194336,0,0,1.2994799613952637
0.964668498,0,0,-6.736684799194336,0,0,0.8408399820327759
0.965290157,0,0,-9.801262855529785,0,0,0.9937199950218201
0.96591315,0,0,-11.640009880065918,0,0,0.9172800183296204
0.966534273,0,0,-11.640009880065918,0,0,0.611519992351532
0.967156265,0,0,-2.446275472640991,0,0,0.9172800183296204
0.967784721,0,0,-12.865840911865234,0,0,0.9937199950218201
0.968406825,0,0,-12.865840911865234,0,0,1.1466000080108643
0.96902891,0,0,-10.414178848266602,0,0,0.7644000053405762
0.969651477,0,0,-10.414178848266602,0,0,0.8408399820327759
0.970272896,0,0,9.812037467956543,0,0,0.9172800183296204
0.970894648,0,0,-7.9631147384643555,0,0,1.070159912109375
0.971516492,0,0,-7.9631147384643555,0,0,0.9172800183296204
0.972144467,0,0,-1.2210428714752197,0,0,0.9172800183296204
0.972766607,0,0,0.005386953707784414,0,0,0.9172800183296204
0.973388619,0,0,0.005386953707784414,0,0,0.9172800183296204
0.974010908,0,0,3.6828808784484863,0,0,0.9172800183296204
0.974632104,0,0,3.6828808784484863,0,0,0.6879600286483765
0.975254153,0,0,-14.091672897338867,0,0,0.7644000053405762
0.975875979,0,0,-16.542736053466797,0,0,0.8408399820327759
0.976497897,0,0,-16.542736053466797,0,0,0.9172800183296204
0.977119723,0,0,15.328876495361328,0,0,0.9937199950218201
0.977742179,0,0,-4.285022258758545,0,0,0.6879600286483765
0.978364542,0,0,-4.285022258758545,0,0,-9.249239921569824
0.978985665,0,0,-7.9625163078308105,0,0,0.9937199950218201
0.979607583,0,0,-7.9625163078308105,0,0,0.9937199950218201
0.980229428,0,0,-15.317503929138184,0,0,0.8408399820327759
0.980851643,0,0,-17.769166946411133,0,0,0.8408399820327759
0.981474284,0,0,-17.769166946411133,0,0,0.8408399820327759
0.98209624,0,0,-19.607913970947266,0,0,0.8408399820327759
0.982718418,0,0,-15.317503929138184,0,0,0.6879600286483765
0.983340188,0,0,-15.317503929138184,0,0,0.611519992351532
0.983962273,0,0,-6.737283706665039,0,0,0.7644000053405762
0.984584266,0,0,-6.737283706665039,0,0,0.9172800183296204
0.985206018,0,0,-1.2210428714752197,0,0,0.9172800183296204
0.985828067,0,0,19.00577163696289,0,0,0.9172800183296204
0.986448096,0,0,19.00577163696289,0,0,1.070159912109375
0.987068885,0,0,-16.5433349609375,0,0,0.8408399820327759
0.987693156,0,0,-2.446275472640991,0,0,1.223039984703064
0.988327149,0,0,-2.446275472640991,0,0,0.9172800183296204
0.988951789,0,0,2.4576480388641357,0,0,0.6879600286483765
0.989574986,0,0,2.4576480388641357,0,0,0.9172800183296204
0.99019709,0,0,-6.736684799194336,0,0,0.9172800183296204
0.990819675,0,0,1.8441338539123535,0,0,0.6879600286483765
0.991441631,0,0,1.8441338539123535,0,0,0.6879600286483765
0.992063883,0,0,0.005386953707784414,0,0,0.611519992351532
0.992686005,0,0,11.650784492492676,0,0,1.375920057296753
0.993308368,0,0,11.650784492492676,0,0,1.070159912109375
0.99393125,0,0,-17.769166946411133,0,0,0.7644000053405762
0.994553335,0,0,-17.769166946411133,0,0,0.9172800183296204
0.99517568,0,0,16.554109573364258,0,0,1.1466000080108643
0.995797839,0,0,-13.47875690460205,0,0,0.9172800183296204
0.996420184,0,0,-13.47875690460205,0,0,0.9172800183296204
0.997042214,0,0,18.39285659790039,0,0,0.9172800183296204
0.997665355,0,0,18.39285659790039,0,0,0.9937199950218201
0.998286996,0,0,10.425551414489746,0,0,0.9172800183296204
0.99890897,0,0,4.2963948249816895,0,0,0.9937199950218201
0.999531055,0,0,4.2963948249816895,0,0,0.5350799560546875
1.000155567,0,0,-18.994400024414063,0,0,0.9172800183296204
1.000778319,0,0,-7.9625163078308105,0,0,0.4586400091648102
1.001400589,0,0,-7.9625163078308105,0,0,1.1466000080108643
1.002022823,0,0,-17.769166946411133,0,0,0.9172800183296204
1.002645241,0,0,-17.769166946411133,0,0,0.9172800183296204
1.003268271,0,0,-5.5114521980285645,0,0,0.7644000053405762
1.003891153,0,0,-13.479355812072754,0,0,1.070159912109375
1.004513405,0,0,-13.479355812072754,0,0,0.9937199950218201
1.005141638,0,0,14.715362548828125,0,0,0.9937199950218201
1.005767094,0,0,1.8441338539123535,0,0,0.4586400091648102
1.006388105,0,0,1.8441338539123535,0,0,0.9172800183296204
1.00701045,0,0,-5.5114521980285645,0,0,1.223039984703064
1.007647165,0,0,-5.5114521980285645,0,0,0.7644000053405762
1.008270917,0,0,11.03786849975586,0,0,0.6879600286483765
1.008893187,0,0,-18.382081985473633,0,0,1.070159912109375
1.009516143,0,0,-18.382081985473633,0,0,0.9172800183296204
1.010138506,0,0,-6.123769283294678,0,0,0.8408399820327759
1.01076111,0,0,-6.123769283294678,0,0,0.8408399820327759
1.011383066,0,0,-6.123769283294678,0,0,0.611519992351532
1.012005225,0,0,17.779939651489258,0,0,0.7644000053405762
1.012627236,0,0,17.779939651489258,0,0,0.9937199950218201
1.013249396,0,0,-7.349600791931152,0,0,1.1466000080108643
1.013871574,0,0,-2.446275472640991,0,0,0.7644000053405762
1.014493585,0,0,-2.446275472640991,0,0,1.223039984703064
1.015116096,0,0,-1.2210428714752197,0,0,0.8408399820327759
1.015738107,0,0,12.263699531555176,0,0,1.1466000080108643
1.016360415,0,0,12.263699531555176,0,0,1.070159912109375
1.016982445,0,0,14.715362548828125,0,0,0.8408399820327759
1.017604826,0,0,14.715362548828125,0,0,1.070159912109375
1.018227023,0,0,15.941193580627441,0,0,0.9937199950218201
1.018848905,0,0,15.941193580627441,0,0,0.9172800183296204
1.01947099,0,0,15.941193580627441,0,0,0.7644000053405762
1.020092835,0,0,16.554109573364258,0,0,0.8408399820327759
1.020715161,0,0,-9.188347816467285,0,0,1.1466000080108643
1.021337339,0,0,-9.188347816467285,0,0,0.4586400091648102
1.021959572,0,0,12.264298439025879,0,0,0.9172800183296204
1.022581917,0,0,12.264298439025879,0,0,0.7644000053405762
1.023203928,0,0,16.554109573364258,0,0,1.1466000080108643
1.023826365,0,0,-18.382081985473633,0,0,0.8408399820327759
1.024448765,0,0,-18.382081985473633,0,0,0.6879600286483765
1.025070814,0,0,12.263699531555176,0,0,0.611519992351532
1.025694066,0,0,-6.124367713928223,0,0,1.070159912109375
1.026314873,0,0,-6.124367713928223,0,0,0.8408399820327759
1.026937125,0,0,1.2312182188034058,0,0,1.070159912109375
1.027559211,0,0,1.2312182188034058,0,0,0.8408399820327759
1.028181111,0,0,2.457049608230591,0,0,0.9172800183296204
1.028803455,0,0,-12.866439819335938,0,0,0.9172800183296204
1.029425374,0,0,-12.866439819335938,0,0,0.8408399820327759
1.030048459,0,0,-1.2210428714752197,0,0,0.9172800183296204
1.0306701,0,0,17.167024612426758,0,0,0.9172800183296204
1.031291908,0,0,17.167024612426758,0,0,0.7644000053405762
1.031913975,0,0,-7.9625163078308105,0,0,0.8408399820327759
1.032535912,0,0,-7.9625163078308105,0,0,0.6879600286483765
1.03315809,0,0,-18.38148307800293,0,0,1.1466000080108643
1.03378086,0,0,-4.897938251495361,0,0,0.8408399820327759
1.034402705,0,0,-4.897938251495361,0,0,0.8408399820327759
1.035025031,0,0,-3.0591912269592285,0,0,0.9172800183296204
1.035647024,0,0,-3.0591912269592285,0,0,0.6879600286483765
1.036269257,0,0,6.7480573654174805,0,0,0.8408399820327759
1.036891158,0,0,0.618302583694458,0,0,1.1466000080108643
1.037514502,0,0,0.618302583694458,0,0,0.9937199950218201
1.038136736,0,0,-17.769166946411133,0,0,0.6879600286483765
1.038758469,0,0,8.58620548248291,0,0,0.8408399820327759
1.039380703,0,0,8.58620548248291,0,0,1.070159912109375
1.040002529,0,0,1.2312182188034058,0,0,0.6879600286483765
1.040624651,0,0,1.2312182188034058,0,0,1.070159912109375
1.041246663,0,0,19.00577163696289,0,0,0.611519992351532
1.041869415,0,0,14.715362548828125,0,0,0.5350799560546875
1.042491259,0,0,14.715362548828125,0,0,0.9172800183296204
1.043113233,0,0,-1.833359956741333,0,0,0.9172800183296204
1.043735522,0,0,11.038467407226563,0,0,0.9172800183296204
1.044357904,0,0,11.038467407226563,0,0,0.611519992351532
1.044979656,0,0,-5.5108537673950195,0,0,0.7644000053405762
1.045602649,0,0,-5.5108537673950195,0,0,1.223039984703064
1.046224031,0,0,9.19972038269043,0,0,1.223039984703064
1.046846246,0,0,-9.188347816467285,0,0,0.9937199950218201
1.047474664,0,0,-9.188347816467285,0,0,2.522519826889038
1.048097046,0,0,-3.0597896575927734,0,0,0.9937199950218201
1.048719483,0,0,-3.0597896575927734,0,0,1.1466000080108643
1.049341476,0,0,-3.0597896575927734,0,0,0.611519992351532
1.04996158,0,0,-12.252925872802734,0,0,1.070159912109375
1.0505785539999999,0,0,-12.252925872802734,0,0,0.9172800183296204
1.051196121,0,0,11.03786849975586,0,0,0.9172800183296204
1.051813854,0,0,3.069965124130249,0,0,0.7644000053405762
1.052431199,0,0,3.069965124130249,0,0,0.7644000053405762
1.053048655,0,0,6.135141849517822,0,0,0.9172800183296204
1.053673555,0,0,1.844732403755188,0,0,0.8408399820327759
1.054296381,0,0,1.844732403755188,0,0,1.070159912109375
1.054918337,0,0,1.2318167686462402,0,0,0.8408399820327759
1.055539885,0,0,1.2318167686462402,0,0,0.7644000053405762
1.056161933,0,0,18.39285659790039,0,0,0.611519992351532
1.056783871,0,0,12.876615524291992,0,0,1.1466000080108643
1.057405734,0,0,12.876615524291992,0,0,0.8408399820327759
1.058028078,0,0,-11.027094841003418,0,0,0.9937199950218201
1.058649071,0,0,-11.027094841003418,0,0,0.6879600286483765
1.059271286,0,0,19.00577163696289,0,0,0.6879600286483765
1.05989276,0,0,1.8441338539123535,0,0,0.5350799560546875
1.060514605,0,0,1.8441338539123535,0,0,0.5350799560546875
1.06113669,0,0,-6.124367713928223,0,0,0.9937199950218201
1.061759183,0,0,-15.317503929138184,0,0,0.9172800183296204
1.062380676,0,0,-15.317503929138184,0,0,0.9172800183296204
1.063002391,0,0,17.779939651489258,0,0,0.9172800183296204
1.063624439,0,0,17.779939651489258,0,0,0.9172800183296204
1.064246525,0,0,-5.5108537673950195,0,0,0.6879600286483765
1.064868091,0,0,-4.285022258758545,0,0,0.9172800183296204
1.065503214,0,0,-4.285022258758545,0,0,0.7644000053405762
1.06612504,0,0,-8.575431823730469,0,0,0.8408399820327759
1.06674694,0,0,1.2318167686462402,0,0,0.8408399820327759
1.067368729,0,0,1.2318167686462402,0,0,0.6879600286483765
1.06799,0,0,-11.640009880065918,0,0,0.9937199950218201
1.068611992,0,0,-11.640009880065918,0,0,1.1466000080108643
1.069233578,0,0,-16.5433349609375,0,0,1.1466000080108643
1.069856496,0,0,15.941193580627441,0,0,0.7644000053405762
1.070477471,0,0,15.941193580627441,0,0,0.9937199950218201
1.071099334,0,0,2.457049608230591,0,0,1.2994799613952637
1.071721197,0,0,12.263699531555176,0,0,0.8408399820327759
1.072342708,0,0,12.263699531555176,0,0,0.7644000053405762
1.072964571,0,0,13.489530563354492,0,0,0.8408399820327759
1.073586897,0,0,13.489530563354492,0,0,0.611519992351532
1.074208205,0,0,-8.576030731201172,0,0,1.070159912109375
1.074830087,0,0,15.941193580627441,0,0,0.611519992351532
1.075451783,0,0,15.941193580627441,0,0,0.7644000053405762
1.076073609,0,0,4.909310817718506,0,0,1.070159912109375
1.0766951200000001,0,0,-14.091672897338867,0,0,0.9172800183296204
1.07731741,0,0,-14.091672897338867,0,0,0.6879600286483765
1.077939791,0,0,-6.123769283294678,0,0,0.7644000053405762
1.07856821,0,0,-6.123769283294678,0,0,0.9937199950218201
1.079190684,0,0,-14.091672897338867,0,0,1.070159912109375
1.079812362,0,0,-17.15625,0,0,1.070159912109375
1.080434484,0,0,-17.15625,0,0,1.070159912109375
1.081056255,0,0,17.779939651489258,0,0,0.7644000053405762
1.081678803,0,0,-16.543933868408203,0,0,1.070159912109375
1.082300259,0,0,-16.543933868408203,0,0,0.7644000053405762
1.082921696,0,0,-1.2210428714752197,0,0,1.070159912109375
1.083543504,0,0,-1.2210428714752197,0,0,0.611519992351532
1.084165571,0,0,2.457049608230591,0,0,0.6879600286483765
1.084787452,0,0,6.134543418884277,0,0,0.8408399820327759
1.085413463,0,0,6.134543418884277,0,0,2.5989599227905273
1.086035827,0,0,14.715362548828125,0,0,0.4586400091648102
1.08665619,0,0,-16.5433349609375,0,0,1.070159912109375
1.087293145,0,0,-16.5433349609375,0,0,0.9172800183296204
1.087916045,0,0,-3.6721067428588867,0,0,0.9172800183296204
1.088538057,0,0,-3.6721067428588867,0,0,0.611519992351532
1.089159605,0,0,-9.801262855529785,0,0,0.5350799560546875
1.089782172,0,0,-16.5433349609375,0,0,0.9937199950218201
1.090403072,0,0,-16.5433349609375,0,0,0.9937199950218201
1.091025028,0,0,-8.575431823730469,0,0,0.611519992351532
1.091646835,0,0,-18.382081985473633,0,0,0.6879600286483765
1.092268587,0,0,-18.382081985473633,0,0,0.9172800183296204
1.092890506,0,0,-17.156848907470703,0,0,0.8408399820327759
1.0935131280000001,0,0,-17.156848907470703,0,0,0.8408399820327759
1.094134918,0,0,11.650784492492676,0,0,0.8408399820327759
1.094756762,0,0,14.102446556091309,0,0,1.070159912109375
1.09537844,0,0,14.102446556091309,0,0,0.6879600286483765
1.096000266,0,0,-10.414777755737305,0,0,0.9937199950218201
1.096621852,0,0,-10.414777755737305,0,0,0.6879600286483765
1.097243863,0,0,-9.801861763000488,0,0,0.7644000053405762
1.097866115,0,0,18.39285659790039,0,0,0.6879600286483765
1.098487293,0,0,18.39285659790039,0,0,0.9937199950218201
1.0991092120000001,0,0,-1.2204443216323853,0,0,0.6879600286483765
1.09973063,0,0,4.909310817718506,0,0,1.1466000080108643
1.1003525299999999,0,0,4.909310817718506,0,0,1.070159912109375
1.100974431,0,0,-11.640009880065918,0,0,0.611519992351532
1.101596609,0,0,-11.640009880065918,0,0,1.1466000080108643
1.102218046,0,0,-13.47875690460205,0,0,0.6879600286483765
1.102839705,0,0,12.263699531555176,0,0,0.6879600286483765
1.103461531,0,0,12.263699531555176,0,0,0.9172800183296204
1.104083431,0,0,2.457049608230591,0,0,0.9937199950218201
1.104704813,0,0,-6.736684799194336,0,0,0.7644000053405762
1.105326621,0,0,-6.736684799194336,0,0,0.6879600286483765
1.105948706,0,0,10.424952507019043,0,0,0.9937199950218201
1.106570162,0,0,10.424952507019043,0,0,1.1466000080108643
1.107191599,0,0,8.58620548248291,0,0,0.611519992351532
1.107813536,0,0,-15.317503929138184,0,0,0.8408399820327759
1.108435177,0,0,-15.317503929138184,0,0,2.9811599254608154
1.109057022,0,0,4.909310817718506,0,0,0.9172800183296204
1.109678922,0,0,13.490129470825195,0,0,0.8408399820327759
1.1103004890000001,0,0,13.490129470825195,0,0,0.8408399820327759
1.110922611,0,0,-18.994400024414063,0,0,0.8408399820327759
1.111544474,0,0,-18.994400024414063,0,0,0.9172800183296204
1.112166097,0,0,3.6834793090820313,0,0,0.5350799560546875
1.112788015,0,0,4.2963948249816895,0,0,0.9937199950218201
1.113409916,0,0,4.2963948249816895,0,0,0.7644000053405762
1.114032742,0,0,-11.640009880065918,0,0,1.223039984703064
1.11465392,0,0,4.908711910247803,0,0,0.7644000053405762
1.11527532,0,0,4.908711910247803,0,0,1.223039984703064
1.115896979,0,0,3.069965124130249,0,0,0.9172800183296204
1.11651875,0,0,3.069965124130249,0,0,-9.249239921569824
1.117140576,0,0,14.102446556091309,0,0,0.9172800183296204
1.117763069,0,0,0.618302583694458,0,0,1.1466000080108643
1.118384247,0,0,0.618302583694458,0,0,0.8408399820327759
1.119006313,0,0,-5.5114521980285645,0,0,0.7644000053405762
1.119627991,0,0,-5.5114521980285645,0,0,0.7644000053405762
1.120249873,0,0,12.876615524291992,0,0,1.070159912109375
1.120871792,0,0,1.844732403755188,0,0,0.8408399820327759
1.121505081,0,0,1.844732403755188,0,0,0.9172800183296204
1.122127055,0,0,4.909310817718506,0,0,0.9172800183296204
1.122748751,0,0,6.135141849517822,0,0,0.9937199950218201
1.123370707,0,0,6.135141849517822,0,0,0.9172800183296204
1.123992755,0,0,-8.575431823730469,0,0,0.611519992351532
1.124614285,0,0,-8.575431823730469,0,0,0.8408399820327759
1.125236074,0,0,7.360374450683594,0,0,0.9172800183296204
1.125858493,0,0,1.2312182188034058,0,0,0.6879600286483765
1.126479449,0,0,1.2312182188034058,0,0,1.070159912109375
1.127107052,0,0,-3.6727054119110107,0,0,0.7644000053405762
1.127729601,0,0,10.424952507019043,0,0,0.7644000053405762
1.128351668,0,0,10.424952507019043,0,0,0.6879600286483765
1.128973086,0,0,11.03786849975586,0,0,0.6879600286483765
1.129595153,0,0,11.03786849975586,0,0,0.8408399820327759
1.130217053,0,0,-11.640009880065918,0,0,0.7644000053405762
1.130839009,0,0,2.4576480388641357,0,0,0.6879600286483765
1.131460724,0,0,2.4576480388641357,0,0,0.9172800183296204
1.132082402,0,0,-6.123769283294678,0,0,0.9937199950218201
1.132704358,0,0,-6.123769283294678,0,0,0.611519992351532
1.133325925,0,0,-6.123769283294678,0,0,0.7644000053405762
1.1339491210000001,0,0,-9.188347816467285,0,0,1.1466000080108643
1.134570114,0,0,-9.188347816467285,0,0,1.070159912109375
1.135191773,0,0,-7.9625163078308105,0,0,1.223039984703064
1.135813859,0,0,-11.640009880065918,0,0,0.9172800183296204
1.136435481,0,0,-11.640009880065918,0,0,0.8408399820327759
1.1370572700000001,0,0,17.167024612426758,0,0,0.7644000053405762
1.137680059,0,0,-18.994997024536133,0,0,0.611519992351532
1.1383008669999999,0,0,-18.994997024536133,0,0,0.8408399820327759
1.138922822,0,0,15.941193580627441,0,0,0.7644000053405762
1.139544352,0,0,15.941193580627441,0,0,0.7644000053405762
1.14016616,0,0,3.6828808784484863,0,0,-8.943479537963867
1.140787967,0,0,15.328277587890625,0,0,0.7644000053405762
1.14140946,0,0,15.328277587890625,0,0,0.9172800183296204
1.142032101,0,0,-0.6075286865234375,0,0,1.070159912109375
1.142653242,0,0,-0.6075286865234375,0,0,1.1466000080108643
1.143275087,0,0,-0.6075286865234375,0,0,0.611519992351532
1.1438964679999999,0,0,-13.47875690460205,0,0,0.611519992351532
1.144517942,0,0,-13.47875690460205,0,0,0.6879600286483765
1.1451398799999999,0,0,-3.0591912269592285,0,0,0.8408399820327759
1.145762354,0,0,-4.285022258758545,0,0,1.1466000080108643
1.146383624,0,0,-4.285022258758545,0,0,0.6879600286483765
1.147005228,0,0,-16.5433349609375,0,0,0.6879600286483765
1.147628517,0,0,-16.5433349609375,0,0,1.070159912109375
1.148250584,0,0,14.715362548828125,0,0,0.7644000053405762
1.148872225,0,0,12.876615524291992,0,0,1.070159912109375
1.149506588,0,0,12.876615524291992,0,0,0.7644000053405762
1.150128414,0,0,10.424952507019043,0,0,0.9937199950218201
1.150750333,0,0,10.424952507019043,0,0,0.8408399820327759
1.151372048,0,0,10.424952507019043,0,0,0.9937199950218201
1.151993485,0,0,5.521627902984619,0,0,0.9172800183296204
1.152615404,0,0,5.521627902984619,0,0,0.611519992351532
1.153237008,0,0,10.424952507019043,0,0,0.5350799560546875
1.153859963,0,0,-14.091672897338867,0,0,0.9937199950218201
1.154481067,0,0,-14.091672897338867,0,0,2.6754000186920166
1.155102801,0,0,17.78053855895996,0,0,0.7644000053405762
1.1557248119999999,0,0,-11.027094841003418,0,0,0.9172800183296204
1.156346434,0,0,-11.027094841003418,0,0,0.7644000053405762
1.156968205,0,0,-18.994997024536133,0,0,0.9172800183296204
1.157590642,0,0,-18.994997024536133,0,0,0.7644000053405762
1.158211783,0,0,19.00577163696289,0,0,0.9937199950218201
1.158833591,0,0,-19.607913970947266,0,0,1.070159912109375
1.159454935,0,0,-19.607913970947266,0,0,0.9937199950218201
1.16007665,0,0,-9.801861763000488,0,0,1.070159912109375
1.160698421,0,0,-15.317503929138184,0,0,0.9937199950218201
1.16132021,0,0,-15.317503929138184,0,0,0.9937199950218201
1.161942851,0,0,13.489530563354492,0,0,1.070159912109375
1.162563899,0,0,13.489530563354492,0,0,0.9172800183296204
1.163185781,0,0,-5.5114521980285645,0,0,1.1466000080108643
1.163807181,0,0,-15.930419921875,0,0,0.5350799560546875
1.164428952,0,0,-15.930419921875,0,0,0.7644000053405762
1.16505063,0,0,-3.0591912269592285,0,0,0.9172800183296204
1.165672993,0,0,-5.5108537673950195,0,0,1.223039984703064
1.166294615,0,0,-5.5108537673950195,0,0,0.7644000053405762
1.166922737,0,0,12.264298439025879,0,0,0.7644000053405762
1.167545026,0,0,12.264298439025879,0,0,0.7644000053405762
1.168166723,0,0,-12.252925872802734,0,0,1.223039984703064
1.168788327,0,0,-6.123769283294678,0,0,0.9937199950218201
1.169410986,0,0,-6.123769283294678,0,0,0.8408399820327759
1.170076127,0,0,17.167024612426758,0,0,0.8408399820327759
1.170728452,0,0,17.167024612426758,0,0,0.9172800183296204
1.172088751,0,0,-16.5433349609375,0,0,0.9937199950218201
1.172737114,0,0,3.6828808784484863,0,0,0.8408399820327759
1.17338531,0,0,3.6828808784484863,0,0,0.9937199950218201
1.174021062,0,0,-12.253523826599121,0,0,0.7644000053405762
1.17466274,0,0,4.2957963943481445,0,0,0.9937199950218201
1.175305936,0,0,4.2957963943481445,0,0,0.7644000053405762
1.175927929,0,0,-13.47875690460205,0,0,0.7644000053405762
1.176549496,0,0,-13.47875690460205,0,0,0.6879600286483765
1.177170933,0,0,-19.607913970947266,0,0,0.611519992351532
1.177793926,0,0,16.554109573364258,0,0,0.4586400091648102
1.178414863,0,0,16.554109573364258,0,0,0.9172800183296204
1.1790367449999999,0,0,-10.414178848266602,0,0,0.7644000053405762
1.179658256,0,0,1.844732403755188,0,0,0.8408399820327759
1.180279712,0,0,1.844732403755188,0,0,1.1466000080108643
1.180901464,0,0,-18.382081985473633,0,0,0.9172800183296204
1.181523253,0,0,-18.382081985473633,0,0,0.9172800183296204
1.182145153,0,0,-17.15625,0,0,0.9172800183296204
1.182766905,0,0,16.554109573364258,0,0,0.5350799560546875
1.183388361,0,0,16.554109573364258,0,0,1.1466000080108643
1.184009964,0,0,9.812037467956543,0,0,0.8408399820327759
1.184631383,0,0,2.457049608230591,0,0,0.9937199950218201
1.185253024,0,0,2.457049608230591,0,0,0.9172800183296204
1.185875054,0,0,15.328277587890625,0,0,0.9937199950218201
1.186496473,0,0,15.328277587890625,0,0,0.7644000053405762
1.187118243,0,0,1.844732403755188,0,0,0.611519992351532
1.187739588,0,0,4.2963948249816895,0,0,1.070159912109375
1.188361377,0,0,4.2963948249816895,0,0,0.9172800183296204
1.188982907,0,0,-17.76856803894043,0,0,0.7644000053405762
1.189603677,0,0,-17.76856803894043,0,0,0.8408399820327759
1.190224448,0,0,-12.252326965332031,0,0,1.1466000080108643
1.190844607,0,0,18.39285659790039,0,0,0.7644000053405762
1.191484211,0,0,18.39285659790039,0,0,0.611519992351532
1.192107907,0,0,11.650784492492676,0,0,0.9937199950218201
1.192730437,0,0,14.102446556091309,0,0,0.8408399820327759
1.193352671,0,0,14.102446556091309,0,0,0.9937199950218201
1.193974923,0,0,16.554109573364258,0,0,0.6879600286483765
1.194597101,0,0,16.554109573364258,0,0,0.9937199950218201
1.195219056,0,0,-5.5114521980285645,0,0,0.5350799560546875
1.1958411230000001,0,0,4.2957963943481445,0,0,0.9172800183296204
1.196463153,0,0,4.2957963943481445,0,0,0.611519992351532
1.197085146,0,0,15.328277587890625,0,0,0.5350799560546875
1.19770762,0,0,-14.704587936401367,0,0,0.611519992351532
1.198329446,0,0,-14.704587936401367,0,0,0.8408399820327759
1.198951531,0,0,0.005985504016280174,0,0,0.611519992351532
1.1995734869999999,0,0,0.005985504016280174,0,0,1.223039984703064
1.200195387,0,0,-1.833359956741333,0,0,2.3696401119232178
1.200820084,0,0,12.263699531555176,0,0,0.9172800183296204
1.201459502,0,0,12.263699531555176,0,0,0.7644000053405762
1.202084773,0,0,0.005386953707784414,0,0,0.9937199950218201
1.202707062,0,0,2.457049608230591,0,0,0.6879600286483765
1.203328888,0,0,2.457049608230591,0,0,0.7644000053405762
1.203950936,0,0,6.134543418884277,0,0,0.9937199950218201
1.204572781,0,0,6.134543418884277,0,0,0.8408399820327759
1.20519494,0,0,12.876615524291992,0,0,0.9172800183296204
1.2058171739999999,0,0,-1.8339585065841675,0,0,0.9172800183296204
1.206439018,0,0,-1.8339585065841675,0,0,0.7644000053405762
1.207060993,0,0,6.134543418884277,0,0,1.1466000080108643
1.20770917,0,0,18.39285659790039,0,0,0.9172800183296204
1.208331941,0,0,18.39285659790039,0,0,0.8408399820327759
1.208954026,0,0,0.6189011335372925,0,0,0.9937199950218201
1.209576593,0,0,0.6189011335372925,0,0,0.7644000053405762
1.210198512,0,0,5.522226333618164,0,0,0.9172800183296204
1.210819967,0,0,14.715960502624512,0,0,0.9172800183296204
1.211441756,0,0,14.715960502624512,0,0,0.611519992351532
1.212063194,0,0,-5.5108537673950195,0,0,0.8408399820327759
1.2126846119999999,0,0,-16.5433349609375,0,0,0.9937199950218201
1.213306364,0,0,-16.5433349609375,0,0,1.1466000080108643
1.213928209,0,0,-17.15625,0,0,0.7644000053405762
1.214550109,0,0,-17.15625,0,0,1.1466000080108643
1.215171454,0,0,-13.47875690460205,0,0,0.6879600286483765
1.215793113,0,0,18.39285659790039,0,0,0.9172800183296204
1.216414884,0,0,18.39285659790039,0,0,0.9937199950218201
1.217036636,0,0,-9.801861763000488,0,0,0.8408399820327759
1.217658592,0,0,3.069965124130249,0,0,0.8408399820327759
1.218280214,0,0,3.069965124130249,0,0,0.9172800183296204
1.218902151,0,0,17.779939651489258,0,0,0.8408399820327759
1.219523848,0,0,17.779939651489258,0,0,0.9172800183296204
1.220145396,0,0,0.005985504016280174,0,0,0.9937199950218201
1.220767407,0,0,0.005985504016280174,0,0,0.7644000053405762
1.221388863,0,0,0.005985504016280174,0,0,0.611519992351532
1.222010819,0,0,-4.285022258758545,0,0,0.6879600286483765
1.222632645,0,0,-13.47875690460205,0,0,0.611519992351532
1.223254286,0,0,-13.47875690460205,0,0,0.9172800183296204
1.2238759080000001,0,0,-7.349600791931152,0,0,1.375920057296753
1.224497475,0,0,-7.349600791931152,0,0,0.9937199950218201
1.2251193009999999,0,0,18.39285659790039,0,0,0.5350799560546875
1.225741331,0,0,4.908711910247803,0,0,0.8408399820327759
1.226362972,0,0,4.908711910247803,0,0,0.9937199950218201
1.226984742,0,0,11.03786849975586,0,0,0.611519992351532
1.227606309,0,0,11.03786849975586,0,0,1.223039984703064
1.2282281720000001,0,0,0.005386953707784414,0,0,0.6879600286483765
1.228850054,0,0,11.03786849975586,0,0,0.9172800183296204
1.229471695,0,0,11.03786849975586,0,0,1.1466000080108643
1.23009378,0,0,-7.349600791931152,0,0,0.6879600286483765
1.23071544,0,0,-19.607315063476563,0,0,0.7644000053405762
1.23133721,0,0,-19.607315063476563,0,0,0.611519992351532
1.231958629,0,0,4.909310817718506,0,0,0.9937199950218201
1.2325804360000001,0,0,4.909310817718506,0,0,0.9937199950218201
1.233202151,0,0,4.909310817718506,0,0,0.611519992351532
1.233824737,0,0,-4.285022258758545,0,0,0.611519992351532
1.234445693,0,0,-4.285022258758545,0,0,0.9172800183296204
1.23506713,0,0,-6.736684799194336,0,0,1.1466000080108643
1.23568903,0,0,7.97329044342041,0,0,0.9172800183296204
1.23631106,0,0,7.97329044342041,0,0,0.9172800183296204
1.236932701,0,0,7.360374450683594,0,0,0.8408399820327759
1.23755599,0,0,7.360374450683594,0,0,1.1466000080108643
1.238177427,0,0,14.715362548828125,0,0,0.9937199950218201
1.238799179,0,0,6.7474589347839355,0,0,1.070159912109375
1.239420561,0,0,6.7474589347839355,0,0,0.9172800183296204
1.240041961,0,0,0.005386953707784414,0,0,0.9937199950218201
1.240663676,0,0,15.941193580627441,0,0,0.9172800183296204
1.241285057,0,0,15.941193580627441,0,0,0.7644000053405762
1.241907717,0,0,3.6834793090820313,0,0,0.7644000053405762
1.242528765,0,0,3.6834793090820313,0,0,0.9172800183296204
1.243150184,0,0,3.6834793090820313,0,0,0.7644000053405762
1.243772028,0,0,14.715960502624512,0,0,0.9172800183296204
1.244393688,0,0,14.715960502624512,0,0,0.6879600286483765
1.2450153099999999,0,0,-10.414178848266602,0,0,0.9172800183296204
1.245637081,0,0,-18.994997024536133,0,0,0.6879600286483765
1.246258703,0,0,-18.994997024536133,0,0,0.9172800183296204
1.246880622,0,0,-18.994997024536133,0,0,0.8408399820327759
1.247508466,0,0,-18.994997024536133,0,0,0.9937199950218201
1.248130904,0,0,2.457049608230591,0,0,1.223039984703064
1.248752322,0,0,0.618302583694458,0,0,0.6879600286483765
1.249373908,0,0,0.618302583694458,0,0,0.7644000053405762
1.249996493,0,0,8.58620548248291,0,0,0.6879600286483765
1.2506172819999999,0,0,-8.576030731201172,0,0,0.611519992351532
1.251239256,0,0,-8.576030731201172,0,0,1.375920057296753
1.2518604899999999,0,0,-9.188945770263672,0,0,0.6879600286483765
1.252482223,0,0,-9.188945770263672,0,0,0.7644000053405762
1.253103957,0,0,-14.704587936401367,0,0,0.9172800183296204
1.253726098,0,0,9.81263542175293,0,0,1.070159912109375
1.254347442,0,0,9.81263542175293,0,0,2.828279972076416
1.254968898,0,0,-9.801262855529785,0,0,0.9937199950218201
1.255590595,0,0,-9.801262855529785,0,0,0.611519992351532
1.256212439,0,0,-1.2204443216323853,0,0,0.9172800183296204
1.256834006,0,0,-8.575431823730469,0,0,1.070159912109375
1.257456628,0,0,-8.575431823730469,0,0,0.611519992351532
1.2580778989999999,0,0,13.489530563354492,0,0,0.9172800183296204
1.258699725,0,0,-3.6727054119110107,0,0,1.070159912109375
1.259321514,0,0,-3.6727054119110107,0,0,1.070159912109375
1.2599431,0,0,-5.5114521980285645,0,0,0.9937199950218201
1.260564889,0,0,-5.5114521980285645,0,0,0.9172800183296204
1.261186511,0,0,0.618302583694458,0,0,0.6879600286483765
1.261809152,0,0,-6.124367713928223,0,0,0.8408399820327759
1.262430459,0,0,-6.124367713928223,0,0,0.6879600286483765
1.263052026,0,0,-2.4468741416931152,0,0,0.8408399820327759
1.263673686,0,0,-0.608127236366272,0,0,0.8408399820327759
1.2642951789999999,0,0,-0.608127236366272,0,0,0.6879600286483765
1.26491706,0,0,15.328277587890625,0,0,0.8408399820327759
1.265539868,0,0,15.328277587890625,0,0,0.8408399820327759
1.266161675,0,0,1.2318167686462402,0,0,0.9937199950218201
1.26678365,0,0,-9.188347816467285,0,0,0.611519992351532
1.267405068,0,0,-9.188347816467285,0,0,0.6879600286483765
1.2680267459999999,0,0,-12.865840911865234,0,0,1.1466000080108643
1.2686483499999999,0,0,-19.607913970947266,0,0,1.070159912109375
1.2692703060000001,0,0,-19.607913970947266,0,0,0.8408399820327759
1.269893706,0,0,-5.5114521980285645,0,0,1.070159912109375
1.270514347,0,0,-5.5114521980285645,0,0,0.6879600286483765
1.27113608,0,0,-14.70518684387207,0,0,0.8408399820327759
1.271757666,0,0,-3.0597896575927734,0,0,0.7644000053405762
1.272379288,0,0,-3.0597896575927734,0,0,0.7644000053405762
1.273001207,0,0,0.005386953707784414,0,0,1.070159912109375
1.2736237369999999,0,0,9.812037467956543,0,0,0.9172800183296204
1.274245044,0,0,9.812037467956543,0,0,0.8408399820327759
1.274866556,0,0,-9.188347816467285,0,0,0.8408399820327759
1.275488419,0,0,-9.188347816467285,0,0,1.070159912109375
1.276110337,0,0,-3.0591912269592285,0,0,0.9172800183296204
1.276731775,0,0,5.522226333618164,0,0,0.9937199950218201
1.277353786,0,0,5.522226333618164,0,0,0.9172800183296204
1.2779761299999999,0,0,-4.897938251495361,0,0,0.9172800183296204
1.27859742,0,0,-4.897938251495361,0,0,0.9172800183296204
1.279218986,0,0,-14.091672897338867,0,0,0.9937199950218201
1.279840461,0,0,-6.123769283294678,0,0,0.9937199950218201
1.28046212,0,0,-6.123769283294678,0,0,0.8408399820327759
1.281083631,0,0,10.424952507019043,0,0,0.9172800183296204
1.281706161,0,0,11.650784492492676,0,0,0.6879600286483765
1.282327987,0,0,11.650784492492676,0,0,1.223039984703064
1.282949628,0,0,-6.123769283294678,0,0,0.9172800183296204
1.283571362,0,0,-6.123769283294678,0,0,0.7644000053405762
1.284310353,0,0,18.39285659790039,0,0,0.8408399820327759
1.284935809,0,0,-17.156848907470703,0,0,0.9937199950218201
1.285558913,0,0,-17.156848907470703,0,0,0.7644000053405762
1.286180442,0,0,6.134543418884277,0,0,0.5350799560546875
1.286802269,0,0,-13.47875690460205,0,0,0.6879600286483765
1.287423854,0,0,-13.47875690460205,0,0,0.9172800183296204
1.2880453840000001,0,0,0.6189011335372925,0,0,0.9172800183296204
1.2886671729999999,0,0,9.19972038269043,0,0,0.8408399820327759
1.289288703,0,0,9.19972038269043,0,0,0.7644000053405762
1.289911455,0,0,11.038467407226563,0,0,0.7644000053405762
1.290532336,0,0,11.038467407226563,0,0,1.1466000080108643
1.29115407,0,0,6.7480573654174805,0,0,0.9172800183296204
1.291781544,0,0,-15.930419921875,0,0,0.9172800183296204
1.292403703,0,0,-15.930419921875,0,0,1.070159912109375
1.2930256039999999,0,0,2.457049608230591,0,0,1.375920057296753
1.293647948,0,0,-3.0591912269592285,0,0,0.5350799560546875
1.294269182,0,0,-3.0591912269592285,0,0,0.8408399820327759
1.294890674,0,0,-8.575431823730469,0,0,0.6879600286483765
1.295512056,0,0,-8.575431823730469,0,0,1.070159912109375
1.296133845,0,0,5.521627902984619,0,0,0.9937199950218201
1.296755319,0,0,-7.349600791931152,0,0,0.7644000053405762
1.297377071,0,0,-7.349600791931152,0,0,0.2293200045824051
1.2979990639999999,0,0,3.6834793090820313,0,0,0.9937199950218201
1.298620168,0,0,-16.5433349609375,0,0,0.8408399820327759
1.299241902,0,0,-16.5433349609375,0,0,0.611519992351532
1.299863265,0,0,-4.285022258758545,0,0,0.611519992351532
1.300484924,0,0,-4.285022258758545,0,0,0.7644000053405762
1.301106361,0,0,-3.6721067428588867,0,0,0.8408399820327759
1.30172891,0,0,-9.188347816467285,0,0,0.9172800183296204
